"exp","id","block","item","trial","isold","condition1","rating","RT","excluding"
"APH2016_e1","APH2016_e1_1",0,"commerce",1,0,"Backward",1,1844,"Exclude"
"APH2016_e1","APH2016_e1_1",0,"ashamed",2,1,"Backward",6,1907,"Exclude"
"APH2016_e1","APH2016_e1_1",0,"frighten",3,1,"Backward",6,1250,"Exclude"
"APH2016_e1","APH2016_e1_1",0,"youthful",4,0,"Backward",1,1828,"Exclude"
"APH2016_e1","APH2016_e1_1",0,"softly",5,0,"Backward",1,1734,"Exclude"
"APH2016_e1","APH2016_e1_1",0,"unknown",6,1,"Backward",6,1250,"Exclude"
"APH2016_e1","APH2016_e1_1",0,"truly",7,1,"Backward",6,1172,"Exclude"
"APH2016_e1","APH2016_e1_1",0,"dirty",8,0,"Backward",1,1688,"Exclude"
"APH2016_e1","APH2016_e1_1",0,"kingdom",9,1,"Backward",6,1140,"Exclude"
"APH2016_e1","APH2016_e1_1",0,"purchase",10,0,"Backward",2,2094,"Exclude"
"APH2016_e1","APH2016_e1_1",0,"scarcely",11,0,"Backward",2,2015,"Exclude"
"APH2016_e1","APH2016_e1_1",0,"costly",12,1,"Backward",6,953,"Exclude"
"APH2016_e1","APH2016_e1_1",0,"fairly",13,0,"Backward",2,2469,"Exclude"
"APH2016_e1","APH2016_e1_1",0,"barely",14,1,"Backward",5,2500,"Exclude"
"APH2016_e1","APH2016_e1_1",0,"replace",15,0,"Backward",2,2453,"Exclude"
"APH2016_e1","APH2016_e1_1",0,"stocking",16,1,"Backward",6,1469,"Exclude"
"APH2016_e1","APH2016_e1_1",0,"neglect",17,1,"Backward",6,1110,"Exclude"
"APH2016_e1","APH2016_e1_1",0,"briefly",18,0,"Backward",3,3265,"Exclude"
"APH2016_e1","APH2016_e1_1",0,"lucky",19,1,"Backward",6,1500,"Exclude"
"APH2016_e1","APH2016_e1_1",0,"singer",20,0,"Backward",1,2468,"Exclude"
"APH2016_e1","APH2016_e1_1",0,"restless",21,0,"Backward",2,2203,"Exclude"
"APH2016_e1","APH2016_e1_1",0,"sickness",22,0,"Backward",1,1828,"Exclude"
"APH2016_e1","APH2016_e1_1",0,"shortly",23,1,"Backward",6,1297,"Exclude"
"APH2016_e1","APH2016_e1_1",0,"intend",24,1,"Backward",5,2375,"Exclude"
"APH2016_e1","APH2016_e1_1",0,"splendid",25,1,"Backward",6,1438,"Exclude"
"APH2016_e1","APH2016_e1_1",0,"cheerful",26,0,"Backward",1,2640,"Exclude"
"APH2016_e1","APH2016_e1_1",0,"worker",27,1,"Backward",6,1062,"Exclude"
"APH2016_e1","APH2016_e1_1",0,"handsome",28,0,"Backward",1,1328,"Exclude"
"APH2016_e1","APH2016_e1_1",0,"exchange",29,1,"Backward",6,1391,"Exclude"
"APH2016_e1","APH2016_e1_1",0,"wicked",30,1,"Backward",6,969,"Exclude"
"APH2016_e1","APH2016_e1_1",0,"kindness",31,0,"Backward",3,2891,"Exclude"
"APH2016_e1","APH2016_e1_1",0,"collect",32,0,"Backward",2,2282,"Exclude"
"APH2016_e1","APH2016_e1_1",0,"latter",33,0,"Backward",1,1438,"Exclude"
"APH2016_e1","APH2016_e1_1",0,"deadly",34,1,"Backward",6,1109,"Exclude"
"APH2016_e1","APH2016_e1_1",0,"twilight",35,0,"Backward",1,1390,"Exclude"
"APH2016_e1","APH2016_e1_1",0,"rocky",36,1,"Backward",6,1219,"Exclude"
"APH2016_e1","APH2016_e1_1",0,"highly",37,1,"Backward",6,1578,"Exclude"
"APH2016_e1","APH2016_e1_1",0,"mostly",38,0,"Backward",3,3407,"Exclude"
"APH2016_e1","APH2016_e1_1",0,"flourish",39,0,"Backward",1,1625,"Exclude"
"APH2016_e1","APH2016_e1_1",0,"writer",40,1,"Backward",6,1094,"Exclude"
"APH2016_e1","APH2016_e1_1",0,"column",41,0,"Backward",1,1656,"Exclude"
"APH2016_e1","APH2016_e1_1",0,"condemn",42,0,"Backward",2,3015,"Exclude"
"APH2016_e1","APH2016_e1_1",0,"fiercely",43,1,"Backward",6,953,"Exclude"
"APH2016_e1","APH2016_e1_1",0,"worship",44,1,"Backward",6,1719,"Exclude"
"APH2016_e1","APH2016_e1_1",0,"array",45,1,"Backward",6,1188,"Exclude"
"APH2016_e1","APH2016_e1_1",0,"grateful",46,1,"Backward",4,2640,"Exclude"
"APH2016_e1","APH2016_e1_1",0,"complain",47,0,"Backward",2,2719,"Exclude"
"APH2016_e1","APH2016_e1_1",0,"wedding",48,0,"Backward",1,1468,"Exclude"
"APH2016_e1","APH2016_e1_1",1,"derive",1,1,"Backward",6,3016,"Include"
"APH2016_e1","APH2016_e1_1",1,"occur",2,0,"Backward",1,2610,"Include"
"APH2016_e1","APH2016_e1_1",1,"chapel",3,1,"Backward",6,1032,"Include"
"APH2016_e1","APH2016_e1_1",1,"prayer",4,0,"Backward",1,1766,"Include"
"APH2016_e1","APH2016_e1_1",1,"fabric",5,0,"Backward",1,1875,"Include"
"APH2016_e1","APH2016_e1_1",1,"resist",6,0,"Backward",2,2343,"Include"
"APH2016_e1","APH2016_e1_1",1,"parent",7,1,"Backward",6,1109,"Include"
"APH2016_e1","APH2016_e1_1",1,"resolve",8,1,"Backward",5,2719,"Include"
"APH2016_e1","APH2016_e1_1",1,"afford",9,1,"Backward",3,3922,"Include"
"APH2016_e1","APH2016_e1_1",1,"voyage",10,0,"Backward",1,1547,"Include"
"APH2016_e1","APH2016_e1_1",1,"normal",11,0,"Backward",1,1719,"Include"
"APH2016_e1","APH2016_e1_1",1,"fever",12,1,"Backward",6,922,"Include"
"APH2016_e1","APH2016_e1_1",1,"model",13,1,"Backward",6,766,"Include"
"APH2016_e1","APH2016_e1_1",1,"wander",14,0,"Backward",1,1360,"Include"
"APH2016_e1","APH2016_e1_1",1,"emerge",15,0,"Backward",2,1843,"Include"
"APH2016_e1","APH2016_e1_1",1,"spirit",16,1,"Backward",6,1063,"Include"
"APH2016_e1","APH2016_e1_1",1,"comrade",17,0,"Backward",1,1985,"Include"
"APH2016_e1","APH2016_e1_1",1,"native",18,1,"Backward",6,954,"Include"
"APH2016_e1","APH2016_e1_1",1,"forest",19,0,"Backward",1,2875,"Include"
"APH2016_e1","APH2016_e1_1",1,"angel",20,1,"Backward",6,766,"Include"
"APH2016_e1","APH2016_e1_1",1,"patient",21,0,"Backward",1,2094,"Include"
"APH2016_e1","APH2016_e1_1",1,"compare",22,1,"Backward",5,2312,"Include"
"APH2016_e1","APH2016_e1_1",1,"scholar",23,1,"Backward",6,1250,"Include"
"APH2016_e1","APH2016_e1_1",1,"wisdom",24,0,"Backward",2,2500,"Include"
"APH2016_e1","APH2016_e1_1",1,"jealous",25,1,"Backward",6,843,"Include"
"APH2016_e1","APH2016_e1_1",1,"unlike",26,1,"Backward",6,844,"Include"
"APH2016_e1","APH2016_e1_1",1,"victim",27,0,"Backward",1,1828,"Include"
"APH2016_e1","APH2016_e1_1",1,"fury",28,0,"Backward",1,1031,"Include"
"APH2016_e1","APH2016_e1_1",1,"conquest",29,0,"Backward",1,1125,"Include"
"APH2016_e1","APH2016_e1_1",1,"finish",30,1,"Backward",6,1110,"Include"
"APH2016_e1","APH2016_e1_1",1,"riches",31,1,"Backward",6,844,"Include"
"APH2016_e1","APH2016_e1_1",1,"enter",32,0,"Backward",2,1750,"Include"
"APH2016_e1","APH2016_e1_1",1,"earnest",33,0,"Backward",1,1593,"Include"
"APH2016_e1","APH2016_e1_1",1,"former",34,0,"Backward",2,2203,"Include"
"APH2016_e1","APH2016_e1_1",1,"bottom",35,1,"Backward",6,1281,"Include"
"APH2016_e1","APH2016_e1_1",1,"closet",36,1,"Backward",3,3828,"Include"
"APH2016_e1","APH2016_e1_1",1,"elbow",37,1,"Backward",6,1219,"Include"
"APH2016_e1","APH2016_e1_1",1,"double",38,1,"Backward",6,766,"Include"
"APH2016_e1","APH2016_e1_1",1,"contain",39,0,"Backward",4,2422,"Include"
"APH2016_e1","APH2016_e1_1",1,"helmet",40,0,"Backward",2,2829,"Include"
"APH2016_e1","APH2016_e1_1",1,"legal",41,1,"Backward",6,1219,"Include"
"APH2016_e1","APH2016_e1_1",1,"linen",42,0,"Backward",2,2062,"Include"
"APH2016_e1","APH2016_e1_1",1,"erect",43,1,"Backward",6,875,"Include"
"APH2016_e1","APH2016_e1_1",1,"measure",44,0,"Backward",2,2281,"Include"
"APH2016_e1","APH2016_e1_1",1,"appear",45,0,"Backward",3,3375,"Include"
"APH2016_e1","APH2016_e1_1",1,"horror",46,1,"Backward",6,843,"Include"
"APH2016_e1","APH2016_e1_1",1,"disgrace",47,0,"Backward",1,1734,"Include"
"APH2016_e1","APH2016_e1_1",1,"cable",48,1,"Backward",6,1016,"Include"
"APH2016_e1","APH2016_e1_1",2,"anchor",1,0,"Backward",1,1406,"Include"
"APH2016_e1","APH2016_e1_1",2,"hollow",2,0,"Backward",1,1516,"Include"
"APH2016_e1","APH2016_e1_1",2,"harness",3,1,"Backward",5,2125,"Include"
"APH2016_e1","APH2016_e1_1",2,"tunnel",4,1,"Backward",6,1219,"Include"
"APH2016_e1","APH2016_e1_1",2,"castle",5,1,"Backward",6,812,"Include"
"APH2016_e1","APH2016_e1_1",2,"worry",6,0,"Backward",2,1875,"Include"
"APH2016_e1","APH2016_e1_1",2,"moral",7,1,"Backward",6,875,"Include"
"APH2016_e1","APH2016_e1_1",2,"absorb",8,0,"Backward",1,1578,"Include"
"APH2016_e1","APH2016_e1_1",2,"lawyer",9,1,"Backward",6,938,"Include"
"APH2016_e1","APH2016_e1_1",2,"vital",10,0,"Backward",2,2922,"Include"
"APH2016_e1","APH2016_e1_1",2,"mission",11,0,"Backward",2,1532,"Include"
"APH2016_e1","APH2016_e1_1",2,"frequent",12,1,"Backward",6,1000,"Include"
"APH2016_e1","APH2016_e1_1",2,"current",13,1,"Backward",NA,NA,"Exclude"
"APH2016_e1","APH2016_e1_1",2,"immense",14,0,"Backward",2,2469,"Include"
"APH2016_e1","APH2016_e1_1",2,"expose",15,1,"Backward",5,1797,"Include"
"APH2016_e1","APH2016_e1_1",2,"chosen",16,0,"Backward",3,2125,"Include"
"APH2016_e1","APH2016_e1_1",2,"reform",17,1,"Backward",4,2062,"Include"
"APH2016_e1","APH2016_e1_1",2,"arouse",18,1,"Backward",6,1250,"Include"
"APH2016_e1","APH2016_e1_1",2,"fatal",19,0,"Backward",2,2890,"Include"
"APH2016_e1","APH2016_e1_1",2,"decide",20,0,"Backward",2,1656,"Include"
"APH2016_e1","APH2016_e1_1",2,"apple",21,1,"Backward",6,1063,"Include"
"APH2016_e1","APH2016_e1_1",2,"lecture",22,1,"Backward",6,860,"Include"
"APH2016_e1","APH2016_e1_1",2,"medal",23,0,"Backward",1,1578,"Include"
"APH2016_e1","APH2016_e1_1",2,"submit",24,0,"Backward",1,1188,"Include"
"APH2016_e1","APH2016_e1_1",2,"hungry",25,0,"Backward",1,1140,"Include"
"APH2016_e1","APH2016_e1_1",2,"convert",26,1,"Backward",5,2688,"Include"
"APH2016_e1","APH2016_e1_1",2,"sprinkle",27,1,"Backward",6,875,"Include"
"APH2016_e1","APH2016_e1_1",2,"dissolve",28,0,"Backward",2,2422,"Include"
"APH2016_e1","APH2016_e1_1",2,"teacher",29,1,"Backward",6,625,"Include"
"APH2016_e1","APH2016_e1_1",2,"extra",30,0,"Backward",1,1250,"Include"
"APH2016_e1","APH2016_e1_1",2,"adopt",31,0,"Backward",1,891,"Include"
"APH2016_e1","APH2016_e1_1",2,"express",32,1,"Backward",6,1578,"Include"
"APH2016_e1","APH2016_e1_1",2,"loyal",33,0,"Backward",1,1938,"Include"
"APH2016_e1","APH2016_e1_1",2,"devil",34,1,"Backward",6,672,"Include"
"APH2016_e1","APH2016_e1_1",2,"discuss",35,0,"Backward",3,3203,"Include"
"APH2016_e1","APH2016_e1_1",2,"concert",36,1,"Backward",6,813,"Include"
"APH2016_e1","APH2016_e1_1",2,"dragon",37,0,"Backward",1,1688,"Include"
"APH2016_e1","APH2016_e1_1",2,"artist",38,0,"Backward",1,1031,"Include"
"APH2016_e1","APH2016_e1_1",2,"canvas",39,1,"Backward",6,1109,"Include"
"APH2016_e1","APH2016_e1_1",2,"struggle",40,1,"Backward",6,844,"Include"
"APH2016_e1","APH2016_e1_1",2,"tennis",41,0,"Backward",1,2750,"Include"
"APH2016_e1","APH2016_e1_1",2,"district",42,1,"Backward",6,766,"Include"
"APH2016_e1","APH2016_e1_1",2,"disgust",43,0,"Backward",1,1813,"Include"
"APH2016_e1","APH2016_e1_1",2,"beside",44,1,"Backward",6,875,"Include"
"APH2016_e1","APH2016_e1_1",2,"pointed",45,0,"Backward",1,2204,"Include"
"APH2016_e1","APH2016_e1_1",2,"confuse",46,1,"Backward",6,1141,"Include"
"APH2016_e1","APH2016_e1_1",2,"portion",47,1,"Backward",6,953,"Include"
"APH2016_e1","APH2016_e1_1",2,"device",48,0,"Backward",2,1875,"Include"
"APH2016_e1","APH2016_e1_1",3,"insect",1,0,"Backward",1,1188,"Include"
"APH2016_e1","APH2016_e1_1",3,"manner",2,0,"Backward",5,2453,"Include"
"APH2016_e1","APH2016_e1_1",3,"candy",3,1,"Backward",6,891,"Include"
"APH2016_e1","APH2016_e1_1",3,"basis",4,1,"Backward",6,953,"Include"
"APH2016_e1","APH2016_e1_1",3,"conceal",5,0,"Backward",1,1890,"Include"
"APH2016_e1","APH2016_e1_1",3,"county",6,1,"Backward",6,953,"Include"
"APH2016_e1","APH2016_e1_1",3,"agent",7,0,"Backward",1,2125,"Include"
"APH2016_e1","APH2016_e1_1",3,"servant",8,1,"Backward",6,781,"Include"
"APH2016_e1","APH2016_e1_1",3,"excess",9,1,"Backward",6,1172,"Include"
"APH2016_e1","APH2016_e1_1",3,"perform",10,0,"Backward",4,2391,"Include"
"APH2016_e1","APH2016_e1_1",3,"consent",11,1,"Backward",4,2562,"Include"
"APH2016_e1","APH2016_e1_1",3,"harvest",12,0,"Backward",4,2734,"Include"
"APH2016_e1","APH2016_e1_1",3,"worthy",13,1,"Backward",5,2891,"Include"
"APH2016_e1","APH2016_e1_1",3,"package",14,0,"Backward",2,1625,"Include"
"APH2016_e1","APH2016_e1_1",3,"season",15,0,"Backward",1,1250,"Include"
"APH2016_e1","APH2016_e1_1",3,"admire",16,1,"Backward",6,922,"Include"
"APH2016_e1","APH2016_e1_1",3,"image",17,1,"Backward",6,1125,"Include"
"APH2016_e1","APH2016_e1_1",3,"protest",18,0,"Backward",1,2047,"Include"
"APH2016_e1","APH2016_e1_1",3,"feeble",19,1,"Backward",6,719,"Include"
"APH2016_e1","APH2016_e1_1",3,"absent",20,0,"Backward",2,1875,"Include"
"APH2016_e1","APH2016_e1_1",3,"assume",21,1,"Backward",4,2641,"Include"
"APH2016_e1","APH2016_e1_1",3,"separate",22,0,"Backward",3,3484,"Include"
"APH2016_e1","APH2016_e1_1",3,"dismiss",23,0,"Backward",3,3093,"Include"
"APH2016_e1","APH2016_e1_1",3,"suspect",24,1,"Backward",6,1656,"Include"
"APH2016_e1","APH2016_e1_1",3,"merit",25,1,"Backward",6,688,"Include"
"APH2016_e1","APH2016_e1_1",3,"gentle",26,1,"Backward",6,891,"Include"
"APH2016_e1","APH2016_e1_1",3,"opera",27,0,"Backward",1,1359,"Include"
"APH2016_e1","APH2016_e1_1",3,"induce",28,0,"Backward",3,2969,"Include"
"APH2016_e1","APH2016_e1_1",3,"orchard",29,1,"Backward",6,2391,"Include"
"APH2016_e1","APH2016_e1_1",3,"entire",30,1,"Backward",2,3078,"Include"
"APH2016_e1","APH2016_e1_1",3,"movie",31,0,"Backward",1,3203,"Include"
"APH2016_e1","APH2016_e1_1",3,"declare",32,0,"Backward",2,1578,"Include"
"APH2016_e1","APH2016_e1_1",3,"concern",33,0,"Backward",4,3563,"Include"
"APH2016_e1","APH2016_e1_1",3,"arise",34,1,"Backward",6,1109,"Include"
"APH2016_e1","APH2016_e1_1",3,"detail",35,1,"Backward",6,844,"Include"
"APH2016_e1","APH2016_e1_1",3,"gesture",36,0,"Backward",1,1719,"Include"
"APH2016_e1","APH2016_e1_1",3,"involve",37,0,"Backward",3,2390,"Include"
"APH2016_e1","APH2016_e1_1",3,"impress",38,0,"Backward",4,3203,"Include"
"APH2016_e1","APH2016_e1_1",3,"disease",39,1,"Backward",6,844,"Include"
"APH2016_e1","APH2016_e1_1",3,"cellar",40,1,"Backward",6,843,"Include"
"APH2016_e1","APH2016_e1_1",3,"winter",41,0,"Backward",1,1766,"Include"
"APH2016_e1","APH2016_e1_1",3,"extreme",42,1,"Backward",6,954,"Include"
"APH2016_e1","APH2016_e1_1",3,"echo",43,0,"Backward",1,1250,"Include"
"APH2016_e1","APH2016_e1_1",3,"delight",44,1,"Backward",3,3578,"Include"
"APH2016_e1","APH2016_e1_1",3,"rifle",45,0,"Backward",1,1281,"Include"
"APH2016_e1","APH2016_e1_1",3,"devote",46,1,"Backward",6,891,"Include"
"APH2016_e1","APH2016_e1_1",3,"powder",47,1,"Backward",6,766,"Include"
"APH2016_e1","APH2016_e1_1",3,"command",48,0,"Backward",4,2093,"Include"
"APH2016_e1","APH2016_e1_1",4,"diet",1,0,"Backward",1,1687,"Include"
"APH2016_e1","APH2016_e1_1",4,"jersey",2,0,"Backward",1,922,"Include"
"APH2016_e1","APH2016_e1_1",4,"junior",3,1,"Backward",6,922,"Include"
"APH2016_e1","APH2016_e1_1",4,"event",4,1,"Backward",6,735,"Include"
"APH2016_e1","APH2016_e1_1",4,"connect",5,1,"Backward",5,3890,"Include"
"APH2016_e1","APH2016_e1_1",4,"famous",6,0,"Backward",2,1687,"Include"
"APH2016_e1","APH2016_e1_1",4,"moisture",7,0,"Backward",1,1938,"Include"
"APH2016_e1","APH2016_e1_1",4,"record",8,1,"Backward",6,844,"Include"
"APH2016_e1","APH2016_e1_1",4,"passion",9,0,"Backward",2,3266,"Include"
"APH2016_e1","APH2016_e1_1",4,"ugly",10,0,"Backward",NA,NA,"Exclude"
"APH2016_e1","APH2016_e1_1",4,"estate",11,1,"Backward",6,1046,"Include"
"APH2016_e1","APH2016_e1_1",4,"humble",12,1,"Backward",6,672,"Include"
"APH2016_e1","APH2016_e1_1",4,"project",13,0,"Backward",5,2156,"Include"
"APH2016_e1","APH2016_e1_1",4,"serve",14,1,"Backward",6,969,"Include"
"APH2016_e1","APH2016_e1_1",4,"alas",15,1,"Backward",6,735,"Include"
"APH2016_e1","APH2016_e1_1",4,"campaign",16,0,"Backward",1,1204,"Include"
"APH2016_e1","APH2016_e1_1",4,"describe",17,0,"Backward",1,1844,"Include"
"APH2016_e1","APH2016_e1_1",4,"function",18,1,"Backward",6,844,"Include"
"APH2016_e1","APH2016_e1_1",4,"carriage",19,0,"Backward",1,1203,"Include"
"APH2016_e1","APH2016_e1_1",4,"belong",20,1,"Backward",6,703,"Include"
"APH2016_e1","APH2016_e1_1",4,"reflect",21,0,"Backward",2,1219,"Include"
"APH2016_e1","APH2016_e1_1",4,"tiger",22,1,"Backward",6,703,"Include"
"APH2016_e1","APH2016_e1_1",4,"organ",23,1,"Backward",6,782,"Include"
"APH2016_e1","APH2016_e1_1",4,"decrease",24,0,"Backward",1,1907,"Include"
"APH2016_e1","APH2016_e1_1",4,"message",25,1,"Backward",6,704,"Include"
"APH2016_e1","APH2016_e1_1",4,"conceive",26,0,"Backward",5,2016,"Include"
"APH2016_e1","APH2016_e1_1",4,"mixture",27,1,"Backward",6,656,"Include"
"APH2016_e1","APH2016_e1_1",4,"habit",28,0,"Backward",3,2531,"Include"
"APH2016_e1","APH2016_e1_1",4,"poem",29,1,"Backward",6,765,"Include"
"APH2016_e1","APH2016_e1_1",4,"impulse",30,1,"Backward",6,875,"Include"
"APH2016_e1","APH2016_e1_1",4,"aboard",31,0,"Backward",3,2015,"Include"
"APH2016_e1","APH2016_e1_1",4,"legend",32,0,"Backward",3,813,"Include"
"APH2016_e1","APH2016_e1_1",4,"cherry",33,1,"Backward",6,657,"Include"
"APH2016_e1","APH2016_e1_1",4,"prison",34,0,"Backward",1,1250,"Include"
"APH2016_e1","APH2016_e1_1",4,"weapon",35,1,"Backward",6,781,"Include"
"APH2016_e1","APH2016_e1_1",4,"attend",36,0,"Backward",6,875,"Include"
"APH2016_e1","APH2016_e1_1",4,"abuse",37,0,"Backward",1,1141,"Include"
"APH2016_e1","APH2016_e1_1",4,"stupid",38,1,"Backward",6,672,"Include"
"APH2016_e1","APH2016_e1_1",4,"argue",39,0,"Backward",2,1875,"Include"
"APH2016_e1","APH2016_e1_1",4,"error",40,1,"Backward",2,2453,"Include"
"APH2016_e1","APH2016_e1_1",4,"enjoy",41,1,"Backward",6,734,"Include"
"APH2016_e1","APH2016_e1_1",4,"eagle",42,0,"Backward",1,1109,"Include"
"APH2016_e1","APH2016_e1_1",4,"rabbit",43,0,"Backward",1,703,"Include"
"APH2016_e1","APH2016_e1_1",4,"ashore",44,1,"Backward",6,875,"Include"
"APH2016_e1","APH2016_e1_1",4,"prefer",45,1,"Backward",4,2204,"Include"
"APH2016_e1","APH2016_e1_1",4,"meadow",46,1,"Backward",4,1391,"Include"
"APH2016_e1","APH2016_e1_1",4,"sugar",47,0,"Backward",2,2109,"Include"
"APH2016_e1","APH2016_e1_1",4,"station",48,0,"Backward",2,1437,"Include"
"APH2016_e1","APH2016_e1_1",5,"product",1,0,"Backward",1,1328,"Include"
"APH2016_e1","APH2016_e1_1",5,"ancient",2,0,"Backward",1,937,"Include"
"APH2016_e1","APH2016_e1_1",5,"idle",3,1,"Backward",6,859,"Include"
"APH2016_e1","APH2016_e1_1",5,"dismay",4,1,"Backward",6,1016,"Include"
"APH2016_e1","APH2016_e1_1",5,"thunder",5,0,"Backward",1,969,"Include"
"APH2016_e1","APH2016_e1_1",5,"remain",6,1,"Backward",2,1828,"Include"
"APH2016_e1","APH2016_e1_1",5,"regard",7,1,"Backward",5,1625,"Include"
"APH2016_e1","APH2016_e1_1",5,"pursue",8,0,"Backward",2,1766,"Include"
"APH2016_e1","APH2016_e1_1",5,"signal",9,0,"Backward",1,953,"Include"
"APH2016_e1","APH2016_e1_1",5,"madam",10,0,"Backward",1,781,"Include"
"APH2016_e1","APH2016_e1_1",5,"bother",11,1,"Backward",6,843,"Include"
"APH2016_e1","APH2016_e1_1",5,"arrest",12,1,"Backward",5,2203,"Include"
"APH2016_e1","APH2016_e1_1",5,"folly",13,1,"Backward",6,844,"Include"
"APH2016_e1","APH2016_e1_1",5,"survey",14,0,"Backward",3,2421,"Include"
"APH2016_e1","APH2016_e1_1",5,"regret",15,0,"Backward",2,1547,"Include"
"APH2016_e1","APH2016_e1_1",5,"factor",16,1,"Backward",6,703,"Include"
"APH2016_e1","APH2016_e1_1",5,"coffee",17,1,"Backward",6,578,"Include"
"APH2016_e1","APH2016_e1_1",5,"justice",18,0,"Backward",4,1890,"Include"
"APH2016_e1","APH2016_e1_1",5,"combine",19,1,"Backward",6,1250,"Include"
"APH2016_e1","APH2016_e1_1",5,"series",20,0,"Backward",3,2687,"Include"
"APH2016_e1","APH2016_e1_1",5,"pillow",21,1,"Backward",6,625,"Include"
"APH2016_e1","APH2016_e1_1",5,"cannon",22,0,"Backward",1,1390,"Include"
"APH2016_e1","APH2016_e1_1",5,"confirm",23,0,"Backward",5,2234,"Include"
"APH2016_e1","APH2016_e1_1",5,"modest",24,1,"Backward",6,813,"Include"
"APH2016_e1","APH2016_e1_1",5,"province",25,1,"Backward",6,704,"Include"
"APH2016_e1","APH2016_e1_1",5,"proper",26,1,"Backward",6,844,"Include"
"APH2016_e1","APH2016_e1_1",5,"basin",27,0,"Backward",1,1250,"Include"
"APH2016_e1","APH2016_e1_1",5,"rider",28,0,"Backward",1,1031,"Include"
"APH2016_e1","APH2016_e1_1",5,"mistake",29,0,"Backward",2,1281,"Include"
"APH2016_e1","APH2016_e1_1",5,"await",30,1,"Backward",6,953,"Include"
"APH2016_e1","APH2016_e1_1",5,"desire",31,0,"Backward",5,2391,"Include"
"APH2016_e1","APH2016_e1_1",5,"temple",32,1,"Backward",6,922,"Include"
"APH2016_e1","APH2016_e1_1",5,"endure",33,0,"Backward",1,3016,"Include"
"APH2016_e1","APH2016_e1_1",5,"credit",34,1,"Backward",6,656,"Include"
"APH2016_e1","APH2016_e1_1",5,"heaven",35,1,"Backward",6,703,"Include"
"APH2016_e1","APH2016_e1_1",5,"liquid",36,0,"Backward",1,1328,"Include"
"APH2016_e1","APH2016_e1_1",5,"standard",37,1,"Backward",6,1125,"Include"
"APH2016_e1","APH2016_e1_1",5,"improve",38,1,"Backward",2,1953,"Include"
"APH2016_e1","APH2016_e1_1",5,"danger",39,0,"Backward",1,1141,"Include"
"APH2016_e1","APH2016_e1_1",5,"fallen",40,0,"Backward",2,2015,"Include"
"APH2016_e1","APH2016_e1_1",5,"compound",41,1,"Backward",6,734,"Include"
"APH2016_e1","APH2016_e1_1",5,"receipt",42,0,"Backward",1,1844,"Include"
"APH2016_e1","APH2016_e1_1",5,"honest",43,1,"Backward",6,703,"Include"
"APH2016_e1","APH2016_e1_1",5,"shower",44,0,"Backward",1,1063,"Include"
"APH2016_e1","APH2016_e1_1",5,"payment",45,0,"Backward",1,1156,"Include"
"APH2016_e1","APH2016_e1_1",5,"sulphur",46,1,"Backward",6,843,"Include"
"APH2016_e1","APH2016_e1_1",5,"disguise",47,0,"Backward",5,2469,"Include"
"APH2016_e1","APH2016_e1_1",5,"possess",48,1,"Backward",6,875,"Include"
"APH2016_e1","APH2016_e1_1",6,"likewise",1,1,"Backward",6,984,"Include"
"APH2016_e1","APH2016_e1_1",6,"remove",2,1,"Backward",4,2016,"Include"
"APH2016_e1","APH2016_e1_1",6,"attract",3,0,"Backward",2,1766,"Include"
"APH2016_e1","APH2016_e1_1",6,"boundary",4,0,"Backward",1,1109,"Include"
"APH2016_e1","APH2016_e1_1",6,"wonder",5,0,"Backward",2,2094,"Include"
"APH2016_e1","APH2016_e1_1",6,"obtain",6,1,"Backward",4,1688,"Include"
"APH2016_e1","APH2016_e1_1",6,"career",7,0,"Backward",3,2859,"Include"
"APH2016_e1","APH2016_e1_1",6,"widow",8,1,"Backward",6,1000,"Include"
"APH2016_e1","APH2016_e1_1",6,"method",9,1,"Backward",5,1953,"Include"
"APH2016_e1","APH2016_e1_1",6,"senate",10,0,"Backward",1,1360,"Include"
"APH2016_e1","APH2016_e1_1",6,"stable",11,0,"Backward",2,2578,"Include"
"APH2016_e1","APH2016_e1_1",6,"instinct",12,1,"Backward",6,704,"Include"
"APH2016_e1","APH2016_e1_1",6,"safety",13,0,"Backward",2,2016,"Include"
"APH2016_e1","APH2016_e1_1",6,"cruel",14,1,"Backward",6,593,"Include"
"APH2016_e1","APH2016_e1_1",6,"pardon",15,0,"Backward",1,1953,"Include"
"APH2016_e1","APH2016_e1_1",6,"island",16,1,"Backward",6,594,"Include"
"APH2016_e1","APH2016_e1_1",6,"precious",17,0,"Backward",1,2453,"Include"
"APH2016_e1","APH2016_e1_1",6,"pony",18,1,"Backward",6,563,"Include"
"APH2016_e1","APH2016_e1_1",6,"mayor",19,1,"Backward",6,593,"Include"
"APH2016_e1","APH2016_e1_1",6,"relief",20,0,"Backward",4,2719,"Include"
"APH2016_e1","APH2016_e1_1",6,"traitor",21,0,"Backward",1,2265,"Include"
"APH2016_e1","APH2016_e1_1",6,"channel",22,0,"Backward",1,922,"Include"
"APH2016_e1","APH2016_e1_1",6,"sudden",23,1,"Backward",1,937,"Include"
"APH2016_e1","APH2016_e1_1",6,"reckon",24,1,"Backward",6,703,"Include"
"APH2016_e1","APH2016_e1_1",6,"disturb",25,0,"Backward",2,2687,"Include"
"APH2016_e1","APH2016_e1_1",6,"pupil",26,0,"Backward",1,1063,"Include"
"APH2016_e1","APH2016_e1_1",6,"destroy",27,1,"Backward",6,766,"Include"
"APH2016_e1","APH2016_e1_1",6,"banner",28,1,"Backward",6,703,"Include"
"APH2016_e1","APH2016_e1_1",6,"notion",29,1,"Backward",6,921,"Include"
"APH2016_e1","APH2016_e1_1",6,"farmer",30,0,"Backward",1,1203,"Include"
"APH2016_e1","APH2016_e1_1",6,"needle",31,1,"Backward",6,594,"Include"
"APH2016_e1","APH2016_e1_1",6,"silver",32,0,"Backward",1,1062,"Include"
"APH2016_e1","APH2016_e1_1",6,"avoid",33,1,"Backward",2,2062,"Include"
"APH2016_e1","APH2016_e1_1",6,"dinner",34,0,"Backward",1,1297,"Include"
"APH2016_e1","APH2016_e1_1",6,"offence",35,1,"Backward",6,812,"Include"
"APH2016_e1","APH2016_e1_1",6,"timber",36,0,"Backward",2,1984,"Include"
"APH2016_e1","APH2016_e1_1",6,"publish",37,1,"Backward",6,1063,"Include"
"APH2016_e1","APH2016_e1_1",6,"temper",38,1,"Backward",6,703,"Include"
"APH2016_e1","APH2016_e1_1",6,"correct",39,0,"Backward",2,2344,"Include"
"APH2016_e1","APH2016_e1_1",6,"liquor",40,0,"Backward",1,1468,"Include"
"APH2016_e1","APH2016_e1_1",6,"olive",41,0,"Backward",1,735,"Include"
"APH2016_e1","APH2016_e1_1",6,"advance",42,1,"Backward",6,797,"Include"
"APH2016_e1","APH2016_e1_1",6,"forget",43,1,"Backward",6,703,"Include"
"APH2016_e1","APH2016_e1_1",6,"genius",44,0,"Backward",1,1203,"Include"
"APH2016_e1","APH2016_e1_1",6,"attach",45,1,"Backward",6,1656,"Include"
"APH2016_e1","APH2016_e1_1",6,"silence",46,0,"Backward",2,1437,"Include"
"APH2016_e1","APH2016_e1_1",6,"swallow",47,0,"Backward",2,1766,"Include"
"APH2016_e1","APH2016_e1_1",6,"hostile",48,1,"Backward",6,735,"Include"
"APH2016_e1","APH2016_e1_1",7,"handle",1,1,"Backward",6,969,"Include"
"APH2016_e1","APH2016_e1_1",7,"amuse",2,1,"Backward",6,797,"Include"
"APH2016_e1","APH2016_e1_1",7,"defend",3,0,"Backward",4,2031,"Include"
"APH2016_e1","APH2016_e1_1",7,"noble",4,0,"Backward",1,1797,"Include"
"APH2016_e1","APH2016_e1_1",7,"hero",5,1,"Backward",6,593,"Include"
"APH2016_e1","APH2016_e1_1",7,"trifle",6,0,"Backward",1,844,"Include"
"APH2016_e1","APH2016_e1_1",7,"travel",7,0,"Backward",1,1359,"Include"
"APH2016_e1","APH2016_e1_1",7,"ample",8,1,"Backward",6,844,"Include"
"APH2016_e1","APH2016_e1_1",7,"export",9,1,"Backward",3,2235,"Include"
"APH2016_e1","APH2016_e1_1",7,"pattern",10,1,"Backward",6,2329,"Include"
"APH2016_e1","APH2016_e1_1",7,"uncle",11,0,"Backward",1,875,"Include"
"APH2016_e1","APH2016_e1_1",7,"labor",12,0,"Backward",1,2234,"Include"
"APH2016_e1","APH2016_e1_1",7,"virtue",13,0,"Backward",2,2172,"Include"
"APH2016_e1","APH2016_e1_1",7,"author",14,1,"Backward",6,3156,"Include"
"APH2016_e1","APH2016_e1_1",7,"conquer",15,1,"Backward",6,2094,"Include"
"APH2016_e1","APH2016_e1_1",7,"valley",16,0,"Backward",2,1625,"Include"
"APH2016_e1","APH2016_e1_1",7,"recall",17,0,"Backward",1,1063,"Include"
"APH2016_e1","APH2016_e1_1",7,"colonel",18,0,"Backward",1,1063,"Include"
"APH2016_e1","APH2016_e1_1",7,"approve",19,1,"Backward",4,3281,"Include"
"APH2016_e1","APH2016_e1_1",7,"supply",20,1,"Backward",1,2640,"Include"
"APH2016_e1","APH2016_e1_1",7,"turkey",21,0,"Backward",1,2328,"Include"
"APH2016_e1","APH2016_e1_1",7,"basket",22,1,"Backward",6,687,"Include"
"APH2016_e1","APH2016_e1_1",7,"cluster",23,0,"Backward",1,1031,"Include"
"APH2016_e1","APH2016_e1_1",7,"awful",24,1,"Backward",6,1031,"Include"
"APH2016_e1","APH2016_e1_1",7,"crazy",25,0,"Backward",1,1031,"Include"
"APH2016_e1","APH2016_e1_1",7,"import",26,0,"Backward",1,1141,"Include"
"APH2016_e1","APH2016_e1_1",7,"retreat",27,1,"Backward",6,813,"Include"
"APH2016_e1","APH2016_e1_1",7,"largely",28,1,"Backward",6,656,"Include"
"APH2016_e1","APH2016_e1_1",7,"reserve",29,0,"Backward",4,1797,"Include"
"APH2016_e1","APH2016_e1_1",7,"venture",30,1,"Backward",6,891,"Include"
"APH2016_e1","APH2016_e1_1",7,"tribute",31,0,"Backward",2,1312,"Include"
"APH2016_e1","APH2016_e1_1",7,"prevent",32,1,"Backward",6,891,"Include"
"APH2016_e1","APH2016_e1_1",7,"duty",33,0,"Backward",3,1719,"Include"
"APH2016_e1","APH2016_e1_1",7,"cottage",34,1,"Backward",6,703,"Include"
"APH2016_e1","APH2016_e1_1",7,"pepper",35,1,"Backward",6,593,"Include"
"APH2016_e1","APH2016_e1_1",7,"pocket",36,0,"Backward",1,922,"Include"
"APH2016_e1","APH2016_e1_1",7,"purple",37,1,"Backward",6,625,"Include"
"APH2016_e1","APH2016_e1_1",7,"narrow",38,0,"Backward",1,1062,"Include"
"APH2016_e1","APH2016_e1_1",7,"useful",39,1,"Backward",6,812,"Include"
"APH2016_e1","APH2016_e1_1",7,"arrive",40,0,"Backward",4,1578,"Include"
"APH2016_e1","APH2016_e1_1",7,"captive",41,1,"Backward",3,1719,"Include"
"APH2016_e1","APH2016_e1_1",7,"blanket",42,0,"Backward",1,1219,"Include"
"APH2016_e1","APH2016_e1_1",7,"suggest",43,0,"Backward",2,1359,"Include"
"APH2016_e1","APH2016_e1_1",7,"finger",44,1,"Backward",6,734,"Include"
"APH2016_e1","APH2016_e1_1",7,"circuit",45,1,"Backward",6,703,"Include"
"APH2016_e1","APH2016_e1_1",7,"impose",46,0,"Backward",1,1875,"Include"
"APH2016_e1","APH2016_e1_1",7,"persuade",47,1,"Backward",6,797,"Include"
"APH2016_e1","APH2016_e1_1",7,"parcel",48,0,"Backward",2,922,"Include"
"APH2016_e1","APH2016_e1_1",8,"limit",1,0,"Backward",2,2110,"Include"
"APH2016_e1","APH2016_e1_1",8,"dispute",2,1,"Backward",6,953,"Include"
"APH2016_e1","APH2016_e1_1",8,"congress",3,1,"Backward",6,594,"Include"
"APH2016_e1","APH2016_e1_1",8,"angry",4,0,"Backward",1,1172,"Include"
"APH2016_e1","APH2016_e1_1",8,"invent",5,1,"Backward",4,2219,"Include"
"APH2016_e1","APH2016_e1_1",8,"penny",6,1,"Backward",6,1719,"Include"
"APH2016_e1","APH2016_e1_1",8,"bullet",7,0,"Backward",1,1500,"Include"
"APH2016_e1","APH2016_e1_1",8,"butcher",8,0,"Backward",1,781,"Include"
"APH2016_e1","APH2016_e1_1",8,"assault",9,0,"Backward",1,625,"Include"
"APH2016_e1","APH2016_e1_1",8,"active",10,1,"Backward",6,703,"Include"
"APH2016_e1","APH2016_e1_1",8,"palace",11,0,"Backward",1,875,"Include"
"APH2016_e1","APH2016_e1_1",8,"machine",12,1,"Backward",6,735,"Include"
"APH2016_e1","APH2016_e1_1",8,"survive",13,1,"Backward",6,734,"Include"
"APH2016_e1","APH2016_e1_1",8,"sincere",14,0,"Backward",1,1359,"Include"
"APH2016_e1","APH2016_e1_1",8,"effort",15,1,"Backward",2,2172,"Include"
"APH2016_e1","APH2016_e1_1",8,"debate",16,0,"Backward",2,1407,"Include"
"APH2016_e1","APH2016_e1_1",8,"lazy",17,0,"Backward",2,844,"Include"
"APH2016_e1","APH2016_e1_1",8,"severe",18,0,"Backward",1,1719,"Include"
"APH2016_e1","APH2016_e1_1",8,"item",19,1,"Backward",1,782,"Include"
"APH2016_e1","APH2016_e1_1",8,"lemon",20,1,"Backward",6,625,"Include"
"APH2016_e1","APH2016_e1_1",8,"comment",21,1,"Backward",6,578,"Include"
"APH2016_e1","APH2016_e1_1",8,"upward",22,0,"Backward",1,1188,"Include"
"APH2016_e1","APH2016_e1_1",8,"yellow",23,0,"Backward",1,844,"Include"
"APH2016_e1","APH2016_e1_1",8,"pasture",24,1,"Backward",6,703,"Include"
"APH2016_e1","APH2016_e1_1",8,"remind",25,1,"Backward",6,578,"Include"
"APH2016_e1","APH2016_e1_1",8,"nephew",26,0,"Backward",1,812,"Include"
"APH2016_e1","APH2016_e1_1",8,"jolly",27,1,"Backward",6,625,"Include"
"APH2016_e1","APH2016_e1_1",8,"button",28,0,"Backward",2,1437,"Include"
"APH2016_e1","APH2016_e1_1",8,"mountain",29,1,"Backward",6,656,"Include"
"APH2016_e1","APH2016_e1_1",8,"perfume",30,1,"Backward",6,703,"Include"
"APH2016_e1","APH2016_e1_1",8,"borrow",31,0,"Backward",4,1765,"Include"
"APH2016_e1","APH2016_e1_1",8,"include",32,0,"Backward",3,2156,"Include"
"APH2016_e1","APH2016_e1_1",8,"clever",33,0,"Backward",1,1141,"Include"
"APH2016_e1","APH2016_e1_1",8,"planet",34,1,"Backward",6,719,"Include"
"APH2016_e1","APH2016_e1_1",8,"civil",35,0,"Backward",1,1250,"Include"
"APH2016_e1","APH2016_e1_1",8,"empty",36,1,"Backward",6,1391,"Include"
"APH2016_e1","APH2016_e1_1",8,"culture",37,0,"Backward",4,2609,"Include"
"APH2016_e1","APH2016_e1_1",8,"diamond",38,1,"Backward",6,625,"Include"
"APH2016_e1","APH2016_e1_1",8,"section",39,1,"Backward",4,1687,"Include"
"APH2016_e1","APH2016_e1_1",8,"garment",40,0,"Backward",1,1172,"Include"
"APH2016_e1","APH2016_e1_1",8,"acre",41,0,"Backward",1,1360,"Include"
"APH2016_e1","APH2016_e1_1",8,"inspire",42,0,"Backward",2,1406,"Include"
"APH2016_e1","APH2016_e1_1",8,"refer",43,1,"Backward",6,1093,"Include"
"APH2016_e1","APH2016_e1_1",8,"inform",44,1,"Backward",5,1688,"Include"
"APH2016_e1","APH2016_e1_1",8,"manage",45,1,"Backward",4,3360,"Include"
"APH2016_e1","APH2016_e1_1",8,"deny",46,0,"Backward",1,1500,"Include"
"APH2016_e1","APH2016_e1_1",8,"aside",47,0,"Backward",4,2391,"Include"
"APH2016_e1","APH2016_e1_1",8,"mirror",48,1,"Backward",6,656,"Include"
"APH2016_e1","APH2016_e1_1",9,"journal",1,0,"Backward",1,843,"Include"
"APH2016_e1","APH2016_e1_1",9,"orange",2,0,"Backward",1,594,"Include"
"APH2016_e1","APH2016_e1_1",9,"sustain",3,1,"Backward",6,1000,"Include"
"APH2016_e1","APH2016_e1_1",9,"shelter",4,1,"Backward",6,735,"Include"
"APH2016_e1","APH2016_e1_1",9,"dealer",5,0,"Backward",2,1312,"Include"
"APH2016_e1","APH2016_e1_1",9,"partly",6,1,"Backward",6,672,"Include"
"APH2016_e1","APH2016_e1_1",9,"college",7,0,"Backward",1,1219,"Include"
"APH2016_e1","APH2016_e1_1",9,"hidden",8,1,"Backward",3,2672,"Include"
"APH2016_e1","APH2016_e1_1",9,"upset",9,1,"Backward",6,921,"Include"
"APH2016_e1","APH2016_e1_1",9,"engage",10,0,"Backward",1,1250,"Include"
"APH2016_e1","APH2016_e1_1",9,"monarch",11,1,"Backward",6,672,"Include"
"APH2016_e1","APH2016_e1_1",9,"rural",12,0,"Backward",2,2312,"Include"
"APH2016_e1","APH2016_e1_1",9,"resource",13,0,"Backward",4,1500,"Include"
"APH2016_e1","APH2016_e1_1",9,"apply",14,1,"Backward",5,2500,"Include"
"APH2016_e1","APH2016_e1_1",9,"meaning",15,0,"Backward",1,1328,"Include"
"APH2016_e1","APH2016_e1_1",9,"herald",16,1,"Backward",6,656,"Include"
"APH2016_e1","APH2016_e1_1",9,"acid",17,1,"Backward",6,594,"Include"
"APH2016_e1","APH2016_e1_1",9,"master",18,0,"Backward",2,1797,"Include"
"APH2016_e1","APH2016_e1_1",9,"rubber",19,0,"Backward",2,703,"Include"
"APH2016_e1","APH2016_e1_1",9,"climate",20,1,"Backward",6,735,"Include"
"APH2016_e1","APH2016_e1_1",9,"barrel",21,1,"Backward",6,1610,"Include"
"APH2016_e1","APH2016_e1_1",9,"accord",22,0,"Backward",2,1954,"Include"
"APH2016_e1","APH2016_e1_1",9,"envy",23,0,"Backward",6,2500,"Include"
"APH2016_e1","APH2016_e1_1",9,"unit",24,1,"Backward",NA,NA,"Exclude"
"APH2016_e1","APH2016_e1_1",9,"admit",25,1,"Backward",6,812,"Include"
"APH2016_e1","APH2016_e1_1",9,"advise",26,1,"Backward",6,1766,"Include"
"APH2016_e1","APH2016_e1_1",9,"pilot",27,0,"Backward",2,1171,"Include"
"APH2016_e1","APH2016_e1_1",9,"contest",28,0,"Backward",2,2313,"Include"
"APH2016_e1","APH2016_e1_1",9,"chimney",29,1,"Backward",6,782,"Include"
"APH2016_e1","APH2016_e1_1",9,"pleasure",30,1,"Backward",6,594,"Include"
"APH2016_e1","APH2016_e1_1",9,"saddle",31,0,"Backward",2,1719,"Include"
"APH2016_e1","APH2016_e1_1",9,"minute",32,0,"Backward",2,891,"Include"
"APH2016_e1","APH2016_e1_1",9,"convey",33,1,"Backward",6,844,"Include"
"APH2016_e1","APH2016_e1_1",9,"mental",34,0,"Backward",2,1032,"Include"
"APH2016_e1","APH2016_e1_1",9,"angle",35,1,"Backward",6,735,"Include"
"APH2016_e1","APH2016_e1_1",9,"secure",36,0,"Backward",5,1688,"Include"
"APH2016_e1","APH2016_e1_1",9,"leather",37,0,"Backward",2,1250,"Include"
"APH2016_e1","APH2016_e1_1",9,"luncheon",38,0,"Backward",1,1000,"Include"
"APH2016_e1","APH2016_e1_1",9,"release",39,1,"Backward",6,735,"Include"
"APH2016_e1","APH2016_e1_1",9,"monkey",40,1,"Backward",6,625,"Include"
"APH2016_e1","APH2016_e1_1",9,"distinct",41,0,"Backward",6,766,"Include"
"APH2016_e1","APH2016_e1_1",9,"puzzle",42,1,"Backward",6,1032,"Include"
"APH2016_e1","APH2016_e1_1",9,"surely",43,1,"Backward",6,1172,"Include"
"APH2016_e1","APH2016_e1_1",9,"contrast",44,0,"Backward",4,2656,"Include"
"APH2016_e1","APH2016_e1_1",9,"lying",45,0,"Backward",1,2563,"Include"
"APH2016_e1","APH2016_e1_1",9,"collar",46,1,"Backward",6,2907,"Include"
"APH2016_e1","APH2016_e1_1",9,"motor",47,1,"Backward",2,3094,"Include"
"APH2016_e1","APH2016_e1_1",9,"carbon",48,0,"Backward",2,1469,"Include"
"APH2016_e1","APH2016_e1_1",10,"remote",1,0,"Backward",1,1547,"Include"
"APH2016_e1","APH2016_e1_1",10,"battle",2,0,"Backward",4,1875,"Include"
"APH2016_e1","APH2016_e1_1",10,"rival",3,1,"Backward",6,625,"Include"
"APH2016_e1","APH2016_e1_1",10,"settle",4,1,"Backward",6,734,"Include"
"APH2016_e1","APH2016_e1_1",10,"mention",5,0,"Backward",2,1000,"Include"
"APH2016_e1","APH2016_e1_1",10,"circle",6,1,"Backward",6,765,"Include"
"APH2016_e1","APH2016_e1_1",10,"carpet",7,0,"Backward",1,1578,"Include"
"APH2016_e1","APH2016_e1_1",10,"direct",8,1,"Backward",6,672,"Include"
"APH2016_e1","APH2016_e1_1",10,"invite",9,0,"Backward",4,1203,"Include"
"APH2016_e1","APH2016_e1_1",10,"robin",10,1,"Backward",6,735,"Include"
"APH2016_e1","APH2016_e1_1",10,"conclude",11,1,"Backward",6,703,"Include"
"APH2016_e1","APH2016_e1_1",10,"vessel",12,0,"Backward",1,1219,"Include"
"APH2016_e1","APH2016_e1_1",10,"menace",13,1,"Backward",2,2156,"Include"
"APH2016_e1","APH2016_e1_1",10,"appeal",14,1,"Backward",5,1437,"Include"
"APH2016_e1","APH2016_e1_1",10,"creature",15,0,"Backward",2,1578,"Include"
"APH2016_e1","APH2016_e1_1",10,"steamer",16,0,"Backward",2,1000,"Include"
"APH2016_e1","APH2016_e1_1",10,"captain",17,1,"Backward",6,734,"Include"
"APH2016_e1","APH2016_e1_1",10,"assure",18,0,"Backward",4,2312,"Include"
"APH2016_e1","APH2016_e1_1",10,"novel",19,1,"Backward",6,766,"Include"
"APH2016_e1","APH2016_e1_1",10,"explain",20,0,"Backward",4,2031,"Include"
"APH2016_e1","APH2016_e1_1",10,"comfort",21,0,"Backward",4,1500,"Include"
"APH2016_e1","APH2016_e1_1",10,"cousin",22,0,"Backward",1,1266,"Include"
"APH2016_e1","APH2016_e1_1",10,"outline",23,1,"Backward",6,812,"Include"
"APH2016_e1","APH2016_e1_1",10,"judgment",24,1,"Backward",6,703,"Include"
"APH2016_e1","APH2016_e1_1",10,"courage",25,1,"Backward",2,1250,"Include"
"APH2016_e1","APH2016_e1_1",10,"assist",26,1,"Backward",5,1328,"Include"
"APH2016_e1","APH2016_e1_1",10,"consume",27,0,"Backward",2,1516,"Include"
"APH2016_e1","APH2016_e1_1",10,"onion",28,0,"Backward",1,1015,"Include"
"APH2016_e1","APH2016_e1_1",10,"asleep",29,1,"Backward",6,781,"Include"
"APH2016_e1","APH2016_e1_1",10,"request",30,0,"Backward",5,1281,"Include"
"APH2016_e1","APH2016_e1_1",10,"traffic",31,0,"Backward",1,1031,"Include"
"APH2016_e1","APH2016_e1_1",10,"motive",32,1,"Backward",4,1688,"Include"
"APH2016_e1","APH2016_e1_1",10,"supreme",33,0,"Backward",4,1188,"Include"
"APH2016_e1","APH2016_e1_1",10,"locate",34,1,"Backward",4,1984,"Include"
"APH2016_e1","APH2016_e1_1",10,"perfect",35,1,"Backward",1,1469,"Include"
"APH2016_e1","APH2016_e1_1",10,"leader",36,0,"Backward",2,1719,"Include"
"APH2016_e1","APH2016_e1_1",10,"tiny",37,0,"Backward",1,1031,"Include"
"APH2016_e1","APH2016_e1_1",10,"velvet",38,1,"Backward",6,703,"Include"
"APH2016_e1","APH2016_e1_1",10,"forehead",39,0,"Backward",1,953,"Include"
"APH2016_e1","APH2016_e1_1",10,"beneath",40,1,"Backward",6,953,"Include"
"APH2016_e1","APH2016_e1_1",10,"lily",41,1,"Backward",6,594,"Include"
"APH2016_e1","APH2016_e1_1",10,"permit",42,0,"Backward",2,1219,"Include"
"APH2016_e1","APH2016_e1_1",10,"deceive",43,0,"Backward",4,1422,"Include"
"APH2016_e1","APH2016_e1_1",10,"dollar",44,1,"Backward",6,969,"Include"
"APH2016_e1","APH2016_e1_1",10,"soldier",45,1,"Backward",6,765,"Include"
"APH2016_e1","APH2016_e1_1",10,"nation",46,0,"Backward",2,1703,"Include"
"APH2016_e1","APH2016_e1_1",10,"status",47,1,"Backward",6,765,"Include"
"APH2016_e1","APH2016_e1_1",10,"utmost",48,0,"Backward",1,1188,"Include"
"APH2016_e1","APH2016_e1_1",11,"cattle",1,0,"Backward",1,1890,"Include"
"APH2016_e1","APH2016_e1_1",11,"distress",2,1,"Backward",6,672,"Include"
"APH2016_e1","APH2016_e1_1",11,"vanish",3,1,"Backward",6,765,"Include"
"APH2016_e1","APH2016_e1_1",11,"sister",4,0,"Backward",1,781,"Include"
"APH2016_e1","APH2016_e1_1",11,"welfare",5,1,"Backward",6,625,"Include"
"APH2016_e1","APH2016_e1_1",11,"revenge",6,0,"Backward",6,1469,"Include"
"APH2016_e1","APH2016_e1_1",11,"depart",7,0,"Backward",2,3047,"Include"
"APH2016_e1","APH2016_e1_1",11,"oven",8,1,"Backward",2,1109,"Include"
"APH2016_e1","APH2016_e1_1",11,"cotton",9,1,"Backward",6,656,"Include"
"APH2016_e1","APH2016_e1_1",11,"bedroom",10,1,"Backward",6,781,"Include"
"APH2016_e1","APH2016_e1_1",11,"stomach",11,0,"Backward",2,1016,"Include"
"APH2016_e1","APH2016_e1_1",11,"forgive",12,0,"Backward",2,1000,"Include"
"APH2016_e1","APH2016_e1_1",11,"resort",13,1,"Backward",6,625,"Include"
"APH2016_e1","APH2016_e1_1",11,"protect",14,1,"Backward",4,1766,"Include"
"APH2016_e1","APH2016_e1_1",11,"create",15,0,"Backward",3,1282,"Include"
"APH2016_e1","APH2016_e1_1",11,"sober",16,0,"Backward",1,1000,"Include"
"APH2016_e1","APH2016_e1_1",11,"surface",17,0,"Backward",4,1469,"Include"
"APH2016_e1","APH2016_e1_1",11,"jacket",18,0,"Backward",1,984,"Include"
"APH2016_e1","APH2016_e1_1",11,"rapid",19,1,"Backward",2,1109,"Include"
"APH2016_e1","APH2016_e1_1",11,"salute",20,1,"Backward",6,812,"Include"
"APH2016_e1","APH2016_e1_1",11,"amid",21,1,"Backward",2,875,"Include"
"APH2016_e1","APH2016_e1_1",11,"prairie",22,0,"Backward",2,1109,"Include"
"APH2016_e1","APH2016_e1_1",11,"distance",23,1,"Backward",6,1109,"Include"
"APH2016_e1","APH2016_e1_1",11,"salad",24,0,"Backward",2,922,"Include"
"APH2016_e1","APH2016_e1_1",11,"platform",25,0,"Backward",4,1265,"Include"
"APH2016_e1","APH2016_e1_1",11,"perceive",26,1,"Backward",4,1328,"Include"
"APH2016_e1","APH2016_e1_1",11,"exist",27,0,"Backward",5,1312,"Include"
"APH2016_e1","APH2016_e1_1",11,"upper",28,1,"Backward",6,891,"Include"
"APH2016_e1","APH2016_e1_1",11,"program",29,0,"Backward",4,1062,"Include"
"APH2016_e1","APH2016_e1_1",11,"motion",30,1,"Backward",4,2015,"Include"
"APH2016_e1","APH2016_e1_1",11,"bargain",31,0,"Backward",1,1219,"Include"
"APH2016_e1","APH2016_e1_1",11,"feather",32,1,"Backward",6,1000,"Include"
"APH2016_e1","APH2016_e1_1",11,"allow",33,1,"Backward",2,2094,"Include"
"APH2016_e1","APH2016_e1_1",11,"goddess",34,0,"Backward",1,1250,"Include"
"APH2016_e1","APH2016_e1_1",11,"sacred",35,1,"Backward",4,2015,"Include"
"APH2016_e1","APH2016_e1_1",11,"achieve",36,0,"Backward",4,1078,"Include"
"APH2016_e1","APH2016_e1_1",11,"shepherd",37,1,"Backward",6,1094,"Include"
"APH2016_e1","APH2016_e1_1",11,"conflict",38,0,"Backward",4,1579,"Include"
"APH2016_e1","APH2016_e1_1",11,"empire",39,0,"Backward",4,1250,"Include"
"APH2016_e1","APH2016_e1_1",11,"display",40,1,"Backward",4,1000,"Include"
"APH2016_e1","APH2016_e1_1",11,"slender",41,0,"Backward",1,1094,"Include"
"APH2016_e1","APH2016_e1_1",11,"infant",42,0,"Backward",1,1516,"Include"
"APH2016_e1","APH2016_e1_1",11,"patience",43,1,"Backward",1,1328,"Include"
"APH2016_e1","APH2016_e1_1",11,"reveal",44,1,"Backward",1,687,"Include"
"APH2016_e1","APH2016_e1_1",11,"marriage",45,0,"Backward",4,1625,"Include"
"APH2016_e1","APH2016_e1_1",11,"fountain",46,1,"Backward",6,1218,"Include"
"APH2016_e1","APH2016_e1_1",11,"approach",47,1,"Backward",2,1500,"Include"
"APH2016_e1","APH2016_e1_1",11,"unto",48,0,"Backward",1,953,"Include"
"APH2016_e1","APH2016_e1_1",12,"autumn",1,1,"Backward",6,891,"Include"
"APH2016_e1","APH2016_e1_1",12,"quarter",2,0,"Backward",1,1281,"Include"
"APH2016_e1","APH2016_e1_1",12,"lion",3,1,"Backward",6,640,"Include"
"APH2016_e1","APH2016_e1_1",12,"talent",4,0,"Backward",2,1422,"Include"
"APH2016_e1","APH2016_e1_1",12,"honey",5,0,"Backward",2,1250,"Include"
"APH2016_e1","APH2016_e1_1",12,"listen",6,1,"Backward",6,1031,"Include"
"APH2016_e1","APH2016_e1_1",12,"science",7,0,"Backward",1,1000,"Include"
"APH2016_e1","APH2016_e1_1",12,"candle",8,1,"Backward",6,735,"Include"
"APH2016_e1","APH2016_e1_1",12,"decay",9,0,"Backward",4,1610,"Include"
"APH2016_e1","APH2016_e1_1",12,"suffer",10,1,"Backward",6,1140,"Include"
"APH2016_e1","APH2016_e1_1",12,"confess",11,1,"Backward",6,781,"Include"
"APH2016_e1","APH2016_e1_1",12,"enforce",12,0,"Backward",1,2312,"Include"
"APH2016_e1","APH2016_e1_1",12,"muscle",13,1,"Backward",6,1688,"Include"
"APH2016_e1","APH2016_e1_1",12,"crystal",14,0,"Backward",1,1188,"Include"
"APH2016_e1","APH2016_e1_1",12,"oppose",15,1,"Backward",3,1937,"Include"
"APH2016_e1","APH2016_e1_1",12,"ideal",16,0,"Backward",4,2766,"Include"
"APH2016_e1","APH2016_e1_1",12,"instant",17,0,"Backward",3,2453,"Include"
"APH2016_e1","APH2016_e1_1",12,"ribbon",18,0,"Backward",1,1516,"Include"
"APH2016_e1","APH2016_e1_1",12,"failure",19,1,"Backward",5,1796,"Include"
"APH2016_e1","APH2016_e1_1",12,"arrow",20,1,"Backward",6,1281,"Include"
"APH2016_e1","APH2016_e1_1",12,"pursuit",21,0,"Backward",4,1844,"Include"
"APH2016_e1","APH2016_e1_1",12,"engine",22,1,"Backward",4,1140,"Include"
"APH2016_e1","APH2016_e1_1",12,"proceed",23,1,"Backward",3,1656,"Include"
"APH2016_e1","APH2016_e1_1",12,"accept",24,0,"Backward",4,2266,"Include"
"APH2016_e1","APH2016_e1_1",12,"delay",25,1,"Backward",3,2766,"Include"
"APH2016_e1","APH2016_e1_1",12,"affair",26,1,"Backward",6,1328,"Include"
"APH2016_e1","APH2016_e1_1",12,"marble",27,0,"Backward",3,2203,"Include"
"APH2016_e1","APH2016_e1_1",12,"alive",28,0,"Backward",3,1281,"Include"
"APH2016_e1","APH2016_e1_1",12,"cabin",29,1,"Backward",6,890,"Include"
"APH2016_e1","APH2016_e1_1",12,"remark",30,0,"Backward",1,1312,"Include"
"APH2016_e1","APH2016_e1_1",12,"murder",31,0,"Backward",3,2469,"Include"
"APH2016_e1","APH2016_e1_1",12,"punish",32,1,"Backward",6,875,"Include"
"APH2016_e1","APH2016_e1_1",12,"resign",33,1,"Backward",6,954,"Include"
"APH2016_e1","APH2016_e1_1",12,"sunset",34,0,"Backward",1,1407,"Include"
"APH2016_e1","APH2016_e1_1",12,"sailor",35,0,"Backward",4,2313,"Include"
"APH2016_e1","APH2016_e1_1",12,"balance",36,1,"Backward",2,1765,"Include"
"APH2016_e1","APH2016_e1_1",12,"wagon",37,0,"Backward",1,875,"Include"
"APH2016_e1","APH2016_e1_1",12,"belief",38,1,"Backward",6,812,"Include"
"APH2016_e1","APH2016_e1_1",12,"sorrow",39,0,"Backward",1,1875,"Include"
"APH2016_e1","APH2016_e1_1",12,"refuse",40,1,"Backward",4,1547,"Include"
"APH2016_e1","APH2016_e1_1",12,"ticket",41,1,"Backward",6,813,"Include"
"APH2016_e1","APH2016_e1_1",12,"insult",42,1,"Backward",6,765,"Include"
"APH2016_e1","APH2016_e1_1",12,"costume",43,0,"Backward",1,1328,"Include"
"APH2016_e1","APH2016_e1_1",12,"frozen",44,0,"Backward",1,1609,"Include"
"APH2016_e1","APH2016_e1_1",12,"busy",45,0,"Backward",1,984,"Include"
"APH2016_e1","APH2016_e1_1",12,"member",46,0,"Backward",1,766,"Include"
"APH2016_e1","APH2016_e1_1",12,"journey",47,1,"Backward",6,813,"Include"
"APH2016_e1","APH2016_e1_1",12,"gracious",48,1,"Backward",6,703,"Include"
"APH2016_e1","APH2016_e1_2",0,"kindness",1,1,"Backward",NA,NA,"Exclude"
"APH2016_e1","APH2016_e1_2",0,"wedding",2,0,"Backward",6,1281,"Exclude"
"APH2016_e1","APH2016_e1_2",0,"softly",3,1,"Backward",1,2625,"Exclude"
"APH2016_e1","APH2016_e1_2",0,"replace",4,0,"Backward",NA,NA,"Exclude"
"APH2016_e1","APH2016_e1_2",0,"lucky",5,0,"Backward",3,2969,"Exclude"
"APH2016_e1","APH2016_e1_2",0,"complain",6,1,"Backward",6,2407,"Exclude"
"APH2016_e1","APH2016_e1_2",0,"fairly",7,1,"Backward",6,1782,"Exclude"
"APH2016_e1","APH2016_e1_2",0,"rocky",8,0,"Backward",1,3188,"Exclude"
"APH2016_e1","APH2016_e1_2",0,"flourish",9,0,"Backward",1,2140,"Exclude"
"APH2016_e1","APH2016_e1_2",0,"cheerful",10,0,"Backward",1,1125,"Exclude"
"APH2016_e1","APH2016_e1_2",0,"youthful",11,1,"Backward",6,1297,"Exclude"
"APH2016_e1","APH2016_e1_2",0,"writer",12,1,"Backward",6,1016,"Exclude"
"APH2016_e1","APH2016_e1_2",0,"shortly",13,0,"Backward",2,2625,"Exclude"
"APH2016_e1","APH2016_e1_2",0,"array",14,1,"Backward",6,1360,"Exclude"
"APH2016_e1","APH2016_e1_2",0,"commerce",15,0,"Backward",1,1328,"Exclude"
"APH2016_e1","APH2016_e1_2",0,"scarcely",16,1,"Backward",6,1204,"Exclude"
"APH2016_e1","APH2016_e1_2",0,"singer",17,0,"Backward",1,2219,"Exclude"
"APH2016_e1","APH2016_e1_2",0,"exchange",18,0,"Backward",1,1219,"Exclude"
"APH2016_e1","APH2016_e1_2",0,"truly",19,1,"Backward",6,985,"Exclude"
"APH2016_e1","APH2016_e1_2",0,"splendid",20,1,"Backward",6,875,"Exclude"
"APH2016_e1","APH2016_e1_2",0,"sickness",21,1,"Backward",6,719,"Exclude"
"APH2016_e1","APH2016_e1_2",0,"purchase",22,0,"Backward",1,1031,"Exclude"
"APH2016_e1","APH2016_e1_2",0,"kingdom",23,0,"Backward",1,1765,"Exclude"
"APH2016_e1","APH2016_e1_2",0,"deadly",24,1,"Backward",6,719,"Exclude"
"APH2016_e1","APH2016_e1_2",0,"wicked",25,0,"Backward",1,1218,"Exclude"
"APH2016_e1","APH2016_e1_2",0,"fiercely",26,1,"Backward",6,719,"Exclude"
"APH2016_e1","APH2016_e1_2",0,"costly",27,0,"Backward",5,2093,"Exclude"
"APH2016_e1","APH2016_e1_2",0,"grateful",28,1,"Backward",6,1063,"Exclude"
"APH2016_e1","APH2016_e1_2",0,"unknown",29,1,"Backward",2,2360,"Exclude"
"APH2016_e1","APH2016_e1_2",0,"condemn",30,1,"Backward",6,954,"Exclude"
"APH2016_e1","APH2016_e1_2",0,"stocking",31,0,"Backward",1,1250,"Exclude"
"APH2016_e1","APH2016_e1_2",0,"worker",32,0,"Backward",1,1016,"Exclude"
"APH2016_e1","APH2016_e1_2",0,"latter",33,1,"Backward",6,1000,"Exclude"
"APH2016_e1","APH2016_e1_2",0,"barely",34,0,"Backward",1,1016,"Exclude"
"APH2016_e1","APH2016_e1_2",0,"mostly",35,0,"Backward",5,1875,"Exclude"
"APH2016_e1","APH2016_e1_2",0,"ashamed",36,1,"Backward",6,860,"Exclude"
"APH2016_e1","APH2016_e1_2",0,"intend",37,0,"Backward",1,1172,"Exclude"
"APH2016_e1","APH2016_e1_2",0,"highly",38,1,"Backward",6,641,"Exclude"
"APH2016_e1","APH2016_e1_2",0,"column",39,1,"Backward",6,579,"Exclude"
"APH2016_e1","APH2016_e1_2",0,"dirty",40,0,"Backward",1,1219,"Exclude"
"APH2016_e1","APH2016_e1_2",0,"worship",41,1,"Backward",6,609,"Exclude"
"APH2016_e1","APH2016_e1_2",0,"frighten",42,0,"Backward",1,1359,"Exclude"
"APH2016_e1","APH2016_e1_2",0,"handsome",43,1,"Backward",6,719,"Exclude"
"APH2016_e1","APH2016_e1_2",0,"neglect",44,0,"Backward",1,1093,"Exclude"
"APH2016_e1","APH2016_e1_2",0,"restless",45,1,"Backward",6,813,"Exclude"
"APH2016_e1","APH2016_e1_2",0,"twilight",46,1,"Backward",6,500,"Exclude"
"APH2016_e1","APH2016_e1_2",0,"briefly",47,0,"Backward",NA,NA,"Exclude"
"APH2016_e1","APH2016_e1_2",0,"collect",48,0,"Backward",6,1094,"Exclude"
"APH2016_e1","APH2016_e1_2",1,"native",1,1,"Backward",6,1203,"Include"
"APH2016_e1","APH2016_e1_2",1,"combine",2,0,"Backward",1,907,"Include"
"APH2016_e1","APH2016_e1_2",1,"echo",3,0,"Backward",1,844,"Include"
"APH2016_e1","APH2016_e1_2",1,"marriage",4,1,"Backward",6,578,"Include"
"APH2016_e1","APH2016_e1_2",1,"enter",5,0,"Backward",1,953,"Include"
"APH2016_e1","APH2016_e1_2",1,"impulse",6,1,"Backward",6,718,"Include"
"APH2016_e1","APH2016_e1_2",1,"survey",7,0,"Backward",5,1672,"Include"
"APH2016_e1","APH2016_e1_2",1,"lily",8,1,"Backward",6,890,"Include"
"APH2016_e1","APH2016_e1_2",1,"conclude",9,0,"Backward",2,1703,"Include"
"APH2016_e1","APH2016_e1_2",1,"reform",10,1,"Backward",6,1016,"Include"
"APH2016_e1","APH2016_e1_2",1,"sober",11,1,"Backward",6,625,"Include"
"APH2016_e1","APH2016_e1_2",1,"tiny",12,0,"Backward",1,1203,"Include"
"APH2016_e1","APH2016_e1_2",1,"patience",13,1,"Backward",6,609,"Include"
"APH2016_e1","APH2016_e1_2",1,"sugar",14,0,"Backward",1,1625,"Include"
"APH2016_e1","APH2016_e1_2",1,"circle",15,1,"Backward",6,687,"Include"
"APH2016_e1","APH2016_e1_2",1,"moral",16,0,"Backward",1,1422,"Include"
"APH2016_e1","APH2016_e1_2",1,"loyal",17,0,"Backward",5,1844,"Include"
"APH2016_e1","APH2016_e1_2",1,"motive",18,0,"Backward",2,2063,"Include"
"APH2016_e1","APH2016_e1_2",1,"stupid",19,1,"Backward",6,2890,"Include"
"APH2016_e1","APH2016_e1_2",1,"punish",20,1,"Backward",6,656,"Include"
"APH2016_e1","APH2016_e1_2",1,"estate",21,0,"Backward",4,1875,"Include"
"APH2016_e1","APH2016_e1_2",1,"dismay",22,0,"Backward",1,2156,"Include"
"APH2016_e1","APH2016_e1_2",1,"crystal",23,1,"Backward",6,718,"Include"
"APH2016_e1","APH2016_e1_2",1,"record",24,1,"Backward",6,610,"Include"
"APH2016_e1","APH2016_e1_2",1,"amuse",25,0,"Backward",3,2297,"Include"
"APH2016_e1","APH2016_e1_2",1,"mistake",26,1,"Backward",6,1500,"Include"
"APH2016_e1","APH2016_e1_2",1,"legal",27,0,"Backward",5,2156,"Include"
"APH2016_e1","APH2016_e1_2",1,"tunnel",28,1,"Backward",6,1390,"Include"
"APH2016_e1","APH2016_e1_2",1,"eagle",29,1,"Backward",6,656,"Include"
"APH2016_e1","APH2016_e1_2",1,"image",30,1,"Backward",6,797,"Include"
"APH2016_e1","APH2016_e1_2",1,"career",31,0,"Backward",1,1687,"Include"
"APH2016_e1","APH2016_e1_2",1,"arrest",32,0,"Backward",1,1703,"Include"
"APH2016_e1","APH2016_e1_2",1,"virtue",33,1,"Backward",6,640,"Include"
"APH2016_e1","APH2016_e1_2",1,"fever",34,1,"Backward",6,500,"Include"
"APH2016_e1","APH2016_e1_2",1,"robin",35,0,"Backward",1,1328,"Include"
"APH2016_e1","APH2016_e1_2",1,"motion",36,0,"Backward",2,2000,"Include"
"APH2016_e1","APH2016_e1_2",1,"locate",37,0,"Backward",5,2062,"Include"
"APH2016_e1","APH2016_e1_2",1,"invite",38,1,"Backward",6,687,"Include"
"APH2016_e1","APH2016_e1_2",1,"error",39,1,"Backward",6,656,"Include"
"APH2016_e1","APH2016_e1_2",1,"monkey",40,0,"Backward",1,1313,"Include"
"APH2016_e1","APH2016_e1_2",1,"manage",41,1,"Backward",6,578,"Include"
"APH2016_e1","APH2016_e1_2",1,"regret",42,0,"Backward",1,2672,"Include"
"APH2016_e1","APH2016_e1_2",1,"former",43,1,"Backward",5,937,"Include"
"APH2016_e1","APH2016_e1_2",1,"honest",44,0,"Backward",2,1406,"Include"
"APH2016_e1","APH2016_e1_2",1,"county",45,1,"Backward",6,797,"Include"
"APH2016_e1","APH2016_e1_2",1,"distance",46,0,"Backward",2,1203,"Include"
"APH2016_e1","APH2016_e1_2",1,"palace",47,0,"Backward",1,2156,"Include"
"APH2016_e1","APH2016_e1_2",1,"deceive",48,1,"Backward",5,1656,"Include"
"APH2016_e1","APH2016_e1_2",2,"conquest",1,1,"Backward",6,1141,"Include"
"APH2016_e1","APH2016_e1_2",2,"frozen",2,0,"Backward",1,1219,"Include"
"APH2016_e1","APH2016_e1_2",2,"saddle",3,0,"Backward",1,687,"Include"
"APH2016_e1","APH2016_e1_2",2,"import",4,1,"Backward",6,609,"Include"
"APH2016_e1","APH2016_e1_2",2,"diet",5,0,"Backward",1,719,"Include"
"APH2016_e1","APH2016_e1_2",2,"persuade",6,1,"Backward",6,843,"Include"
"APH2016_e1","APH2016_e1_2",2,"garment",7,0,"Backward",1,719,"Include"
"APH2016_e1","APH2016_e1_2",2,"method",8,1,"Backward",6,609,"Include"
"APH2016_e1","APH2016_e1_2",2,"concern",9,0,"Backward",4,1890,"Include"
"APH2016_e1","APH2016_e1_2",2,"advance",10,1,"Backward",4,1328,"Include"
"APH2016_e1","APH2016_e1_2",2,"rival",11,1,"Backward",6,891,"Include"
"APH2016_e1","APH2016_e1_2",2,"possess",12,0,"Backward",3,1469,"Include"
"APH2016_e1","APH2016_e1_2",2,"double",13,1,"Backward",6,797,"Include"
"APH2016_e1","APH2016_e1_2",2,"comment",14,1,"Backward",6,1015,"Include"
"APH2016_e1","APH2016_e1_2",2,"submit",15,0,"Backward",6,3016,"Include"
"APH2016_e1","APH2016_e1_2",2,"pilot",16,0,"Backward",2,2922,"Include"
"APH2016_e1","APH2016_e1_2",2,"sulphur",17,1,"Backward",6,719,"Include"
"APH2016_e1","APH2016_e1_2",2,"command",18,0,"Backward",1,2141,"Include"
"APH2016_e1","APH2016_e1_2",2,"lecture",19,0,"Backward",1,812,"Include"
"APH2016_e1","APH2016_e1_2",2,"honey",20,1,"Backward",6,641,"Include"
"APH2016_e1","APH2016_e1_2",2,"venture",21,1,"Backward",6,594,"Include"
"APH2016_e1","APH2016_e1_2",2,"college",22,0,"Backward",1,1359,"Include"
"APH2016_e1","APH2016_e1_2",2,"section",23,1,"Backward",6,797,"Include"
"APH2016_e1","APH2016_e1_2",2,"pepper",24,0,"Backward",1,1062,"Include"
"APH2016_e1","APH2016_e1_2",2,"courage",25,0,"Backward",2,2328,"Include"
"APH2016_e1","APH2016_e1_2",2,"offence",26,1,"Backward",6,656,"Include"
"APH2016_e1","APH2016_e1_2",2,"sailor",27,1,"Backward",6,609,"Include"
"APH2016_e1","APH2016_e1_2",2,"ribbon",28,0,"Backward",1,1250,"Include"
"APH2016_e1","APH2016_e1_2",2,"safety",29,1,"Backward",6,828,"Include"
"APH2016_e1","APH2016_e1_2",2,"cottage",30,1,"Backward",6,500,"Include"
"APH2016_e1","APH2016_e1_2",2,"carbon",31,0,"Backward",1,875,"Include"
"APH2016_e1","APH2016_e1_2",2,"include",32,0,"Backward",1,1219,"Include"
"APH2016_e1","APH2016_e1_2",2,"compare",33,0,"Backward",1,2062,"Include"
"APH2016_e1","APH2016_e1_2",2,"forest",34,0,"Backward",1,844,"Include"
"APH2016_e1","APH2016_e1_2",2,"extreme",35,1,"Backward",6,688,"Include"
"APH2016_e1","APH2016_e1_2",2,"ample",36,1,"Backward",6,609,"Include"
"APH2016_e1","APH2016_e1_2",2,"utmost",37,1,"Backward",6,531,"Include"
"APH2016_e1","APH2016_e1_2",2,"agent",38,0,"Backward",1,2265,"Include"
"APH2016_e1","APH2016_e1_2",2,"mountain",39,1,"Backward",5,1813,"Include"
"APH2016_e1","APH2016_e1_2",2,"feeble",40,0,"Backward",1,1469,"Include"
"APH2016_e1","APH2016_e1_2",2,"passion",41,0,"Backward",1,765,"Include"
"APH2016_e1","APH2016_e1_2",2,"fury",42,0,"Backward",1,578,"Include"
"APH2016_e1","APH2016_e1_2",2,"erect",43,1,"Backward",6,578,"Include"
"APH2016_e1","APH2016_e1_2",2,"prison",44,1,"Backward",1,609,"Include"
"APH2016_e1","APH2016_e1_2",2,"slender",45,0,"Backward",1,3078,"Include"
"APH2016_e1","APH2016_e1_2",2,"orange",46,1,"Backward",5,1844,"Include"
"APH2016_e1","APH2016_e1_2",2,"serve",47,0,"Backward",2,1782,"Include"
"APH2016_e1","APH2016_e1_2",2,"oven",48,1,"Backward",6,750,"Include"
"APH2016_e1","APH2016_e1_2",3,"master",1,1,"Backward",6,1156,"Include"
"APH2016_e1","APH2016_e1_2",3,"consent",2,1,"Backward",5,1953,"Include"
"APH2016_e1","APH2016_e1_2",3,"author",3,0,"Backward",1,2704,"Include"
"APH2016_e1","APH2016_e1_2",3,"insult",4,0,"Backward",5,1547,"Include"
"APH2016_e1","APH2016_e1_2",3,"traitor",5,1,"Backward",6,703,"Include"
"APH2016_e1","APH2016_e1_2",3,"travel",6,0,"Backward",2,1953,"Include"
"APH2016_e1","APH2016_e1_2",3,"dispute",7,1,"Backward",6,578,"Include"
"APH2016_e1","APH2016_e1_2",3,"emerge",8,0,"Backward",2,2968,"Include"
"APH2016_e1","APH2016_e1_2",3,"winter",9,1,"Backward",6,766,"Include"
"APH2016_e1","APH2016_e1_2",3,"riches",10,0,"Backward",3,1235,"Include"
"APH2016_e1","APH2016_e1_2",3,"describe",11,1,"Backward",5,1937,"Include"
"APH2016_e1","APH2016_e1_2",3,"admit",12,0,"Backward",2,2031,"Include"
"APH2016_e1","APH2016_e1_2",3,"infant",13,0,"Backward",1,1312,"Include"
"APH2016_e1","APH2016_e1_2",3,"wonder",14,0,"Backward",1,1219,"Include"
"APH2016_e1","APH2016_e1_2",3,"pocket",15,1,"Backward",6,687,"Include"
"APH2016_e1","APH2016_e1_2",3,"lazy",16,1,"Backward",6,984,"Include"
"APH2016_e1","APH2016_e1_2",3,"olive",17,0,"Backward",1,1062,"Include"
"APH2016_e1","APH2016_e1_2",3,"harness",18,1,"Backward",6,688,"Include"
"APH2016_e1","APH2016_e1_2",3,"recall",19,0,"Backward",1,719,"Include"
"APH2016_e1","APH2016_e1_2",3,"noble",20,1,"Backward",6,547,"Include"
"APH2016_e1","APH2016_e1_2",3,"payment",21,1,"Backward",2,1312,"Include"
"APH2016_e1","APH2016_e1_2",3,"decide",22,1,"Backward",5,1062,"Include"
"APH2016_e1","APH2016_e1_2",3,"await",23,0,"Backward",2,2109,"Include"
"APH2016_e1","APH2016_e1_2",3,"chosen",24,0,"Backward",1,797,"Include"
"APH2016_e1","APH2016_e1_2",3,"excess",25,0,"Backward",1,984,"Include"
"APH2016_e1","APH2016_e1_2",3,"arrow",26,0,"Backward",1,578,"Include"
"APH2016_e1","APH2016_e1_2",3,"labor",27,1,"Backward",6,906,"Include"
"APH2016_e1","APH2016_e1_2",3,"balance",28,1,"Backward",5,1140,"Include"
"APH2016_e1","APH2016_e1_2",3,"onion",29,0,"Backward",1,985,"Include"
"APH2016_e1","APH2016_e1_2",3,"cruel",30,1,"Backward",6,688,"Include"
"APH2016_e1","APH2016_e1_2",3,"program",31,1,"Backward",6,1828,"Include"
"APH2016_e1","APH2016_e1_2",3,"castle",32,0,"Backward",1,1625,"Include"
"APH2016_e1","APH2016_e1_2",3,"appear",33,0,"Backward",3,2203,"Include"
"APH2016_e1","APH2016_e1_2",3,"trifle",34,1,"Backward",6,813,"Include"
"APH2016_e1","APH2016_e1_2",3,"credit",35,1,"Backward",6,500,"Include"
"APH2016_e1","APH2016_e1_2",3,"bother",36,0,"Backward",1,1234,"Include"
"APH2016_e1","APH2016_e1_2",3,"occur",37,0,"Backward",3,1250,"Include"
"APH2016_e1","APH2016_e1_2",3,"dealer",38,1,"Backward",4,1094,"Include"
"APH2016_e1","APH2016_e1_2",3,"sister",39,0,"Backward",3,1125,"Include"
"APH2016_e1","APH2016_e1_2",3,"culture",40,1,"Backward",6,985,"Include"
"APH2016_e1","APH2016_e1_2",3,"refer",41,1,"Backward",6,813,"Include"
"APH2016_e1","APH2016_e1_2",3,"senate",42,0,"Backward",1,859,"Include"
"APH2016_e1","APH2016_e1_2",3,"contain",43,0,"Backward",1,1187,"Include"
"APH2016_e1","APH2016_e1_2",3,"expose",44,1,"Backward",6,641,"Include"
"APH2016_e1","APH2016_e1_2",3,"artist",45,1,"Backward",6,1032,"Include"
"APH2016_e1","APH2016_e1_2",3,"wagon",46,0,"Backward",1,1016,"Include"
"APH2016_e1","APH2016_e1_2",3,"elbow",47,0,"Backward",1,984,"Include"
"APH2016_e1","APH2016_e1_2",3,"novel",48,1,"Backward",5,1547,"Include"
"APH2016_e1","APH2016_e1_2",4,"murder",1,0,"Backward",1,1594,"Include"
"APH2016_e1","APH2016_e1_2",4,"cannon",2,1,"Backward",6,688,"Include"
"APH2016_e1","APH2016_e1_2",4,"scholar",3,0,"Backward",1,796,"Include"
"APH2016_e1","APH2016_e1_2",4,"amid",4,1,"Backward",6,797,"Include"
"APH2016_e1","APH2016_e1_2",4,"dollar",5,1,"Backward",6,500,"Include"
"APH2016_e1","APH2016_e1_2",4,"motor",6,1,"Backward",6,562,"Include"
"APH2016_e1","APH2016_e1_2",4,"jersey",7,0,"Backward",1,828,"Include"
"APH2016_e1","APH2016_e1_2",4,"harvest",8,0,"Backward",4,1968,"Include"
"APH2016_e1","APH2016_e1_2",4,"effort",9,1,"Backward",6,719,"Include"
"APH2016_e1","APH2016_e1_2",4,"entire",10,0,"Backward",3,1468,"Include"
"APH2016_e1","APH2016_e1_2",4,"delight",11,0,"Backward",3,2297,"Include"
"APH2016_e1","APH2016_e1_2",4,"event",12,1,"Backward",5,1312,"Include"
"APH2016_e1","APH2016_e1_2",4,"regard",13,0,"Backward",5,1594,"Include"
"APH2016_e1","APH2016_e1_2",4,"aboard",14,1,"Backward",6,1015,"Include"
"APH2016_e1","APH2016_e1_2",4,"surely",15,1,"Backward",6,687,"Include"
"APH2016_e1","APH2016_e1_2",4,"accord",16,0,"Backward",4,2485,"Include"
"APH2016_e1","APH2016_e1_2",4,"inform",17,0,"Backward",3,1094,"Include"
"APH2016_e1","APH2016_e1_2",4,"fallen",18,1,"Backward",4,1578,"Include"
"APH2016_e1","APH2016_e1_2",4,"separate",19,0,"Backward",4,1172,"Include"
"APH2016_e1","APH2016_e1_2",4,"compound",20,1,"Backward",6,3422,"Include"
"APH2016_e1","APH2016_e1_2",4,"purple",21,0,"Backward",1,2000,"Include"
"APH2016_e1","APH2016_e1_2",4,"servant",22,0,"Backward",1,906,"Include"
"APH2016_e1","APH2016_e1_2",4,"butcher",23,1,"Backward",6,687,"Include"
"APH2016_e1","APH2016_e1_2",4,"jacket",24,1,"Backward",6,750,"Include"
"APH2016_e1","APH2016_e1_2",4,"rapid",25,1,"Backward",6,656,"Include"
"APH2016_e1","APH2016_e1_2",4,"precious",26,0,"Backward",1,1203,"Include"
"APH2016_e1","APH2016_e1_2",4,"blanket",27,0,"Backward",1,843,"Include"
"APH2016_e1","APH2016_e1_2",4,"sincere",28,1,"Backward",6,1016,"Include"
"APH2016_e1","APH2016_e1_2",4,"humble",29,0,"Backward",1,766,"Include"
"APH2016_e1","APH2016_e1_2",4,"empty",30,1,"Backward",6,656,"Include"
"APH2016_e1","APH2016_e1_2",4,"debate",31,1,"Backward",6,640,"Include"
"APH2016_e1","APH2016_e1_2",4,"goddess",32,0,"Backward",1,922,"Include"
"APH2016_e1","APH2016_e1_2",4,"widow",33,1,"Backward",6,1687,"Include"
"APH2016_e1","APH2016_e1_2",4,"pursue",34,1,"Backward",6,609,"Include"
"APH2016_e1","APH2016_e1_2",4,"remove",35,0,"Backward",1,875,"Include"
"APH2016_e1","APH2016_e1_2",4,"parent",36,0,"Backward",1,953,"Include"
"APH2016_e1","APH2016_e1_2",4,"listen",37,1,"Backward",6,687,"Include"
"APH2016_e1","APH2016_e1_2",4,"attach",38,0,"Backward",1,875,"Include"
"APH2016_e1","APH2016_e1_2",4,"deny",39,1,"Backward",1,656,"Include"
"APH2016_e1","APH2016_e1_2",4,"penny",40,0,"Backward",1,828,"Include"
"APH2016_e1","APH2016_e1_2",4,"barrel",41,1,"Backward",4,1328,"Include"
"APH2016_e1","APH2016_e1_2",4,"retreat",42,0,"Backward",1,1046,"Include"
"APH2016_e1","APH2016_e1_2",4,"protect",43,1,"Backward",5,985,"Include"
"APH2016_e1","APH2016_e1_2",4,"dinner",44,0,"Backward",2,1328,"Include"
"APH2016_e1","APH2016_e1_2",4,"survive",45,0,"Backward",5,1360,"Include"
"APH2016_e1","APH2016_e1_2",4,"protest",46,0,"Backward",2,1250,"Include"
"APH2016_e1","APH2016_e1_2",4,"anchor",47,1,"Backward",6,797,"Include"
"APH2016_e1","APH2016_e1_2",4,"alas",48,1,"Backward",6,609,"Include"
"APH2016_e1","APH2016_e1_2",5,"clever",1,1,"Backward",6,2093,"Include"
"APH2016_e1","APH2016_e1_2",5,"basis",2,0,"Backward",1,875,"Include"
"APH2016_e1","APH2016_e1_2",5,"pillow",3,0,"Backward",3,1953,"Include"
"APH2016_e1","APH2016_e1_2",5,"achieve",4,1,"Backward",6,765,"Include"
"APH2016_e1","APH2016_e1_2",5,"judgment",5,1,"Backward",6,906,"Include"
"APH2016_e1","APH2016_e1_2",5,"organ",6,1,"Backward",6,578,"Include"
"APH2016_e1","APH2016_e1_2",5,"confuse",7,0,"Backward",3,1172,"Include"
"APH2016_e1","APH2016_e1_2",5,"wisdom",8,0,"Backward",2,1281,"Include"
"APH2016_e1","APH2016_e1_2",5,"mayor",9,0,"Backward",1,953,"Include"
"APH2016_e1","APH2016_e1_2",5,"current",10,1,"Backward",6,734,"Include"
"APH2016_e1","APH2016_e1_2",5,"insect",11,1,"Backward",6,578,"Include"
"APH2016_e1","APH2016_e1_2",5,"active",12,0,"Backward",2,1140,"Include"
"APH2016_e1","APH2016_e1_2",5,"manner",13,0,"Backward",4,2406,"Include"
"APH2016_e1","APH2016_e1_2",5,"remark",14,1,"Backward",6,797,"Include"
"APH2016_e1","APH2016_e1_2",5,"item",15,0,"Backward",1,1234,"Include"
"APH2016_e1","APH2016_e1_2",5,"reserve",16,1,"Backward",6,765,"Include"
"APH2016_e1","APH2016_e1_2",5,"nation",17,0,"Backward",1,766,"Include"
"APH2016_e1","APH2016_e1_2",5,"normal",18,1,"Backward",6,3329,"Include"
"APH2016_e1","APH2016_e1_2",5,"belong",19,0,"Backward",1,922,"Include"
"APH2016_e1","APH2016_e1_2",5,"comrade",20,1,"Backward",6,641,"Include"
"APH2016_e1","APH2016_e1_2",5,"cellar",21,1,"Backward",6,688,"Include"
"APH2016_e1","APH2016_e1_2",5,"pony",22,0,"Backward",1,656,"Include"
"APH2016_e1","APH2016_e1_2",5,"patient",23,1,"Backward",6,609,"Include"
"APH2016_e1","APH2016_e1_2",5,"jolly",24,0,"Backward",1,765,"Include"
"APH2016_e1","APH2016_e1_2",5,"fatal",25,0,"Backward",1,750,"Include"
"APH2016_e1","APH2016_e1_2",5,"display",26,0,"Backward",1,656,"Include"
"APH2016_e1","APH2016_e1_2",5,"basin",27,1,"Backward",1,390,"Include"
"APH2016_e1","APH2016_e1_2",5,"mixture",28,1,"Backward",1,875,"Include"
"APH2016_e1","APH2016_e1_2",5,"immense",29,1,"Backward",6,1016,"Include"
"APH2016_e1","APH2016_e1_2",5,"meadow",30,1,"Backward",6,532,"Include"
"APH2016_e1","APH2016_e1_2",5,"partly",31,0,"Backward",1,688,"Include"
"APH2016_e1","APH2016_e1_2",5,"confess",32,0,"Backward",1,625,"Include"
"APH2016_e1","APH2016_e1_2",5,"luncheon",33,0,"Backward",1,610,"Include"
"APH2016_e1","APH2016_e1_2",5,"consume",34,1,"Backward",6,610,"Include"
"APH2016_e1","APH2016_e1_2",5,"meaning",35,1,"Backward",5,2218,"Include"
"APH2016_e1","APH2016_e1_2",5,"cattle",36,0,"Backward",5,1125,"Include"
"APH2016_e1","APH2016_e1_2",5,"ticket",37,0,"Backward",2,1484,"Include"
"APH2016_e1","APH2016_e1_2",5,"invent",38,0,"Backward",1,797,"Include"
"APH2016_e1","APH2016_e1_2",5,"depart",39,1,"Backward",6,859,"Include"
"APH2016_e1","APH2016_e1_2",5,"involve",40,1,"Backward",5,1781,"Include"
"APH2016_e1","APH2016_e1_2",5,"turkey",41,1,"Backward",6,750,"Include"
"APH2016_e1","APH2016_e1_2",5,"proper",42,0,"Backward",1,875,"Include"
"APH2016_e1","APH2016_e1_2",5,"apple",43,1,"Backward",6,578,"Include"
"APH2016_e1","APH2016_e1_2",5,"product",44,0,"Backward",3,1578,"Include"
"APH2016_e1","APH2016_e1_2",5,"stomach",45,1,"Backward",6,1031,"Include"
"APH2016_e1","APH2016_e1_2",5,"hungry",46,0,"Backward",6,1172,"Include"
"APH2016_e1","APH2016_e1_2",5,"endure",47,0,"Backward",5,2890,"Include"
"APH2016_e1","APH2016_e1_2",5,"forget",48,1,"Backward",6,3859,"Include"
"APH2016_e1","APH2016_e1_2",6,"yellow",1,0,"Backward",1,1703,"Include"
"APH2016_e1","APH2016_e1_2",6,"salad",2,1,"Backward",6,500,"Include"
"APH2016_e1","APH2016_e1_2",6,"cousin",3,0,"Backward",1,1063,"Include"
"APH2016_e1","APH2016_e1_2",6,"hidden",4,1,"Backward",6,797,"Include"
"APH2016_e1","APH2016_e1_2",6,"oppose",5,0,"Backward",1,1063,"Include"
"APH2016_e1","APH2016_e1_2",6,"engine",6,0,"Backward",1,984,"Include"
"APH2016_e1","APH2016_e1_2",6,"duty",7,1,"Backward",6,1359,"Include"
"APH2016_e1","APH2016_e1_2",6,"dissolve",8,1,"Backward",6,719,"Include"
"APH2016_e1","APH2016_e1_2",6,"revenge",9,1,"Backward",6,641,"Include"
"APH2016_e1","APH2016_e1_2",6,"inspire",10,0,"Backward",1,687,"Include"
"APH2016_e1","APH2016_e1_2",6,"autumn",11,1,"Backward",6,641,"Include"
"APH2016_e1","APH2016_e1_2",6,"weapon",12,0,"Backward",5,1578,"Include"
"APH2016_e1","APH2016_e1_2",6,"quarter",13,1,"Backward",6,610,"Include"
"APH2016_e1","APH2016_e1_2",6,"direct",14,1,"Backward",5,1282,"Include"
"APH2016_e1","APH2016_e1_2",6,"upward",15,0,"Backward",1,1469,"Include"
"APH2016_e1","APH2016_e1_2",6,"platform",16,0,"Backward",1,703,"Include"
"APH2016_e1","APH2016_e1_2",6,"journal",17,1,"Backward",6,562,"Include"
"APH2016_e1","APH2016_e1_2",6,"reckon",18,0,"Backward",1,734,"Include"
"APH2016_e1","APH2016_e1_2",6,"helmet",19,1,"Backward",6,719,"Include"
"APH2016_e1","APH2016_e1_2",6,"conflict",20,0,"Backward",1,984,"Include"
"APH2016_e1","APH2016_e1_2",6,"avoid",21,0,"Backward",1,953,"Include"
"APH2016_e1","APH2016_e1_2",6,"notion",22,1,"Backward",6,828,"Include"
"APH2016_e1","APH2016_e1_2",6,"candy",23,1,"Backward",6,610,"Include"
"APH2016_e1","APH2016_e1_2",6,"folly",24,0,"Backward",1,875,"Include"
"APH2016_e1","APH2016_e1_2",6,"affair",25,0,"Backward",1,547,"Include"
"APH2016_e1","APH2016_e1_2",6,"coffee",26,0,"Backward",1,1047,"Include"
"APH2016_e1","APH2016_e1_2",6,"awful",27,1,"Backward",6,656,"Include"
"APH2016_e1","APH2016_e1_2",6,"prairie",28,1,"Backward",6,609,"Include"
"APH2016_e1","APH2016_e1_2",6,"advise",29,1,"Backward",6,765,"Include"
"APH2016_e1","APH2016_e1_2",6,"puzzle",30,0,"Backward",1,688,"Include"
"APH2016_e1","APH2016_e1_2",6,"carriage",31,0,"Backward",1,657,"Include"
"APH2016_e1","APH2016_e1_2",6,"bargain",32,1,"Backward",6,563,"Include"
"APH2016_e1","APH2016_e1_2",6,"defend",33,1,"Backward",1,734,"Include"
"APH2016_e1","APH2016_e1_2",6,"captain",34,1,"Backward",6,1547,"Include"
"APH2016_e1","APH2016_e1_2",6,"modest",35,0,"Backward",1,688,"Include"
"APH2016_e1","APH2016_e1_2",6,"arise",36,0,"Backward",5,3000,"Include"
"APH2016_e1","APH2016_e1_2",6,"afford",37,0,"Backward",4,1625,"Include"
"APH2016_e1","APH2016_e1_2",6,"message",38,1,"Backward",6,797,"Include"
"APH2016_e1","APH2016_e1_2",6,"wander",39,0,"Backward",1,953,"Include"
"APH2016_e1","APH2016_e1_2",6,"suffer",40,1,"Backward",5,1203,"Include"
"APH2016_e1","APH2016_e1_2",6,"pattern",41,0,"Backward",5,1454,"Include"
"APH2016_e1","APH2016_e1_2",6,"likewise",42,1,"Backward",5,907,"Include"
"APH2016_e1","APH2016_e1_2",6,"empire",43,1,"Backward",5,641,"Include"
"APH2016_e1","APH2016_e1_2",6,"rider",44,0,"Backward",3,3265,"Include"
"APH2016_e1","APH2016_e1_2",6,"sustain",45,1,"Backward",6,984,"Include"
"APH2016_e1","APH2016_e1_2",6,"supreme",46,0,"Backward",1,922,"Include"
"APH2016_e1","APH2016_e1_2",6,"refuse",47,0,"Backward",4,1422,"Include"
"APH2016_e1","APH2016_e1_2",6,"concert",48,1,"Backward",6,657,"Include"
"APH2016_e1","APH2016_e1_2",7,"contest",1,1,"Backward",6,703,"Include"
"APH2016_e1","APH2016_e1_2",7,"assume",2,1,"Backward",3,1625,"Include"
"APH2016_e1","APH2016_e1_2",7,"feather",3,0,"Backward",3,2250,"Include"
"APH2016_e1","APH2016_e1_2",7,"enjoy",4,0,"Backward",4,953,"Include"
"APH2016_e1","APH2016_e1_2",7,"delay",5,1,"Backward",4,875,"Include"
"APH2016_e1","APH2016_e1_2",7,"conquer",6,0,"Backward",3,1390,"Include"
"APH2016_e1","APH2016_e1_2",7,"obtain",7,1,"Backward",6,984,"Include"
"APH2016_e1","APH2016_e1_2",7,"package",8,0,"Backward",1,2000,"Include"
"APH2016_e1","APH2016_e1_2",7,"member",9,1,"Backward",6,687,"Include"
"APH2016_e1","APH2016_e1_2",7,"struggle",10,0,"Backward",1,828,"Include"
"APH2016_e1","APH2016_e1_2",7,"medal",11,1,"Backward",6,656,"Include"
"APH2016_e1","APH2016_e1_2",7,"secure",12,0,"Backward",2,1469,"Include"
"APH2016_e1","APH2016_e1_2",7,"engage",13,0,"Backward",2,1843,"Include"
"APH2016_e1","APH2016_e1_2",7,"lemon",14,1,"Backward",6,609,"Include"
"APH2016_e1","APH2016_e1_2",7,"teacher",15,1,"Backward",6,500,"Include"
"APH2016_e1","APH2016_e1_2",7,"beside",16,0,"Backward",1,1016,"Include"
"APH2016_e1","APH2016_e1_2",7,"shepherd",17,0,"Backward",1,985,"Include"
"APH2016_e1","APH2016_e1_2",7,"relief",18,1,"Backward",6,657,"Include"
"APH2016_e1","APH2016_e1_2",7,"farmer",19,1,"Backward",6,610,"Include"
"APH2016_e1","APH2016_e1_2",7,"assault",20,0,"Backward",3,2328,"Include"
"APH2016_e1","APH2016_e1_2",7,"moisture",21,1,"Backward",5,1735,"Include"
"APH2016_e1","APH2016_e1_2",7,"mention",22,0,"Backward",2,1234,"Include"
"APH2016_e1","APH2016_e1_2",7,"talent",23,0,"Backward",4,1593,"Include"
"APH2016_e1","APH2016_e1_2",7,"frequent",24,1,"Backward",4,860,"Include"
"APH2016_e1","APH2016_e1_2",7,"liquid",25,0,"Backward",3,891,"Include"
"APH2016_e1","APH2016_e1_2",7,"connect",26,0,"Backward",3,875,"Include"
"APH2016_e1","APH2016_e1_2",7,"suspect",27,1,"Backward",5,1313,"Include"
"APH2016_e1","APH2016_e1_2",7,"cluster",28,1,"Backward",6,797,"Include"
"APH2016_e1","APH2016_e1_2",7,"resort",29,0,"Backward",3,1282,"Include"
"APH2016_e1","APH2016_e1_2",7,"asleep",30,1,"Backward",6,735,"Include"
"APH2016_e1","APH2016_e1_2",7,"mental",31,0,"Backward",5,1125,"Include"
"APH2016_e1","APH2016_e1_2",7,"island",32,1,"Backward",6,656,"Include"
"APH2016_e1","APH2016_e1_2",7,"impose",33,0,"Backward",1,1094,"Include"
"APH2016_e1","APH2016_e1_2",7,"angry",34,0,"Backward",3,2297,"Include"
"APH2016_e1","APH2016_e1_2",7,"sorrow",35,1,"Backward",6,1235,"Include"
"APH2016_e1","APH2016_e1_2",7,"ugly",36,1,"Backward",6,547,"Include"
"APH2016_e1","APH2016_e1_2",7,"exist",37,0,"Backward",5,1016,"Include"
"APH2016_e1","APH2016_e1_2",7,"distinct",38,1,"Backward",3,1704,"Include"
"APH2016_e1","APH2016_e1_2",7,"absorb",39,0,"Backward",1,1469,"Include"
"APH2016_e1","APH2016_e1_2",7,"stable",40,1,"Backward",5,3484,"Include"
"APH2016_e1","APH2016_e1_2",7,"express",41,1,"Backward",NA,NA,"Exclude"
"APH2016_e1","APH2016_e1_2",7,"accept",42,1,"Backward",5,2640,"Include"
"APH2016_e1","APH2016_e1_2",7,"receipt",43,0,"Backward",3,875,"Include"
"APH2016_e1","APH2016_e1_2",7,"linen",44,0,"Backward",1,953,"Include"
"APH2016_e1","APH2016_e1_2",7,"merit",45,1,"Backward",6,797,"Include"
"APH2016_e1","APH2016_e1_2",7,"congress",46,0,"Backward",1,1110,"Include"
"APH2016_e1","APH2016_e1_2",7,"ideal",47,0,"Backward",5,1203,"Include"
"APH2016_e1","APH2016_e1_2",7,"disturb",48,1,"Backward",3,1688,"Include"
"APH2016_e1","APH2016_e1_2",8,"perfect",1,1,"Backward",6,719,"Include"
"APH2016_e1","APH2016_e1_2",8,"impress",2,0,"Backward",2,1329,"Include"
"APH2016_e1","APH2016_e1_2",8,"detail",3,1,"Backward",5,875,"Include"
"APH2016_e1","APH2016_e1_2",8,"thunder",4,0,"Backward",1,1016,"Include"
"APH2016_e1","APH2016_e1_2",8,"handle",5,0,"Backward",4,1688,"Include"
"APH2016_e1","APH2016_e1_2",8,"acid",6,1,"Backward",6,578,"Include"
"APH2016_e1","APH2016_e1_2",8,"tribute",7,1,"Backward",6,734,"Include"
"APH2016_e1","APH2016_e1_2",8,"movie",8,0,"Backward",1,718,"Include"
"APH2016_e1","APH2016_e1_2",8,"pursuit",9,0,"Backward",5,1203,"Include"
"APH2016_e1","APH2016_e1_2",8,"forehead",10,1,"Backward",6,1328,"Include"
"APH2016_e1","APH2016_e1_2",8,"unit",11,0,"Backward",1,984,"Include"
"APH2016_e1","APH2016_e1_2",8,"assist",12,1,"Backward",6,609,"Include"
"APH2016_e1","APH2016_e1_2",8,"disguise",13,1,"Backward",6,531,"Include"
"APH2016_e1","APH2016_e1_2",8,"upper",14,0,"Backward",1,875,"Include"
"APH2016_e1","APH2016_e1_2",8,"publish",15,0,"Backward",1,1031,"Include"
"APH2016_e1","APH2016_e1_2",8,"menace",16,1,"Backward",6,609,"Include"
"APH2016_e1","APH2016_e1_2",8,"sacred",17,0,"Backward",1,875,"Include"
"APH2016_e1","APH2016_e1_2",8,"useful",18,0,"Backward",1,719,"Include"
"APH2016_e1","APH2016_e1_2",8,"famous",19,1,"Backward",6,578,"Include"
"APH2016_e1","APH2016_e1_2",8,"attend",20,1,"Backward",5,1110,"Include"
"APH2016_e1","APH2016_e1_2",8,"upset",21,0,"Backward",2,953,"Include"
"APH2016_e1","APH2016_e1_2",8,"bedroom",22,1,"Backward",6,719,"Include"
"APH2016_e1","APH2016_e1_2",8,"remind",23,1,"Backward",3,1703,"Include"
"APH2016_e1","APH2016_e1_2",8,"chimney",24,0,"Backward",1,984,"Include"
"APH2016_e1","APH2016_e1_2",8,"justice",25,1,"Backward",4,984,"Include"
"APH2016_e1","APH2016_e1_2",8,"shelter",26,1,"Backward",4,984,"Include"
"APH2016_e1","APH2016_e1_2",8,"perform",27,0,"Backward",4,937,"Include"
"APH2016_e1","APH2016_e1_2",8,"salute",28,0,"Backward",1,938,"Include"
"APH2016_e1","APH2016_e1_2",8,"steamer",29,1,"Backward",6,766,"Include"
"APH2016_e1","APH2016_e1_2",8,"confirm",30,1,"Backward",6,656,"Include"
"APH2016_e1","APH2016_e1_2",8,"factor",31,0,"Backward",1,2078,"Include"
"APH2016_e1","APH2016_e1_2",8,"prayer",32,0,"Backward",1,859,"Include"
"APH2016_e1","APH2016_e1_2",8,"approach",33,1,"Backward",6,625,"Include"
"APH2016_e1","APH2016_e1_2",8,"station",34,0,"Backward",6,937,"Include"
"APH2016_e1","APH2016_e1_2",8,"rabbit",35,0,"Backward",1,687,"Include"
"APH2016_e1","APH2016_e1_2",8,"resist",36,1,"Backward",4,1328,"Include"
"APH2016_e1","APH2016_e1_2",8,"perfume",37,0,"Backward",1,1359,"Include"
"APH2016_e1","APH2016_e1_2",8,"unlike",38,1,"Backward",6,672,"Include"
"APH2016_e1","APH2016_e1_2",8,"request",39,0,"Backward",4,1437,"Include"
"APH2016_e1","APH2016_e1_2",8,"spirit",40,1,"Backward",1,844,"Include"
"APH2016_e1","APH2016_e1_2",8,"extra",41,0,"Backward",1,641,"Include"
"APH2016_e1","APH2016_e1_2",8,"collar",42,0,"Backward",1,984,"Include"
"APH2016_e1","APH2016_e1_2",8,"canvas",43,1,"Backward",6,656,"Include"
"APH2016_e1","APH2016_e1_2",8,"genius",44,1,"Backward",6,687,"Include"
"APH2016_e1","APH2016_e1_2",8,"closet",45,1,"Backward",2,1172,"Include"
"APH2016_e1","APH2016_e1_2",8,"outline",46,0,"Backward",1,797,"Include"
"APH2016_e1","APH2016_e1_2",8,"boundary",47,1,"Backward",4,1282,"Include"
"APH2016_e1","APH2016_e1_2",8,"finger",48,0,"Backward",3,1579,"Include"
"APH2016_e1","APH2016_e1_2",9,"dragon",1,0,"Backward",1,1015,"Include"
"APH2016_e1","APH2016_e1_2",9,"narrow",2,1,"Backward",1,875,"Include"
"APH2016_e1","APH2016_e1_2",9,"muscle",3,1,"Backward",6,609,"Include"
"APH2016_e1","APH2016_e1_2",9,"severe",4,0,"Backward",5,1312,"Include"
"APH2016_e1","APH2016_e1_2",9,"idle",5,0,"Backward",2,1172,"Include"
"APH2016_e1","APH2016_e1_2",9,"angel",6,1,"Backward",6,656,"Include"
"APH2016_e1","APH2016_e1_2",9,"chapel",7,0,"Backward",1,687,"Include"
"APH2016_e1","APH2016_e1_2",9,"rifle",8,1,"Backward",6,563,"Include"
"APH2016_e1","APH2016_e1_2",9,"monarch",9,1,"Backward",6,469,"Include"
"APH2016_e1","APH2016_e1_2",9,"desire",10,1,"Backward",6,469,"Include"
"APH2016_e1","APH2016_e1_2",9,"beneath",11,0,"Backward",1,532,"Include"
"APH2016_e1","APH2016_e1_2",9,"campaign",12,0,"Backward",1,657,"Include"
"APH2016_e1","APH2016_e1_2",9,"sprinkle",13,0,"Backward",1,610,"Include"
"APH2016_e1","APH2016_e1_2",9,"minute",14,0,"Backward",1,469,"Include"
"APH2016_e1","APH2016_e1_2",9,"welfare",15,1,"Backward",6,500,"Include"
"APH2016_e1","APH2016_e1_2",9,"conceal",16,1,"Backward",6,500,"Include"
"APH2016_e1","APH2016_e1_2",9,"measure",17,1,"Backward",6,563,"Include"
"APH2016_e1","APH2016_e1_2",9,"soldier",18,0,"Backward",1,1000,"Include"
"APH2016_e1","APH2016_e1_2",9,"temple",19,1,"Backward",6,563,"Include"
"APH2016_e1","APH2016_e1_2",9,"approve",20,0,"Backward",4,1093,"Include"
"APH2016_e1","APH2016_e1_2",9,"pasture",21,1,"Backward",6,813,"Include"
"APH2016_e1","APH2016_e1_2",9,"marble",22,0,"Backward",5,1532,"Include"
"APH2016_e1","APH2016_e1_2",9,"busy",23,0,"Backward",1,735,"Include"
"APH2016_e1","APH2016_e1_2",9,"instant",24,1,"Backward",6,1015,"Include"
"APH2016_e1","APH2016_e1_2",9,"declare",25,1,"Backward",6,1281,"Include"
"APH2016_e1","APH2016_e1_2",9,"limit",26,1,"Backward",3,1469,"Include"
"APH2016_e1","APH2016_e1_2",9,"resolve",27,0,"Backward",1,1172,"Include"
"APH2016_e1","APH2016_e1_2",9,"abuse",28,0,"Backward",1,1406,"Include"
"APH2016_e1","APH2016_e1_2",9,"diamond",29,1,"Backward",6,609,"Include"
"APH2016_e1","APH2016_e1_2",9,"angle",30,0,"Backward",2,2547,"Include"
"APH2016_e1","APH2016_e1_2",9,"allow",31,1,"Backward",5,656,"Include"
"APH2016_e1","APH2016_e1_2",9,"madam",32,0,"Backward",1,906,"Include"
"APH2016_e1","APH2016_e1_2",9,"tennis",33,1,"Backward",6,656,"Include"
"APH2016_e1","APH2016_e1_2",9,"project",34,0,"Backward",3,1719,"Include"
"APH2016_e1","APH2016_e1_2",9,"suggest",35,0,"Backward",3,797,"Include"
"APH2016_e1","APH2016_e1_2",9,"sudden",36,1,"Backward",4,1328,"Include"
"APH2016_e1","APH2016_e1_2",9,"opera",37,0,"Backward",1,875,"Include"
"APH2016_e1","APH2016_e1_2",9,"appeal",38,0,"Backward",1,1062,"Include"
"APH2016_e1","APH2016_e1_2",9,"adopt",39,1,"Backward",6,687,"Include"
"APH2016_e1","APH2016_e1_2",9,"captive",40,1,"Backward",4,1391,"Include"
"APH2016_e1","APH2016_e1_2",9,"convert",41,0,"Backward",2,829,"Include"
"APH2016_e1","APH2016_e1_2",9,"improve",42,1,"Backward",5,1032,"Include"
"APH2016_e1","APH2016_e1_2",9,"largely",43,1,"Backward",6,719,"Include"
"APH2016_e1","APH2016_e1_2",9,"devil",44,0,"Backward",1,1094,"Include"
"APH2016_e1","APH2016_e1_2",9,"belief",45,0,"Backward",4,3125,"Include"
"APH2016_e1","APH2016_e1_2",9,"creature",46,1,"Backward",6,828,"Include"
"APH2016_e1","APH2016_e1_2",9,"banner",47,0,"Backward",2,1250,"Include"
"APH2016_e1","APH2016_e1_2",9,"resign",48,1,"Backward",6,750,"Include"
"APH2016_e1","APH2016_e1_2",10,"permit",1,1,"Backward",6,1640,"Include"
"APH2016_e1","APH2016_e1_2",10,"disease",2,1,"Backward",6,563,"Include"
"APH2016_e1","APH2016_e1_2",10,"fountain",3,0,"Backward",1,657,"Include"
"APH2016_e1","APH2016_e1_2",10,"vanish",4,0,"Backward",1,610,"Include"
"APH2016_e1","APH2016_e1_2",10,"decay",5,1,"Backward",6,500,"Include"
"APH2016_e1","APH2016_e1_2",10,"cotton",6,0,"Backward",1,719,"Include"
"APH2016_e1","APH2016_e1_2",10,"candle",7,1,"Backward",6,547,"Include"
"APH2016_e1","APH2016_e1_2",10,"alive",8,0,"Backward",1,875,"Include"
"APH2016_e1","APH2016_e1_2",10,"create",9,0,"Backward",2,906,"Include"
"APH2016_e1","APH2016_e1_2",10,"hostile",10,1,"Backward",6,610,"Include"
"APH2016_e1","APH2016_e1_2",10,"reflect",11,0,"Backward",2,1094,"Include"
"APH2016_e1","APH2016_e1_2",10,"prevent",12,1,"Backward",4,1406,"Include"
"APH2016_e1","APH2016_e1_2",10,"silver",13,1,"Backward",6,1031,"Include"
"APH2016_e1","APH2016_e1_2",10,"induce",14,0,"Backward",1,937,"Include"
"APH2016_e1","APH2016_e1_2",10,"pupil",15,0,"Backward",1,656,"Include"
"APH2016_e1","APH2016_e1_2",10,"decrease",16,1,"Backward",4,1656,"Include"
"APH2016_e1","APH2016_e1_2",10,"argue",17,0,"Backward",4,875,"Include"
"APH2016_e1","APH2016_e1_2",10,"horror",18,1,"Backward",6,609,"Include"
"APH2016_e1","APH2016_e1_2",10,"button",19,0,"Backward",1,1437,"Include"
"APH2016_e1","APH2016_e1_2",10,"supply",20,1,"Backward",4,797,"Include"
"APH2016_e1","APH2016_e1_2",10,"ancient",21,0,"Backward",2,1281,"Include"
"APH2016_e1","APH2016_e1_2",10,"borrow",22,1,"Backward",6,1359,"Include"
"APH2016_e1","APH2016_e1_2",10,"forgive",23,1,"Backward",6,687,"Include"
"APH2016_e1","APH2016_e1_2",10,"correct",24,0,"Backward",2,1360,"Include"
"APH2016_e1","APH2016_e1_2",10,"legend",25,1,"Backward",6,719,"Include"
"APH2016_e1","APH2016_e1_2",10,"surface",26,0,"Backward",2,1140,"Include"
"APH2016_e1","APH2016_e1_2",10,"mirror",27,1,"Backward",6,985,"Include"
"APH2016_e1","APH2016_e1_2",10,"prefer",28,0,"Backward",2,907,"Include"
"APH2016_e1","APH2016_e1_2",10,"pardon",29,0,"Backward",2,2078,"Include"
"APH2016_e1","APH2016_e1_2",10,"voyage",30,1,"Backward",6,563,"Include"
"APH2016_e1","APH2016_e1_2",10,"temper",31,1,"Backward",6,547,"Include"
"APH2016_e1","APH2016_e1_2",10,"cabin",32,0,"Backward",2,797,"Include"
"APH2016_e1","APH2016_e1_2",10,"arouse",33,0,"Backward",1,1359,"Include"
"APH2016_e1","APH2016_e1_2",10,"junior",34,0,"Backward",1,875,"Include"
"APH2016_e1","APH2016_e1_2",10,"rubber",35,1,"Backward",6,937,"Include"
"APH2016_e1","APH2016_e1_2",10,"bottom",36,1,"Backward",6,656,"Include"
"APH2016_e1","APH2016_e1_2",10,"traffic",37,0,"Backward",1,1687,"Include"
"APH2016_e1","APH2016_e1_2",10,"sunset",38,0,"Backward",1,766,"Include"
"APH2016_e1","APH2016_e1_2",10,"hero",39,1,"Backward",6,579,"Include"
"APH2016_e1","APH2016_e1_2",10,"aside",40,1,"Backward",5,938,"Include"
"APH2016_e1","APH2016_e1_2",10,"convey",41,1,"Backward",6,687,"Include"
"APH2016_e1","APH2016_e1_2",10,"unto",42,0,"Backward",1,734,"Include"
"APH2016_e1","APH2016_e1_2",10,"acre",43,0,"Backward",1,719,"Include"
"APH2016_e1","APH2016_e1_2",10,"perceive",44,1,"Backward",6,579,"Include"
"APH2016_e1","APH2016_e1_2",10,"battle",45,1,"Backward",6,828,"Include"
"APH2016_e1","APH2016_e1_2",10,"channel",46,1,"Backward",6,547,"Include"
"APH2016_e1","APH2016_e1_2",10,"colonel",47,0,"Backward",1,828,"Include"
"APH2016_e1","APH2016_e1_2",10,"mission",48,0,"Backward",5,1062,"Include"
"APH2016_e1","APH2016_e1_2",11,"circuit",1,1,"Backward",5,1187,"Include"
"APH2016_e1","APH2016_e1_2",11,"lawyer",2,0,"Backward",1,719,"Include"
"APH2016_e1","APH2016_e1_2",11,"journey",3,1,"Backward",6,657,"Include"
"APH2016_e1","APH2016_e1_2",11,"contrast",4,0,"Backward",1,766,"Include"
"APH2016_e1","APH2016_e1_2",11,"heaven",5,1,"Backward",6,531,"Include"
"APH2016_e1","APH2016_e1_2",11,"vessel",6,1,"Backward",5,844,"Include"
"APH2016_e1","APH2016_e1_2",11,"cherry",7,0,"Backward",1,797,"Include"
"APH2016_e1","APH2016_e1_2",11,"cable",8,0,"Backward",5,875,"Include"
"APH2016_e1","APH2016_e1_2",11,"attract",9,0,"Backward",4,1328,"Include"
"APH2016_e1","APH2016_e1_2",11,"pointed",10,1,"Backward",6,703,"Include"
"APH2016_e1","APH2016_e1_2",11,"danger",11,0,"Backward",2,1282,"Include"
"APH2016_e1","APH2016_e1_2",11,"hollow",12,1,"Backward",6,547,"Include"
"APH2016_e1","APH2016_e1_2",11,"district",13,0,"Backward",5,797,"Include"
"APH2016_e1","APH2016_e1_2",11,"nephew",14,0,"Backward",3,734,"Include"
"APH2016_e1","APH2016_e1_2",11,"remain",15,1,"Backward",4,3078,"Include"
"APH2016_e1","APH2016_e1_2",11,"orchard",16,1,"Backward",6,640,"Include"
"APH2016_e1","APH2016_e1_2",11,"reveal",17,1,"Backward",5,1000,"Include"
"APH2016_e1","APH2016_e1_2",11,"proceed",18,0,"Backward",1,828,"Include"
"APH2016_e1","APH2016_e1_2",11,"earnest",19,0,"Backward",1,906,"Include"
"APH2016_e1","APH2016_e1_2",11,"destroy",20,1,"Backward",6,1328,"Include"
"APH2016_e1","APH2016_e1_2",11,"uncle",21,0,"Backward",4,2265,"Include"
"APH2016_e1","APH2016_e1_2",11,"timber",22,1,"Backward",6,875,"Include"
"APH2016_e1","APH2016_e1_2",11,"distress",23,1,"Backward",6,797,"Include"
"APH2016_e1","APH2016_e1_2",11,"silence",24,0,"Backward",2,1172,"Include"
"APH2016_e1","APH2016_e1_2",11,"needle",25,1,"Backward",6,687,"Include"
"APH2016_e1","APH2016_e1_2",11,"fabric",26,0,"Backward",1,797,"Include"
"APH2016_e1","APH2016_e1_2",11,"failure",27,1,"Backward",6,625,"Include"
"APH2016_e1","APH2016_e1_2",11,"disgrace",28,0,"Backward",4,1484,"Include"
"APH2016_e1","APH2016_e1_2",11,"settle",29,0,"Backward",3,1234,"Include"
"APH2016_e1","APH2016_e1_2",11,"shower",30,1,"Backward",6,625,"Include"
"APH2016_e1","APH2016_e1_2",11,"costume",31,0,"Backward",2,1125,"Include"
"APH2016_e1","APH2016_e1_2",11,"signal",32,1,"Backward",6,1172,"Include"
"APH2016_e1","APH2016_e1_2",11,"rural",33,0,"Backward",1,953,"Include"
"APH2016_e1","APH2016_e1_2",11,"worry",34,0,"Backward",1,875,"Include"
"APH2016_e1","APH2016_e1_2",11,"herald",35,1,"Backward",6,578,"Include"
"APH2016_e1","APH2016_e1_2",11,"season",36,1,"Backward",6,547,"Include"
"APH2016_e1","APH2016_e1_2",11,"explain",37,1,"Backward",6,766,"Include"
"APH2016_e1","APH2016_e1_2",11,"worthy",38,0,"Backward",1,1500,"Include"
"APH2016_e1","APH2016_e1_2",11,"vital",39,0,"Backward",1,735,"Include"
"APH2016_e1","APH2016_e1_2",11,"bullet",40,1,"Backward",6,719,"Include"
"APH2016_e1","APH2016_e1_2",11,"liquor",41,0,"Backward",1,734,"Include"
"APH2016_e1","APH2016_e1_2",11,"crazy",42,1,"Backward",6,500,"Include"
"APH2016_e1","APH2016_e1_2",11,"model",43,1,"Backward",6,609,"Include"
"APH2016_e1","APH2016_e1_2",11,"powder",44,0,"Backward",1,844,"Include"
"APH2016_e1","APH2016_e1_2",11,"export",45,1,"Backward",6,578,"Include"
"APH2016_e1","APH2016_e1_2",11,"enforce",46,1,"Backward",6,500,"Include"
"APH2016_e1","APH2016_e1_2",11,"leader",47,0,"Backward",1,687,"Include"
"APH2016_e1","APH2016_e1_2",11,"device",48,0,"Backward",4,1360,"Include"
"APH2016_e1","APH2016_e1_2",12,"instinct",1,0,"Backward",1,812,"Include"
"APH2016_e1","APH2016_e1_2",12,"discuss",2,1,"Backward",6,688,"Include"
"APH2016_e1","APH2016_e1_2",12,"poem",3,1,"Backward",6,610,"Include"
"APH2016_e1","APH2016_e1_2",12,"status",4,0,"Backward",1,688,"Include"
"APH2016_e1","APH2016_e1_2",12,"gracious",5,0,"Backward",1,609,"Include"
"APH2016_e1","APH2016_e1_2",12,"series",6,1,"Backward",1,765,"Include"
"APH2016_e1","APH2016_e1_2",12,"absent",7,0,"Backward",1,578,"Include"
"APH2016_e1","APH2016_e1_2",12,"derive",8,1,"Backward",6,641,"Include"
"APH2016_e1","APH2016_e1_2",12,"remote",9,1,"Backward",6,547,"Include"
"APH2016_e1","APH2016_e1_2",12,"leather",10,0,"Backward",1,1203,"Include"
"APH2016_e1","APH2016_e1_2",12,"envy",11,1,"Backward",6,687,"Include"
"APH2016_e1","APH2016_e1_2",12,"gesture",12,0,"Backward",1,610,"Include"
"APH2016_e1","APH2016_e1_2",12,"victim",13,1,"Backward",6,547,"Include"
"APH2016_e1","APH2016_e1_2",12,"resource",14,1,"Backward",6,641,"Include"
"APH2016_e1","APH2016_e1_2",12,"function",15,0,"Backward",6,797,"Include"
"APH2016_e1","APH2016_e1_2",12,"pleasure",16,0,"Backward",1,922,"Include"
"APH2016_e1","APH2016_e1_2",12,"jealous",17,1,"Backward",6,609,"Include"
"APH2016_e1","APH2016_e1_2",12,"admire",18,0,"Backward",1,797,"Include"
"APH2016_e1","APH2016_e1_2",12,"standard",19,1,"Backward",6,719,"Include"
"APH2016_e1","APH2016_e1_2",12,"gentle",20,0,"Backward",5,1219,"Include"
"APH2016_e1","APH2016_e1_2",12,"habit",21,1,"Backward",6,610,"Include"
"APH2016_e1","APH2016_e1_2",12,"velvet",22,0,"Backward",1,657,"Include"
"APH2016_e1","APH2016_e1_2",12,"parcel",23,0,"Backward",1,719,"Include"
"APH2016_e1","APH2016_e1_2",12,"dismiss",24,1,"Backward",6,719,"Include"
"APH2016_e1","APH2016_e1_2",12,"lion",25,1,"Backward",6,547,"Include"
"APH2016_e1","APH2016_e1_2",12,"valley",26,1,"Backward",6,500,"Include"
"APH2016_e1","APH2016_e1_2",12,"tiger",27,0,"Backward",1,828,"Include"
"APH2016_e1","APH2016_e1_2",12,"apply",28,0,"Backward",1,812,"Include"
"APH2016_e1","APH2016_e1_2",12,"province",29,0,"Backward",1,828,"Include"
"APH2016_e1","APH2016_e1_2",12,"arrive",30,1,"Backward",6,687,"Include"
"APH2016_e1","APH2016_e1_2",12,"devote",31,1,"Backward",5,1172,"Include"
"APH2016_e1","APH2016_e1_2",12,"swallow",32,0,"Backward",1,875,"Include"
"APH2016_e1","APH2016_e1_2",12,"science",33,0,"Backward",1,954,"Include"
"APH2016_e1","APH2016_e1_2",12,"planet",34,0,"Backward",1,750,"Include"
"APH2016_e1","APH2016_e1_2",12,"assure",35,1,"Backward",5,922,"Include"
"APH2016_e1","APH2016_e1_2",12,"lying",36,1,"Backward",6,1172,"Include"
"APH2016_e1","APH2016_e1_2",12,"ashore",37,0,"Backward",1,1172,"Include"
"APH2016_e1","APH2016_e1_2",12,"disgust",38,1,"Backward",6,719,"Include"
"APH2016_e1","APH2016_e1_2",12,"finish",39,0,"Backward",5,844,"Include"
"APH2016_e1","APH2016_e1_2",12,"machine",40,1,"Backward",6,906,"Include"
"APH2016_e1","APH2016_e1_2",12,"civil",41,0,"Backward",1,984,"Include"
"APH2016_e1","APH2016_e1_2",12,"release",42,0,"Backward",4,1656,"Include"
"APH2016_e1","APH2016_e1_2",12,"climate",43,1,"Backward",5,1328,"Include"
"APH2016_e1","APH2016_e1_2",12,"conceive",44,1,"Backward",6,797,"Include"
"APH2016_e1","APH2016_e1_2",12,"basket",45,1,"Backward",6,578,"Include"
"APH2016_e1","APH2016_e1_2",12,"carpet",46,0,"Backward",5,1235,"Include"
"APH2016_e1","APH2016_e1_2",12,"portion",47,0,"Backward",2,984,"Include"
"APH2016_e1","APH2016_e1_2",12,"comfort",48,1,"Backward",6,687,"Include"
"APH2016_e1","APH2016_e1_3",0,"grateful",1,0,"Backward",2,2250,"Exclude"
"APH2016_e1","APH2016_e1_3",0,"replace",2,1,"Backward",5,1953,"Exclude"
"APH2016_e1","APH2016_e1_3",0,"latter",3,0,"Backward",1,3172,"Exclude"
"APH2016_e1","APH2016_e1_3",0,"array",4,1,"Backward",6,1594,"Exclude"
"APH2016_e1","APH2016_e1_3",0,"restless",5,0,"Backward",5,2110,"Exclude"
"APH2016_e1","APH2016_e1_3",0,"kindness",6,1,"Backward",6,1297,"Exclude"
"APH2016_e1","APH2016_e1_3",0,"complain",7,1,"Backward",6,734,"Exclude"
"APH2016_e1","APH2016_e1_3",0,"sickness",8,0,"Backward",3,3953,"Exclude"
"APH2016_e1","APH2016_e1_3",0,"writer",9,1,"Backward",6,1109,"Exclude"
"APH2016_e1","APH2016_e1_3",0,"unknown",10,0,"Backward",3,1235,"Exclude"
"APH2016_e1","APH2016_e1_3",0,"lucky",11,1,"Backward",6,1578,"Exclude"
"APH2016_e1","APH2016_e1_3",0,"twilight",12,0,"Backward",1,875,"Exclude"
"APH2016_e1","APH2016_e1_3",0,"wicked",13,0,"Backward",1,1328,"Exclude"
"APH2016_e1","APH2016_e1_3",0,"costly",14,1,"Backward",1,1953,"Exclude"
"APH2016_e1","APH2016_e1_3",0,"deadly",15,0,"Backward",1,859,"Exclude"
"APH2016_e1","APH2016_e1_3",0,"fairly",16,1,"Backward",6,1000,"Exclude"
"APH2016_e1","APH2016_e1_3",0,"worker",17,0,"Backward",1,953,"Exclude"
"APH2016_e1","APH2016_e1_3",0,"truly",18,0,"Backward",1,1000,"Exclude"
"APH2016_e1","APH2016_e1_3",0,"collect",19,1,"Backward",6,938,"Exclude"
"APH2016_e1","APH2016_e1_3",0,"intend",20,1,"Backward",1,1875,"Exclude"
"APH2016_e1","APH2016_e1_3",0,"softly",21,0,"Backward",6,1000,"Exclude"
"APH2016_e1","APH2016_e1_3",0,"rocky",22,0,"Backward",1,859,"Exclude"
"APH2016_e1","APH2016_e1_3",0,"singer",23,1,"Backward",6,766,"Exclude"
"APH2016_e1","APH2016_e1_3",0,"scarcely",24,1,"Backward",6,1188,"Exclude"
"APH2016_e1","APH2016_e1_3",0,"dirty",25,1,"Backward",6,593,"Exclude"
"APH2016_e1","APH2016_e1_3",0,"mostly",26,0,"Backward",1,1110,"Exclude"
"APH2016_e1","APH2016_e1_3",0,"cheerful",27,1,"Backward",6,672,"Exclude"
"APH2016_e1","APH2016_e1_3",0,"wedding",28,0,"Backward",1,1297,"Exclude"
"APH2016_e1","APH2016_e1_3",0,"neglect",29,1,"Backward",6,1187,"Exclude"
"APH2016_e1","APH2016_e1_3",0,"purchase",30,0,"Backward",1,1437,"Exclude"
"APH2016_e1","APH2016_e1_3",0,"barely",31,0,"Backward",3,1766,"Exclude"
"APH2016_e1","APH2016_e1_3",0,"splendid",32,1,"Backward",6,1688,"Exclude"
"APH2016_e1","APH2016_e1_3",0,"commerce",33,0,"Backward",1,1078,"Exclude"
"APH2016_e1","APH2016_e1_3",0,"condemn",34,1,"Backward",6,671,"Exclude"
"APH2016_e1","APH2016_e1_3",0,"briefly",35,1,"Backward",6,656,"Exclude"
"APH2016_e1","APH2016_e1_3",0,"frighten",36,0,"Backward",1,891,"Exclude"
"APH2016_e1","APH2016_e1_3",0,"handsome",37,1,"Backward",6,812,"Exclude"
"APH2016_e1","APH2016_e1_3",0,"kingdom",38,0,"Backward",1,828,"Exclude"
"APH2016_e1","APH2016_e1_3",0,"exchange",39,0,"Backward",3,1843,"Exclude"
"APH2016_e1","APH2016_e1_3",0,"fiercely",40,1,"Backward",6,781,"Exclude"
"APH2016_e1","APH2016_e1_3",0,"column",41,1,"Backward",6,672,"Exclude"
"APH2016_e1","APH2016_e1_3",0,"youthful",42,1,"Backward",6,625,"Exclude"
"APH2016_e1","APH2016_e1_3",0,"shortly",43,0,"Backward",6,1046,"Exclude"
"APH2016_e1","APH2016_e1_3",0,"ashamed",44,0,"Backward",1,1031,"Exclude"
"APH2016_e1","APH2016_e1_3",0,"worship",45,1,"Backward",6,860,"Exclude"
"APH2016_e1","APH2016_e1_3",0,"highly",46,1,"Backward",6,703,"Exclude"
"APH2016_e1","APH2016_e1_3",0,"stocking",47,0,"Backward",1,735,"Exclude"
"APH2016_e1","APH2016_e1_3",0,"flourish",48,0,"Backward",1,1516,"Exclude"
"APH2016_e1","APH2016_e1_3",1,"blanket",1,1,"Backward",3,2547,"Include"
"APH2016_e1","APH2016_e1_3",1,"effort",2,1,"Backward",3,1812,"Include"
"APH2016_e1","APH2016_e1_3",1,"pillow",3,0,"Backward",3,860,"Include"
"APH2016_e1","APH2016_e1_3",1,"travel",4,0,"Backward",3,703,"Include"
"APH2016_e1","APH2016_e1_3",1,"finger",5,0,"Backward",3,656,"Include"
"APH2016_e1","APH2016_e1_3",1,"jersey",6,1,"Backward",4,2188,"Include"
"APH2016_e1","APH2016_e1_3",1,"comment",7,1,"Backward",4,750,"Include"
"APH2016_e1","APH2016_e1_3",1,"lecture",8,0,"Backward",3,860,"Include"
"APH2016_e1","APH2016_e1_3",1,"folly",9,1,"Backward",6,1250,"Include"
"APH2016_e1","APH2016_e1_3",1,"acid",10,0,"Backward",3,969,"Include"
"APH2016_e1","APH2016_e1_3",1,"fallen",11,1,"Backward",6,859,"Include"
"APH2016_e1","APH2016_e1_3",1,"derive",12,0,"Backward",3,890,"Include"
"APH2016_e1","APH2016_e1_3",1,"carriage",13,1,"Backward",6,734,"Include"
"APH2016_e1","APH2016_e1_3",1,"emerge",14,0,"Backward",6,1297,"Include"
"APH2016_e1","APH2016_e1_3",1,"erect",15,1,"Backward",6,703,"Include"
"APH2016_e1","APH2016_e1_3",1,"patient",16,0,"Backward",3,922,"Include"
"APH2016_e1","APH2016_e1_3",1,"inspire",17,0,"Backward",3,907,"Include"
"APH2016_e1","APH2016_e1_3",1,"spirit",18,1,"Backward",6,735,"Include"
"APH2016_e1","APH2016_e1_3",1,"model",19,1,"Backward",6,594,"Include"
"APH2016_e1","APH2016_e1_3",1,"barrel",20,0,"Backward",3,859,"Include"
"APH2016_e1","APH2016_e1_3",1,"forest",21,0,"Backward",3,1141,"Include"
"APH2016_e1","APH2016_e1_3",1,"compare",22,1,"Backward",6,532,"Include"
"APH2016_e1","APH2016_e1_3",1,"contain",23,0,"Backward",6,563,"Include"
"APH2016_e1","APH2016_e1_3",1,"native",24,1,"Backward",6,953,"Include"
"APH2016_e1","APH2016_e1_3",1,"bother",25,0,"Backward",3,890,"Include"
"APH2016_e1","APH2016_e1_3",1,"season",26,0,"Backward",3,969,"Include"
"APH2016_e1","APH2016_e1_3",1,"velvet",27,1,"Backward",6,844,"Include"
"APH2016_e1","APH2016_e1_3",1,"autumn",28,1,"Backward",6,641,"Include"
"APH2016_e1","APH2016_e1_3",1,"patience",29,0,"Backward",6,1141,"Include"
"APH2016_e1","APH2016_e1_3",1,"vital",30,1,"Backward",6,750,"Include"
"APH2016_e1","APH2016_e1_3",1,"station",31,0,"Backward",3,1016,"Include"
"APH2016_e1","APH2016_e1_3",1,"vanish",32,1,"Backward",3,1031,"Include"
"APH2016_e1","APH2016_e1_3",1,"timber",33,1,"Backward",6,562,"Include"
"APH2016_e1","APH2016_e1_3",1,"balance",34,1,"Backward",6,625,"Include"
"APH2016_e1","APH2016_e1_3",1,"disgust",35,0,"Backward",3,812,"Include"
"APH2016_e1","APH2016_e1_3",1,"induce",36,0,"Backward",3,781,"Include"
"APH2016_e1","APH2016_e1_3",1,"message",37,0,"Backward",6,1047,"Include"
"APH2016_e1","APH2016_e1_3",1,"career",38,0,"Backward",3,703,"Include"
"APH2016_e1","APH2016_e1_3",1,"honey",39,1,"Backward",6,890,"Include"
"APH2016_e1","APH2016_e1_3",1,"former",40,1,"Backward",6,969,"Include"
"APH2016_e1","APH2016_e1_3",1,"pony",41,1,"Backward",6,454,"Include"
"APH2016_e1","APH2016_e1_3",1,"arise",42,0,"Backward",2,3500,"Include"
"APH2016_e1","APH2016_e1_3",1,"echo",43,0,"Backward",1,1781,"Include"
"APH2016_e1","APH2016_e1_3",1,"sunset",44,1,"Backward",6,875,"Include"
"APH2016_e1","APH2016_e1_3",1,"genius",45,1,"Backward",6,812,"Include"
"APH2016_e1","APH2016_e1_3",1,"forehead",46,0,"Backward",1,1219,"Include"
"APH2016_e1","APH2016_e1_3",1,"sprinkle",47,0,"Backward",1,781,"Include"
"APH2016_e1","APH2016_e1_3",1,"palace",48,1,"Backward",6,843,"Include"
"APH2016_e1","APH2016_e1_3",2,"insult",1,0,"Backward",1,2094,"Include"
"APH2016_e1","APH2016_e1_3",2,"impress",2,1,"Backward",6,1000,"Include"
"APH2016_e1","APH2016_e1_3",2,"regret",3,0,"Backward",2,1547,"Include"
"APH2016_e1","APH2016_e1_3",2,"sacred",4,1,"Backward",6,812,"Include"
"APH2016_e1","APH2016_e1_3",2,"narrow",5,1,"Backward",6,1000,"Include"
"APH2016_e1","APH2016_e1_3",2,"decide",6,1,"Backward",6,968,"Include"
"APH2016_e1","APH2016_e1_3",2,"justice",7,0,"Backward",3,1547,"Include"
"APH2016_e1","APH2016_e1_3",2,"butcher",8,0,"Backward",1,1109,"Include"
"APH2016_e1","APH2016_e1_3",2,"absent",9,1,"Backward",6,781,"Include"
"APH2016_e1","APH2016_e1_3",2,"refuse",10,0,"Backward",3,1734,"Include"
"APH2016_e1","APH2016_e1_3",2,"soldier",11,1,"Backward",6,750,"Include"
"APH2016_e1","APH2016_e1_3",2,"pleasure",12,0,"Backward",3,1297,"Include"
"APH2016_e1","APH2016_e1_3",2,"empty",13,1,"Backward",6,625,"Include"
"APH2016_e1","APH2016_e1_3",2,"unto",14,0,"Backward",3,1219,"Include"
"APH2016_e1","APH2016_e1_3",2,"concert",15,0,"Backward",1,1000,"Include"
"APH2016_e1","APH2016_e1_3",2,"approve",16,1,"Backward",6,922,"Include"
"APH2016_e1","APH2016_e1_3",2,"beneath",17,1,"Backward",1,984,"Include"
"APH2016_e1","APH2016_e1_3",2,"advise",18,1,"Backward",6,641,"Include"
"APH2016_e1","APH2016_e1_3",2,"event",19,0,"Backward",3,1406,"Include"
"APH2016_e1","APH2016_e1_3",2,"prison",20,0,"Backward",3,734,"Include"
"APH2016_e1","APH2016_e1_3",2,"stable",21,1,"Backward",6,703,"Include"
"APH2016_e1","APH2016_e1_3",2,"climate",22,0,"Backward",3,781,"Include"
"APH2016_e1","APH2016_e1_3",2,"receipt",23,1,"Backward",6,890,"Include"
"APH2016_e1","APH2016_e1_3",2,"portion",24,0,"Backward",3,891,"Include"
"APH2016_e1","APH2016_e1_3",2,"rural",25,0,"Backward",3,1813,"Include"
"APH2016_e1","APH2016_e1_3",2,"chapel",26,1,"Backward",3,1109,"Include"
"APH2016_e1","APH2016_e1_3",2,"novel",27,1,"Backward",3,1187,"Include"
"APH2016_e1","APH2016_e1_3",2,"standard",28,0,"Backward",6,1547,"Include"
"APH2016_e1","APH2016_e1_3",2,"helmet",29,0,"Backward",3,890,"Include"
"APH2016_e1","APH2016_e1_3",2,"depart",30,1,"Backward",6,953,"Include"
"APH2016_e1","APH2016_e1_3",2,"prefer",31,1,"Backward",5,1750,"Include"
"APH2016_e1","APH2016_e1_3",2,"modest",32,0,"Backward",6,1656,"Include"
"APH2016_e1","APH2016_e1_3",2,"scholar",33,0,"Backward",2,1515,"Include"
"APH2016_e1","APH2016_e1_3",2,"robin",34,1,"Backward",6,1109,"Include"
"APH2016_e1","APH2016_e1_3",2,"shower",35,0,"Backward",2,1438,"Include"
"APH2016_e1","APH2016_e1_3",2,"island",36,1,"Backward",6,969,"Include"
"APH2016_e1","APH2016_e1_3",2,"sulphur",37,0,"Backward",1,2109,"Include"
"APH2016_e1","APH2016_e1_3",2,"murder",38,0,"Backward",1,1875,"Include"
"APH2016_e1","APH2016_e1_3",2,"temple",39,1,"Backward",6,1265,"Include"
"APH2016_e1","APH2016_e1_3",2,"notion",40,1,"Backward",2,1406,"Include"
"APH2016_e1","APH2016_e1_3",2,"cruel",41,0,"Backward",4,1328,"Include"
"APH2016_e1","APH2016_e1_3",2,"impulse",42,0,"Backward",4,1078,"Include"
"APH2016_e1","APH2016_e1_3",2,"extra",43,1,"Backward",6,984,"Include"
"APH2016_e1","APH2016_e1_3",2,"loyal",44,1,"Backward",6,656,"Include"
"APH2016_e1","APH2016_e1_3",2,"confuse",45,1,"Backward",6,672,"Include"
"APH2016_e1","APH2016_e1_3",2,"welfare",46,0,"Backward",3,781,"Include"
"APH2016_e1","APH2016_e1_3",2,"inform",47,0,"Backward",6,1296,"Include"
