"exp","id","block","item","trial","isold","condition1","rating","RT","excluding"
"CSR2015_e1","CSR2015_e1_1",1,"charity",1,0,"distractor",4,7910,"Include"
"CSR2015_e1","CSR2015_e1_1",1,"brief",2,0,"distractor",4,3730,"Include"
"CSR2015_e1","CSR2015_e1_1",1,"comfort",3,1,"R4",6,2009,"Include"
"CSR2015_e1","CSR2015_e1_1",1,"bread",4,0,"distractor",3,2070,"Include"
"CSR2015_e1","CSR2015_e1_1",1,"bell",5,1,"SS",6,897,"Include"
"CSR2015_e1","CSR2015_e1_1",1,"clay",6,0,"distractor",3,3084,"Include"
"CSR2015_e1","CSR2015_e1_1",1,"husband",7,0,"distractor",2,1997,"Include"
"CSR2015_e1","CSR2015_e1_1",1,"nickel",8,0,"distractor",2,1131,"Include"
"CSR2015_e1","CSR2015_e1_1",1,"silence",9,0,"distractor",3,2029,"Include"
"CSR2015_e1","CSR2015_e1_1",1,"atom",10,0,"distractor",3,2058,"Include"
"CSR2015_e1","CSR2015_e1_1",1,"mustard",11,1,"R1",3,2789,"Include"
"CSR2015_e1","CSR2015_e1_1",1,"wage",12,1,"R2",4,1474,"Include"
"CSR2015_e1","CSR2015_e1_1",1,"rear",13,0,"distractor",4,694,"Include"
"CSR2015_e1","CSR2015_e1_1",1,"assault",14,1,"R2",4,649,"Include"
"CSR2015_e1","CSR2015_e1_1",1,"voice",15,1,"R4",4,3486,"Include"
"CSR2015_e1","CSR2015_e1_1",1,"regret",16,0,"distractor",3,1422,"Include"
"CSR2015_e1","CSR2015_e1_1",1,"guess",17,1,"R2",4,1523,"Include"
"CSR2015_e1","CSR2015_e1_1",1,"mare",18,1,"R1",4,1093,"Include"
"CSR2015_e1","CSR2015_e1_1",1,"birth",19,1,"R2",3,680,"Include"
"CSR2015_e1","CSR2015_e1_1",1,"saloon",20,0,"distractor",3,1468,"Include"
"CSR2015_e1","CSR2015_e1_1",1,"pause",21,0,"distractor",3,3055,"Include"
"CSR2015_e1","CSR2015_e1_1",1,"loop",22,1,"R1",3,3377,"Include"
"CSR2015_e1","CSR2015_e1_1",1,"title",23,0,"distractor",4,1239,"Include"
"CSR2015_e1","CSR2015_e1_1",1,"hatred",24,0,"distractor",3,1236,"Include"
"CSR2015_e1","CSR2015_e1_1",1,"height",25,1,"R4",5,1472,"Include"
"CSR2015_e1","CSR2015_e1_1",1,"debate",26,1,"R2",5,1060,"Include"
"CSR2015_e1","CSR2015_e1_1",1,"reed",27,1,"R4",6,1688,"Include"
"CSR2015_e1","CSR2015_e1_1",1,"adult",28,1,"R2",4,4417,"Include"
"CSR2015_e1","CSR2015_e1_1",1,"fight",29,1,"R4",5,1261,"Include"
"CSR2015_e1","CSR2015_e1_1",1,"factor",30,1,"R2",3,1113,"Include"
"CSR2015_e1","CSR2015_e1_1",1,"member",31,1,"SS",6,907,"Include"
"CSR2015_e1","CSR2015_e1_1",1,"array",32,0,"distractor",3,2933,"Include"
"CSR2015_e1","CSR2015_e1_1",1,"revenue",33,0,"distractor",3,1468,"Include"
"CSR2015_e1","CSR2015_e1_1",1,"test",34,0,"distractor",4,1952,"Include"
"CSR2015_e1","CSR2015_e1_1",1,"tunnel",35,0,"distractor",3,1855,"Include"
"CSR2015_e1","CSR2015_e1_1",1,"battle",36,0,"distractor",3,1619,"Include"
"CSR2015_e1","CSR2015_e1_1",1,"board",37,1,"R4",4,2528,"Include"
"CSR2015_e1","CSR2015_e1_1",1,"crystal",38,0,"distractor",3,776,"Include"
"CSR2015_e1","CSR2015_e1_1",1,"haze",39,0,"distractor",4,984,"Include"
"CSR2015_e1","CSR2015_e1_1",1,"cent",40,0,"distractor",3,815,"Include"
"CSR2015_e1","CSR2015_e1_1",1,"star",41,1,"R4",4,2701,"Include"
"CSR2015_e1","CSR2015_e1_1",1,"teeth",42,1,"R1",4,2125,"Include"
"CSR2015_e1","CSR2015_e1_1",1,"drum",43,1,"R1",4,1798,"Include"
"CSR2015_e1","CSR2015_e1_1",1,"vehicle",44,1,"R1",3,3980,"Include"
"CSR2015_e1","CSR2015_e1_1",1,"risk",45,1,"R4",4,953,"Include"
"CSR2015_e1","CSR2015_e1_1",1,"race",46,1,"R4",4,2082,"Include"
"CSR2015_e1","CSR2015_e1_1",1,"pump",47,0,"distractor",3,636,"Include"
"CSR2015_e1","CSR2015_e1_1",1,"fury",48,0,"distractor",3,1378,"Include"
"CSR2015_e1","CSR2015_e1_1",1,"plant",49,1,"R2",4,1113,"Include"
"CSR2015_e1","CSR2015_e1_1",1,"oath",50,0,"distractor",3,2955,"Include"
"CSR2015_e1","CSR2015_e1_1",1,"clue",51,0,"distractor",5,2274,"Include"
"CSR2015_e1","CSR2015_e1_1",1,"gulf",52,0,"distractor",3,868,"Include"
"CSR2015_e1","CSR2015_e1_1",1,"shame",53,0,"distractor",3,1360,"Include"
"CSR2015_e1","CSR2015_e1_1",1,"text",54,1,"R1",4,760,"Include"
"CSR2015_e1","CSR2015_e1_1",1,"volume",55,1,"SS",4,633,"Include"
"CSR2015_e1","CSR2015_e1_1",1,"victim",56,0,"distractor",3,6926,"Include"
"CSR2015_e1","CSR2015_e1_1",1,"cable",57,1,"SS",6,818,"Include"
"CSR2015_e1","CSR2015_e1_1",1,"past",58,0,"distractor",4,2240,"Include"
"CSR2015_e1","CSR2015_e1_1",1,"ground",59,0,"distractor",4,1124,"Include"
"CSR2015_e1","CSR2015_e1_1",1,"lock",60,1,"R1",4,2069,"Include"
"CSR2015_e1","CSR2015_e1_1",1,"merit",61,1,"R1",3,864,"Include"
"CSR2015_e1","CSR2015_e1_1",1,"account",62,0,"distractor",3,2076,"Include"
"CSR2015_e1","CSR2015_e1_1",1,"council",63,1,"R2",3,1383,"Include"
"CSR2015_e1","CSR2015_e1_1",1,"agency",64,0,"distractor",3,1710,"Include"
"CSR2015_e1","CSR2015_e1_1",1,"brain",65,0,"distractor",4,3096,"Include"
"CSR2015_e1","CSR2015_e1_1",1,"walnut",66,0,"distractor",3,697,"Include"
"CSR2015_e1","CSR2015_e1_1",1,"liver",67,1,"R4",6,1516,"Include"
"CSR2015_e1","CSR2015_e1_1",1,"bubble",68,0,"distractor",3,3165,"Include"
"CSR2015_e1","CSR2015_e1_1",1,"revolt",69,0,"distractor",4,6139,"Include"
"CSR2015_e1","CSR2015_e1_1",1,"song",70,1,"SS",6,1008,"Include"
"CSR2015_e1","CSR2015_e1_1",1,"carpet",71,1,"R2",4,1974,"Include"
"CSR2015_e1","CSR2015_e1_1",1,"bloom",72,0,"distractor",3,1861,"Include"
"CSR2015_e1","CSR2015_e1_1",1,"alert",73,1,"R2",4,1128,"Include"
"CSR2015_e1","CSR2015_e1_1",1,"hunger",74,1,"R4",4,2010,"Include"
"CSR2015_e1","CSR2015_e1_1",1,"tobacco",75,0,"distractor",3,999,"Include"
"CSR2015_e1","CSR2015_e1_1",1,"cereal",76,1,"R2",6,1118,"Include"
"CSR2015_e1","CSR2015_e1_1",1,"attempt",77,1,"SS",6,2175,"Include"
"CSR2015_e1","CSR2015_e1_1",1,"page",78,1,"R1",4,1590,"Include"
"CSR2015_e1","CSR2015_e1_1",1,"native",79,0,"distractor",3,1124,"Include"
"CSR2015_e1","CSR2015_e1_1",1,"flask",80,0,"distractor",3,966,"Include"
"CSR2015_e1","CSR2015_e1_1",1,"lane",81,0,"distractor",3,1102,"Include"
"CSR2015_e1","CSR2015_e1_1",1,"waste",82,1,"R1",4,1248,"Include"
"CSR2015_e1","CSR2015_e1_1",1,"thread",83,1,"R1",4,829,"Include"
"CSR2015_e1","CSR2015_e1_1",1,"staff",84,1,"R4",4,890,"Include"
"CSR2015_e1","CSR2015_e1_1",2,"hunter",1,1,"SS",6,2097,"Include"
"CSR2015_e1","CSR2015_e1_1",2,"count",2,0,"distractor",4,3179,"Include"
"CSR2015_e1","CSR2015_e1_1",2,"sense",3,0,"distractor",4,1096,"Include"
"CSR2015_e1","CSR2015_e1_1",2,"vote",4,1,"R1",3,1243,"Include"
"CSR2015_e1","CSR2015_e1_1",2,"mosque",5,1,"R2",6,1496,"Include"
"CSR2015_e1","CSR2015_e1_1",2,"army",6,1,"R2",4,3675,"Include"
"CSR2015_e1","CSR2015_e1_1",2,"steak",7,1,"R4",6,1284,"Include"
"CSR2015_e1","CSR2015_e1_1",2,"victory",8,0,"distractor",5,1903,"Include"
"CSR2015_e1","CSR2015_e1_1",2,"cafe",9,1,"R4",5,1056,"Include"
"CSR2015_e1","CSR2015_e1_1",2,"slave",10,0,"distractor",4,1780,"Include"
"CSR2015_e1","CSR2015_e1_1",2,"mirror",11,0,"distractor",3,1851,"Include"
"CSR2015_e1","CSR2015_e1_1",2,"dentist",12,0,"distractor",3,943,"Include"
"CSR2015_e1","CSR2015_e1_1",2,"exhaust",13,0,"distractor",3,1000,"Include"
"CSR2015_e1","CSR2015_e1_1",2,"paper",14,1,"R1",4,1246,"Include"
"CSR2015_e1","CSR2015_e1_1",2,"chart",15,1,"R4",4,1435,"Include"
"CSR2015_e1","CSR2015_e1_1",2,"manner",16,0,"distractor",3,1136,"Include"
"CSR2015_e1","CSR2015_e1_1",2,"circle",17,0,"distractor",3,897,"Include"
"CSR2015_e1","CSR2015_e1_1",2,"coffee",18,0,"distractor",3,2700,"Include"
"CSR2015_e1","CSR2015_e1_1",2,"craft",19,1,"R2",5,1277,"Include"
"CSR2015_e1","CSR2015_e1_1",2,"flame",20,0,"distractor",3,1304,"Include"
"CSR2015_e1","CSR2015_e1_1",2,"colonel",21,0,"distractor",3,1042,"Include"
"CSR2015_e1","CSR2015_e1_1",2,"jury",22,1,"SS",6,951,"Include"
"CSR2015_e1","CSR2015_e1_1",2,"gang",23,0,"distractor",3,3008,"Include"
"CSR2015_e1","CSR2015_e1_1",2,"magic",24,1,"R4",4,1668,"Include"
"CSR2015_e1","CSR2015_e1_1",2,"chaos",25,0,"distractor",3,943,"Include"
"CSR2015_e1","CSR2015_e1_1",2,"remark",26,1,"R1",3,1720,"Include"
"CSR2015_e1","CSR2015_e1_1",2,"care",27,0,"distractor",3,1889,"Include"
"CSR2015_e1","CSR2015_e1_1",2,"root",28,0,"distractor",3,1731,"Include"
"CSR2015_e1","CSR2015_e1_1",2,"salad",29,1,"R1",3,924,"Include"
"CSR2015_e1","CSR2015_e1_1",2,"chin",30,0,"distractor",3,3286,"Include"
"CSR2015_e1","CSR2015_e1_1",2,"case",31,1,"R4",4,1007,"Include"
"CSR2015_e1","CSR2015_e1_1",2,"tower",32,1,"R1",4,1109,"Include"
"CSR2015_e1","CSR2015_e1_1",2,"dinner",33,1,"R4",5,1320,"Include"
"CSR2015_e1","CSR2015_e1_1",2,"lace",34,1,"R1",6,881,"Include"
"CSR2015_e1","CSR2015_e1_1",2,"margin",35,1,"R2",4,2013,"Include"
"CSR2015_e1","CSR2015_e1_1",2,"canon",36,1,"SS",6,1162,"Include"
"CSR2015_e1","CSR2015_e1_1",2,"porch",37,0,"distractor",4,2762,"Include"
"CSR2015_e1","CSR2015_e1_1",2,"journal",38,1,"R4",4,969,"Include"
"CSR2015_e1","CSR2015_e1_1",2,"brandy",39,1,"R2",5,1841,"Include"
"CSR2015_e1","CSR2015_e1_1",2,"barrel",40,0,"distractor",3,1253,"Include"
"CSR2015_e1","CSR2015_e1_1",2,"lotion",41,1,"R4",6,865,"Include"
"CSR2015_e1","CSR2015_e1_1",2,"student",42,0,"distractor",3,2365,"Include"
"CSR2015_e1","CSR2015_e1_1",2,"bump",43,0,"distractor",3,2764,"Include"
"CSR2015_e1","CSR2015_e1_1",2,"work",44,1,"R1",4,1755,"Include"
"CSR2015_e1","CSR2015_e1_1",2,"slit",45,1,"R1",5,1026,"Include"
"CSR2015_e1","CSR2015_e1_1",2,"order",46,1,"SS",6,952,"Include"
"CSR2015_e1","CSR2015_e1_1",2,"glass",47,0,"distractor",4,2000,"Include"
"CSR2015_e1","CSR2015_e1_1",2,"factory",48,1,"R1",3,1614,"Include"
"CSR2015_e1","CSR2015_e1_1",2,"sign",49,0,"distractor",3,1132,"Include"
"CSR2015_e1","CSR2015_e1_1",2,"space",50,0,"distractor",3,2893,"Include"
"CSR2015_e1","CSR2015_e1_1",2,"delight",51,1,"R2",5,1270,"Include"
"CSR2015_e1","CSR2015_e1_1",2,"respect",52,1,"R4",6,1234,"Include"
"CSR2015_e1","CSR2015_e1_1",2,"dynasty",53,0,"distractor",2,2415,"Include"
"CSR2015_e1","CSR2015_e1_1",2,"mansion",54,1,"R4",5,1276,"Include"
"CSR2015_e1","CSR2015_e1_1",2,"scholar",55,1,"R2",4,1703,"Include"
"CSR2015_e1","CSR2015_e1_1",2,"graph",56,0,"distractor",3,4305,"Include"
"CSR2015_e1","CSR2015_e1_1",2,"canoe",57,0,"distractor",3,1136,"Include"
"CSR2015_e1","CSR2015_e1_1",2,"bequest",58,0,"distractor",3,1057,"Include"
"CSR2015_e1","CSR2015_e1_1",2,"collar",59,1,"R1",5,1269,"Include"
"CSR2015_e1","CSR2015_e1_1",2,"station",60,0,"distractor",3,5360,"Include"
"CSR2015_e1","CSR2015_e1_1",2,"love",61,1,"SS",6,852,"Include"
"CSR2015_e1","CSR2015_e1_1",2,"society",62,0,"distractor",3,1008,"Include"
"CSR2015_e1","CSR2015_e1_1",2,"support",63,1,"R2",3,1895,"Include"
"CSR2015_e1","CSR2015_e1_1",2,"vacuum",64,1,"R2",3,2457,"Include"
"CSR2015_e1","CSR2015_e1_1",2,"dust",65,0,"distractor",3,2740,"Include"
"CSR2015_e1","CSR2015_e1_1",2,"poll",66,0,"distractor",3,2931,"Include"
"CSR2015_e1","CSR2015_e1_1",2,"expanse",67,1,"R1",2,1547,"Include"
"CSR2015_e1","CSR2015_e1_1",2,"evening",68,1,"SS",6,1020,"Include"
"CSR2015_e1","CSR2015_e1_1",2,"sunset",69,0,"distractor",3,1809,"Include"
"CSR2015_e1","CSR2015_e1_1",2,"fence",70,0,"distractor",4,1143,"Include"
"CSR2015_e1","CSR2015_e1_1",2,"opinion",71,0,"distractor",3,1208,"Include"
"CSR2015_e1","CSR2015_e1_1",2,"unit",72,1,"R4",4,1942,"Include"
"CSR2015_e1","CSR2015_e1_1",2,"cord",73,0,"distractor",3,1942,"Include"
"CSR2015_e1","CSR2015_e1_1",2,"stew",74,0,"distractor",4,1286,"Include"
"CSR2015_e1","CSR2015_e1_1",2,"protest",75,0,"distractor",3,785,"Include"
"CSR2015_e1","CSR2015_e1_1",2,"guest",76,0,"distractor",3,1520,"Include"
"CSR2015_e1","CSR2015_e1_1",2,"ditch",77,1,"R4",3,2017,"Include"
"CSR2015_e1","CSR2015_e1_1",2,"deck",78,1,"R2",4,1374,"Include"
"CSR2015_e1","CSR2015_e1_1",2,"desire",79,0,"distractor",3,805,"Include"
"CSR2015_e1","CSR2015_e1_1",2,"trolley",80,0,"distractor",3,1892,"Include"
"CSR2015_e1","CSR2015_e1_1",2,"peasant",81,1,"R2",5,1846,"Include"
"CSR2015_e1","CSR2015_e1_1",2,"satire",82,1,"R1",3,2234,"Include"
"CSR2015_e1","CSR2015_e1_1",2,"mile",83,0,"distractor",3,2542,"Include"
"CSR2015_e1","CSR2015_e1_1",2,"figure",84,1,"R2",4,4790,"Include"
"CSR2015_e1","CSR2015_e1_1",3,"proxy",1,0,"distractor",2,2804,"Include"
"CSR2015_e1","CSR2015_e1_1",3,"bridge",2,0,"distractor",3,2080,"Include"
"CSR2015_e1","CSR2015_e1_1",3,"supper",3,1,"R2",4,1675,"Include"
"CSR2015_e1","CSR2015_e1_1",3,"clock",4,1,"R4",5,966,"Include"
"CSR2015_e1","CSR2015_e1_1",3,"avenue",5,1,"R4",4,1598,"Include"
"CSR2015_e1","CSR2015_e1_1",3,"outfit",6,0,"distractor",3,1420,"Include"
"CSR2015_e1","CSR2015_e1_1",3,"drink",7,1,"R4",5,1122,"Include"
"CSR2015_e1","CSR2015_e1_1",3,"drama",8,1,"R4",4,2067,"Include"
"CSR2015_e1","CSR2015_e1_1",3,"wife",9,0,"distractor",3,1102,"Include"
"CSR2015_e1","CSR2015_e1_1",3,"hood",10,1,"R1",6,2208,"Include"
"CSR2015_e1","CSR2015_e1_1",3,"loss",11,1,"R4",4,1829,"Include"
"CSR2015_e1","CSR2015_e1_1",3,"robbery",12,1,"R1",4,1514,"Include"
"CSR2015_e1","CSR2015_e1_1",3,"balance",13,0,"distractor",3,1804,"Include"
"CSR2015_e1","CSR2015_e1_1",3,"veil",14,1,"R4",6,882,"Include"
"CSR2015_e1","CSR2015_e1_1",3,"theme",15,1,"R1",4,1965,"Include"
"CSR2015_e1","CSR2015_e1_1",3,"creator",16,1,"R4",4,1212,"Include"
"CSR2015_e1","CSR2015_e1_1",3,"apple",17,0,"distractor",3,699,"Include"
"CSR2015_e1","CSR2015_e1_1",3,"minute",18,0,"distractor",3,1933,"Include"
"CSR2015_e1","CSR2015_e1_1",3,"deposit",19,0,"distractor",4,957,"Include"
"CSR2015_e1","CSR2015_e1_1",3,"doll",20,0,"distractor",3,2054,"Include"
"CSR2015_e1","CSR2015_e1_1",3,"clover",21,0,"distractor",4,1985,"Include"
"CSR2015_e1","CSR2015_e1_1",3,"candy",22,1,"R1",3,943,"Include"
"CSR2015_e1","CSR2015_e1_1",3,"painter",23,1,"R4",6,872,"Include"
"CSR2015_e1","CSR2015_e1_1",3,"shock",24,0,"distractor",4,1428,"Include"
"CSR2015_e1","CSR2015_e1_1",3,"drill",25,0,"distractor",3,1129,"Include"
"CSR2015_e1","CSR2015_e1_1",3,"reason",26,0,"distractor",3,2475,"Include"
"CSR2015_e1","CSR2015_e1_1",3,"well",27,0,"distractor",3,2597,"Include"
"CSR2015_e1","CSR2015_e1_1",3,"shore",28,1,"SS",6,859,"Include"
"CSR2015_e1","CSR2015_e1_1",3,"tragedy",29,0,"distractor",2,1735,"Include"
"CSR2015_e1","CSR2015_e1_1",3,"number",30,0,"distractor",2,1040,"Include"
"CSR2015_e1","CSR2015_e1_1",3,"issue",31,1,"SS",6,1029,"Include"
"CSR2015_e1","CSR2015_e1_1",3,"strand",32,0,"distractor",4,3626,"Include"
"CSR2015_e1","CSR2015_e1_1",3,"autumn",33,1,"R4",5,1061,"Include"
"CSR2015_e1","CSR2015_e1_1",3,"burden",34,0,"distractor",3,1418,"Include"
"CSR2015_e1","CSR2015_e1_1",3,"news",35,0,"distractor",3,1295,"Include"
"CSR2015_e1","CSR2015_e1_1",3,"ferry",36,0,"distractor",4,2250,"Include"
"CSR2015_e1","CSR2015_e1_1",3,"fort",37,1,"R2",4,2861,"Include"
"CSR2015_e1","CSR2015_e1_1",3,"defeat",38,1,"R2",3,1735,"Include"
"CSR2015_e1","CSR2015_e1_1",3,"pine",39,1,"R4",4,2623,"Include"
"CSR2015_e1","CSR2015_e1_1",3,"shovel",40,1,"R1",3,2627,"Include"
"CSR2015_e1","CSR2015_e1_1",3,"repair",41,0,"distractor",3,1191,"Include"
"CSR2015_e1","CSR2015_e1_1",3,"yard",42,0,"distractor",3,2134,"Include"
"CSR2015_e1","CSR2015_e1_1",3,"theory",43,0,"distractor",3,2126,"Include"
"CSR2015_e1","CSR2015_e1_1",3,"lighter",44,0,"distractor",3,1447,"Include"
"CSR2015_e1","CSR2015_e1_1",3,"charter",45,1,"R1",3,1691,"Include"
"CSR2015_e1","CSR2015_e1_1",3,"vein",46,1,"R4",6,918,"Include"
"CSR2015_e1","CSR2015_e1_1",3,"furnace",47,1,"R4",4,911,"Include"
"CSR2015_e1","CSR2015_e1_1",3,"road",48,1,"R2",4,3482,"Include"
"CSR2015_e1","CSR2015_e1_1",3,"insect",49,0,"distractor",3,1355,"Include"
"CSR2015_e1","CSR2015_e1_1",3,"fair",50,1,"R2",4,1107,"Include"
"CSR2015_e1","CSR2015_e1_1",3,"winter",51,1,"R1",5,2261,"Include"
"CSR2015_e1","CSR2015_e1_1",3,"welfare",52,0,"distractor",3,905,"Include"
"CSR2015_e1","CSR2015_e1_1",3,"poetry",53,0,"distractor",5,1139,"Include"
"CSR2015_e1","CSR2015_e1_1",3,"wing",54,0,"distractor",3,964,"Include"
"CSR2015_e1","CSR2015_e1_1",3,"scent",55,0,"distractor",4,1788,"Include"
"CSR2015_e1","CSR2015_e1_1",3,"cream",56,0,"distractor",3,755,"Include"
"CSR2015_e1","CSR2015_e1_1",3,"island",57,1,"R2",6,1171,"Include"
"CSR2015_e1","CSR2015_e1_1",3,"wheel",58,1,"SS",6,899,"Include"
"CSR2015_e1","CSR2015_e1_1",3,"command",59,1,"R2",5,1629,"Include"
"CSR2015_e1","CSR2015_e1_1",3,"matter",60,0,"distractor",3,970,"Include"
"CSR2015_e1","CSR2015_e1_1",3,"self",61,1,"R1",4,1010,"Include"
"CSR2015_e1","CSR2015_e1_1",3,"wood",62,0,"distractor",4,3016,"Include"
"CSR2015_e1","CSR2015_e1_1",3,"bullet",63,1,"R2",3,1228,"Include"
"CSR2015_e1","CSR2015_e1_1",3,"poverty",64,1,"R2",5,1210,"Include"
"CSR2015_e1","CSR2015_e1_1",3,"spirit",65,1,"R1",4,2520,"Include"
"CSR2015_e1","CSR2015_e1_1",3,"rating",66,1,"SS",6,2577,"Include"
"CSR2015_e1","CSR2015_e1_1",3,"hymn",67,1,"R1",3,2583,"Include"
"CSR2015_e1","CSR2015_e1_1",3,"sewer",68,0,"distractor",3,3468,"Include"
"CSR2015_e1","CSR2015_e1_1",3,"bucket",69,0,"distractor",4,1678,"Include"
"CSR2015_e1","CSR2015_e1_1",3,"honey",70,0,"distractor",3,841,"Include"
"CSR2015_e1","CSR2015_e1_1",3,"inquiry",71,1,"R2",6,1079,"Include"
"CSR2015_e1","CSR2015_e1_1",3,"piping",72,1,"R1",5,1226,"Include"
"CSR2015_e1","CSR2015_e1_1",3,"poison",73,1,"SS",6,1080,"Include"
"CSR2015_e1","CSR2015_e1_1",3,"uniform",74,0,"distractor",3,1211,"Include"
"CSR2015_e1","CSR2015_e1_1",3,"money",75,1,"R2",4,1178,"Include"
"CSR2015_e1","CSR2015_e1_1",3,"coil",76,0,"distractor",3,2649,"Include"
"CSR2015_e1","CSR2015_e1_1",3,"anxiety",77,0,"distractor",3,1085,"Include"
"CSR2015_e1","CSR2015_e1_1",3,"death",78,1,"R1",5,1199,"Include"
"CSR2015_e1","CSR2015_e1_1",3,"rubber",79,0,"distractor",4,1086,"Include"
"CSR2015_e1","CSR2015_e1_1",3,"sofa",80,1,"R2",3,2465,"Include"
"CSR2015_e1","CSR2015_e1_1",3,"myth",81,0,"distractor",5,1308,"Include"
"CSR2015_e1","CSR2015_e1_1",3,"thinker",82,0,"distractor",3,1078,"Include"
"CSR2015_e1","CSR2015_e1_1",3,"frost",83,0,"distractor",3,1641,"Include"
"CSR2015_e1","CSR2015_e1_1",3,"globe",84,1,"SS",6,902,"Include"
"CSR2015_e1","CSR2015_e1_1",4,"hate",1,0,"distractor",3,2649,"Include"
"CSR2015_e1","CSR2015_e1_1",4,"system",2,0,"distractor",3,2172,"Include"
"CSR2015_e1","CSR2015_e1_1",4,"flesh",3,0,"distractor",3,2387,"Include"
"CSR2015_e1","CSR2015_e1_1",4,"candle",4,1,"R2",4,960,"Include"
"CSR2015_e1","CSR2015_e1_1",4,"period",5,1,"SS",6,905,"Include"
"CSR2015_e1","CSR2015_e1_1",4,"type",6,0,"distractor",4,1635,"Include"
"CSR2015_e1","CSR2015_e1_1",4,"badge",7,1,"R4",5,1376,"Include"
"CSR2015_e1","CSR2015_e1_1",4,"neutral",8,0,"distractor",3,1175,"Include"
"CSR2015_e1","CSR2015_e1_1",4,"zenith",9,1,"R2",6,1063,"Include"
"CSR2015_e1","CSR2015_e1_1",4,"spire",10,1,"R2",6,747,"Include"
"CSR2015_e1","CSR2015_e1_1",4,"result",11,0,"distractor",4,1404,"Include"
"CSR2015_e1","CSR2015_e1_1",4,"meadow",12,1,"SS",6,962,"Include"
"CSR2015_e1","CSR2015_e1_1",4,"dough",13,1,"R1",4,1210,"Include"
"CSR2015_e1","CSR2015_e1_1",4,"turmoil",14,0,"distractor",3,745,"Include"
"CSR2015_e1","CSR2015_e1_1",4,"college",15,0,"distractor",3,1018,"Include"
"CSR2015_e1","CSR2015_e1_1",4,"pastor",16,1,"R2",5,1008,"Include"
"CSR2015_e1","CSR2015_e1_1",4,"method",17,0,"distractor",3,1238,"Include"
"CSR2015_e1","CSR2015_e1_1",4,"soldier",18,0,"distractor",5,1699,"Include"
"CSR2015_e1","CSR2015_e1_1",4,"butter",19,0,"distractor",3,1852,"Include"
"CSR2015_e1","CSR2015_e1_1",4,"laugh",20,0,"distractor",3,2192,"Include"
"CSR2015_e1","CSR2015_e1_1",4,"grove",21,1,"R2",5,998,"Include"
"CSR2015_e1","CSR2015_e1_1",4,"supply",22,1,"R4",5,1277,"Include"
"CSR2015_e1","CSR2015_e1_1",4,"jockey",23,0,"distractor",3,1816,"Include"
"CSR2015_e1","CSR2015_e1_1",4,"gallery",24,0,"distractor",3,1645,"Include"
"CSR2015_e1","CSR2015_e1_1",4,"courage",25,1,"SS",6,954,"Include"
"CSR2015_e1","CSR2015_e1_1",4,"talent",26,1,"R1",4,1762,"Include"
"CSR2015_e1","CSR2015_e1_1",4,"oxygen",27,0,"distractor",3,1097,"Include"
"CSR2015_e1","CSR2015_e1_1",4,"powder",28,0,"distractor",3,2604,"Include"
"CSR2015_e1","CSR2015_e1_1",4,"family",29,0,"distractor",4,1553,"Include"
"CSR2015_e1","CSR2015_e1_1",4,"career",30,1,"R1",4,3344,"Include"
"CSR2015_e1","CSR2015_e1_1",4,"highway",31,0,"distractor",3,1879,"Include"
"CSR2015_e1","CSR2015_e1_1",4,"shelter",32,1,"R2",5,1066,"Include"
"CSR2015_e1","CSR2015_e1_1",4,"sword",33,1,"R1",4,2062,"Include"
"CSR2015_e1","CSR2015_e1_1",4,"wind",34,1,"R4",4,841,"Include"
"CSR2015_e1","CSR2015_e1_1",4,"pile",35,1,"R4",4,1190,"Include"
"CSR2015_e1","CSR2015_e1_1",4,"cabin",36,0,"distractor",4,1573,"Include"
"CSR2015_e1","CSR2015_e1_1",4,"waist",37,0,"distractor",3,3332,"Include"
"CSR2015_e1","CSR2015_e1_1",4,"locker",38,0,"distractor",4,1148,"Include"
"CSR2015_e1","CSR2015_e1_1",4,"rocket",39,1,"R4",5,1308,"Include"
"CSR2015_e1","CSR2015_e1_1",4,"beast",40,0,"distractor",3,2279,"Include"
"CSR2015_e1","CSR2015_e1_1",4,"pianist",41,1,"SS",6,969,"Include"
"CSR2015_e1","CSR2015_e1_1",4,"passage",42,0,"distractor",3,2273,"Include"
"CSR2015_e1","CSR2015_e1_1",4,"tube",43,1,"R1",3,2707,"Include"
"CSR2015_e1","CSR2015_e1_1",4,"ankle",44,1,"R4",3,1796,"Include"
"CSR2015_e1","CSR2015_e1_1",4,"lunch",45,1,"R4",5,954,"Include"
"CSR2015_e1","CSR2015_e1_1",4,"trumpet",46,0,"distractor",3,5027,"Include"
"CSR2015_e1","CSR2015_e1_1",4,"cast",47,1,"R2",4,1493,"Include"
"CSR2015_e1","CSR2015_e1_1",4,"disc",48,0,"distractor",3,1399,"Include"
"CSR2015_e1","CSR2015_e1_1",4,"rail",49,0,"distractor",4,1213,"Include"
"CSR2015_e1","CSR2015_e1_1",4,"servant",50,1,"R4",5,1227,"Include"
"CSR2015_e1","CSR2015_e1_1",4,"cell",51,1,"R1",4,1977,"Include"
"CSR2015_e1","CSR2015_e1_1",4,"speech",52,0,"distractor",4,2072,"Include"
"CSR2015_e1","CSR2015_e1_1",4,"slip",53,0,"distractor",3,1378,"Include"
"CSR2015_e1","CSR2015_e1_1",4,"arch",54,0,"distractor",3,1370,"Include"
"CSR2015_e1","CSR2015_e1_1",4,"soul",55,1,"R1",6,1249,"Include"
"CSR2015_e1","CSR2015_e1_1",4,"vinegar",56,0,"distractor",3,4013,"Include"
"CSR2015_e1","CSR2015_e1_1",4,"river",57,1,"R1",4,1368,"Include"
"CSR2015_e1","CSR2015_e1_1",4,"harness",58,0,"distractor",3,880,"Include"
"CSR2015_e1","CSR2015_e1_1",4,"mist",59,1,"R4",4,1116,"Include"
"CSR2015_e1","CSR2015_e1_1",4,"racket",60,1,"R2",4,1805,"Include"
"CSR2015_e1","CSR2015_e1_1",4,"cabinet",61,0,"distractor",3,1731,"Include"
"CSR2015_e1","CSR2015_e1_1",4,"beach",62,0,"distractor",3,2444,"Include"
"CSR2015_e1","CSR2015_e1_1",4,"spade",63,0,"distractor",3,1415,"Include"
"CSR2015_e1","CSR2015_e1_1",4,"lamp",64,0,"distractor",4,2573,"Include"
"CSR2015_e1","CSR2015_e1_1",4,"trunk",65,0,"distractor",4,1251,"Include"
"CSR2015_e1","CSR2015_e1_1",4,"mantle",66,1,"R1",3,1087,"Include"
"CSR2015_e1","CSR2015_e1_1",4,"plot",67,0,"distractor",3,2178,"Include"
"CSR2015_e1","CSR2015_e1_1",4,"fabric",68,1,"R4",5,985,"Include"
"CSR2015_e1","CSR2015_e1_1",4,"salary",69,1,"SS",6,928,"Include"
"CSR2015_e1","CSR2015_e1_1",4,"panic",70,0,"distractor",3,1337,"Include"
"CSR2015_e1","CSR2015_e1_1",4,"circus",71,1,"R1",3,3154,"Include"
"CSR2015_e1","CSR2015_e1_1",4,"coffin",72,0,"distractor",3,1440,"Include"
"CSR2015_e1","CSR2015_e1_1",4,"phrase",73,1,"R1",2,1653,"Include"
"CSR2015_e1","CSR2015_e1_1",4,"booth",74,1,"R2",5,1265,"Include"
"CSR2015_e1","CSR2015_e1_1",4,"tourist",75,0,"distractor",3,3197,"Include"
"CSR2015_e1","CSR2015_e1_1",4,"opium",76,1,"R2",6,890,"Include"
"CSR2015_e1","CSR2015_e1_1",4,"shot",77,1,"R2",4,1685,"Include"
"CSR2015_e1","CSR2015_e1_1",4,"profile",78,1,"R4",3,2543,"Include"
"CSR2015_e1","CSR2015_e1_1",4,"motive",79,1,"R1",4,1639,"Include"
"CSR2015_e1","CSR2015_e1_1",4,"pool",80,1,"R4",6,851,"Include"
"CSR2015_e1","CSR2015_e1_1",4,"sunburn",81,0,"distractor",2,1776,"Include"
"CSR2015_e1","CSR2015_e1_1",4,"effort",82,0,"distractor",3,2167,"Include"
"CSR2015_e1","CSR2015_e1_1",4,"cane",83,1,"R2",4,1453,"Include"
"CSR2015_e1","CSR2015_e1_1",4,"story",84,1,"SS",6,1008,"Include"
"CSR2015_e1","CSR2015_e1_1",5,"outcome",1,0,"distractor",3,5721,"Include"
"CSR2015_e1","CSR2015_e1_1",5,"company",2,0,"distractor",3,2430,"Include"
"CSR2015_e1","CSR2015_e1_1",5,"blood",3,1,"R2",5,1530,"Include"
"CSR2015_e1","CSR2015_e1_1",5,"mutton",4,1,"R4",6,923,"Include"
"CSR2015_e1","CSR2015_e1_1",5,"effect",5,0,"distractor",4,1573,"Include"
"CSR2015_e1","CSR2015_e1_1",5,"grass",6,1,"SS",6,900,"Include"
"CSR2015_e1","CSR2015_e1_1",5,"book",7,1,"SS",6,767,"Include"
"CSR2015_e1","CSR2015_e1_1",5,"officer",8,0,"distractor",3,2175,"Include"
"CSR2015_e1","CSR2015_e1_1",5,"economy",9,0,"distractor",2,2325,"Include"
"CSR2015_e1","CSR2015_e1_1",5,"excuse",10,1,"SS",6,998,"Include"
"CSR2015_e1","CSR2015_e1_1",5,"suite",11,1,"R1",4,1389,"Include"
"CSR2015_e1","CSR2015_e1_1",5,"sole",12,1,"R1",4,2435,"Include"
"CSR2015_e1","CSR2015_e1_1",5,"artist",13,1,"R2",4,2063,"Include"
"CSR2015_e1","CSR2015_e1_1",5,"rate",14,1,"R4",5,1130,"Include"
"CSR2015_e1","CSR2015_e1_1",5,"piano",15,0,"distractor",3,1740,"Include"
"CSR2015_e1","CSR2015_e1_1",5,"writing",16,1,"R2",4,1348,"Include"
"CSR2015_e1","CSR2015_e1_1",5,"worker",17,1,"R2",6,1916,"Include"
"CSR2015_e1","CSR2015_e1_1",5,"essay",18,0,"distractor",3,1534,"Include"
"CSR2015_e1","CSR2015_e1_1",5,"swamp",19,0,"distractor",3,4366,"Include"
"CSR2015_e1","CSR2015_e1_1",5,"pony",20,0,"distractor",3,1979,"Include"
"CSR2015_e1","CSR2015_e1_1",5,"harvest",21,0,"distractor",3,2682,"Include"
"CSR2015_e1","CSR2015_e1_1",5,"goal",22,0,"distractor",4,1084,"Include"
"CSR2015_e1","CSR2015_e1_1",5,"benefit",23,0,"distractor",3,1551,"Include"
"CSR2015_e1","CSR2015_e1_1",5,"uncle",24,0,"distractor",3,1407,"Include"
"CSR2015_e1","CSR2015_e1_1",5,"joke",25,0,"distractor",3,1141,"Include"
"CSR2015_e1","CSR2015_e1_1",5,"gift",26,0,"distractor",4,1894,"Include"
"CSR2015_e1","CSR2015_e1_1",5,"lion",27,1,"SS",6,1032,"Include"
"CSR2015_e1","CSR2015_e1_1",5,"needle",28,0,"distractor",3,3517,"Include"
"CSR2015_e1","CSR2015_e1_1",5,"parish",29,1,"R2",4,1645,"Include"
"CSR2015_e1","CSR2015_e1_1",5,"apron",30,0,"distractor",4,1449,"Include"
"CSR2015_e1","CSR2015_e1_1",5,"porter",31,1,"R4",5,1709,"Include"
"CSR2015_e1","CSR2015_e1_1",5,"plane",32,0,"distractor",3,2999,"Include"
"CSR2015_e1","CSR2015_e1_1",5,"jungle",33,0,"distractor",3,1260,"Include"
"CSR2015_e1","CSR2015_e1_1",5,"bomb",34,0,"distractor",3,4824,"Include"
"CSR2015_e1","CSR2015_e1_1",5,"side",35,1,"R1",4,1570,"Include"
"CSR2015_e1","CSR2015_e1_1",5,"emotion",36,1,"R1",3,2481,"Include"
"CSR2015_e1","CSR2015_e1_1",5,"film",37,1,"R2",3,1404,"Include"
"CSR2015_e1","CSR2015_e1_1",5,"cloud",38,0,"distractor",3,1570,"Include"
"CSR2015_e1","CSR2015_e1_1",5,"despair",39,1,"R1",3,3425,"Include"
"CSR2015_e1","CSR2015_e1_1",5,"bowl",40,0,"distractor",3,2308,"Include"
"CSR2015_e1","CSR2015_e1_1",5,"timber",41,0,"distractor",4,1700,"Include"
"CSR2015_e1","CSR2015_e1_1",5,"garment",42,0,"distractor",4,1246,"Include"
"CSR2015_e1","CSR2015_e1_1",5,"thief",43,0,"distractor",3,1115,"Include"
"CSR2015_e1","CSR2015_e1_1",5,"analogy",44,0,"distractor",3,2060,"Include"
"CSR2015_e1","CSR2015_e1_1",5,"oven",45,1,"R1",3,1816,"Include"
"CSR2015_e1","CSR2015_e1_1",5,"item",46,1,"R2",3,4173,"Include"
"CSR2015_e1","CSR2015_e1_1",5,"growth",47,1,"R1",4,1281,"Include"
"CSR2015_e1","CSR2015_e1_1",5,"boat",48,0,"distractor",3,2156,"Include"
"CSR2015_e1","CSR2015_e1_1",5,"tire",49,0,"distractor",3,2547,"Include"
"CSR2015_e1","CSR2015_e1_1",5,"lemon",50,1,"R4",3,2907,"Include"
"CSR2015_e1","CSR2015_e1_1",5,"doctor",51,1,"R4",3,2531,"Include"
"CSR2015_e1","CSR2015_e1_1",5,"article",52,0,"distractor",4,2748,"Include"
"CSR2015_e1","CSR2015_e1_1",5,"safety",53,0,"distractor",3,1643,"Include"
"CSR2015_e1","CSR2015_e1_1",5,"belt",54,1,"R2",4,2536,"Include"
"CSR2015_e1","CSR2015_e1_1",5,"elbow",55,1,"SS",6,1055,"Include"
"CSR2015_e1","CSR2015_e1_1",5,"coal",56,0,"distractor",4,2915,"Include"
"CSR2015_e1","CSR2015_e1_1",5,"wound",57,1,"R2",3,1052,"Include"
"CSR2015_e1","CSR2015_e1_1",5,"nerve",58,1,"R4",3,1664,"Include"
"CSR2015_e1","CSR2015_e1_1",5,"scheme",59,0,"distractor",4,1388,"Include"
"CSR2015_e1","CSR2015_e1_1",5,"tray",60,1,"R2",4,5859,"Include"
"CSR2015_e1","CSR2015_e1_1",5,"retreat",61,1,"R1",4,2402,"Include"
"CSR2015_e1","CSR2015_e1_1",5,"pride",62,1,"R4",3,5215,"Include"
"CSR2015_e1","CSR2015_e1_1",5,"tribute",63,0,"distractor",3,986,"Include"
"CSR2015_e1","CSR2015_e1_1",5,"laundry",64,0,"distractor",3,2529,"Include"
"CSR2015_e1","CSR2015_e1_1",5,"savage",65,1,"R1",4,2505,"Include"
"CSR2015_e1","CSR2015_e1_1",5,"impulse",66,1,"R2",4,1522,"Include"
"CSR2015_e1","CSR2015_e1_1",5,"child",67,1,"SS",6,979,"Include"
"CSR2015_e1","CSR2015_e1_1",5,"cellar",68,1,"R1",4,1819,"Include"
"CSR2015_e1","CSR2015_e1_1",5,"content",69,1,"R4",3,928,"Include"
"CSR2015_e1","CSR2015_e1_1",5,"jail",70,0,"distractor",3,2058,"Include"
"CSR2015_e1","CSR2015_e1_1",5,"sheep",71,1,"R4",4,1045,"Include"
"CSR2015_e1","CSR2015_e1_1",5,"tank",72,0,"distractor",3,2762,"Include"
"CSR2015_e1","CSR2015_e1_1",5,"nursery",73,1,"R4",4,4057,"Include"
"CSR2015_e1","CSR2015_e1_1",5,"capsule",74,0,"distractor",3,962,"Include"
"CSR2015_e1","CSR2015_e1_1",5,"night",75,1,"R1",5,1770,"Include"
"CSR2015_e1","CSR2015_e1_1",5,"tide",76,0,"distractor",4,2817,"Include"
"CSR2015_e1","CSR2015_e1_1",5,"mail",77,1,"R4",3,1197,"Include"
"CSR2015_e1","CSR2015_e1_1",5,"miracle",78,1,"R4",4,2060,"Include"
"CSR2015_e1","CSR2015_e1_1",5,"pair",79,0,"distractor",4,1960,"Include"
"CSR2015_e1","CSR2015_e1_1",5,"truce",80,1,"R1",3,1127,"Include"
"CSR2015_e1","CSR2015_e1_1",5,"band",81,0,"distractor",3,1065,"Include"
"CSR2015_e1","CSR2015_e1_1",5,"cake",82,0,"distractor",3,1277,"Include"
"CSR2015_e1","CSR2015_e1_1",5,"sponge",83,0,"distractor",3,2280,"Include"
"CSR2015_e1","CSR2015_e1_1",5,"shell",84,1,"R2",4,1611,"Include"
"CSR2015_e1","CSR2015_e1_1",6,"kiss",1,1,"SS",6,2427,"Include"
"CSR2015_e1","CSR2015_e1_1",6,"flock",2,1,"R1",5,2342,"Include"
"CSR2015_e1","CSR2015_e1_1",6,"meeting",3,0,"distractor",4,3110,"Include"
"CSR2015_e1","CSR2015_e1_1",6,"visitor",4,1,"R1",4,1574,"Include"
"CSR2015_e1","CSR2015_e1_1",6,"piece",5,0,"distractor",3,2517,"Include"
"CSR2015_e1","CSR2015_e1_1",6,"muzzle",6,0,"distractor",2,1517,"Include"
"CSR2015_e1","CSR2015_e1_1",6,"suit",7,1,"R4",6,1023,"Include"
"CSR2015_e1","CSR2015_e1_1",6,"town",8,0,"distractor",3,1956,"Include"
"CSR2015_e1","CSR2015_e1_1",6,"length",9,0,"distractor",3,2084,"Include"
"CSR2015_e1","CSR2015_e1_1",6,"prison",10,1,"R1",4,1630,"Include"
"CSR2015_e1","CSR2015_e1_1",6,"track",11,1,"R1",3,1931,"Include"
"CSR2015_e1","CSR2015_e1_1",6,"brick",12,0,"distractor",3,2524,"Include"
"CSR2015_e1","CSR2015_e1_1",6,"flood",13,0,"distractor",4,948,"Include"
"CSR2015_e1","CSR2015_e1_1",6,"envy",14,0,"distractor",4,3708,"Include"
"CSR2015_e1","CSR2015_e1_1",6,"witness",15,1,"R4",5,1556,"Include"
"CSR2015_e1","CSR2015_e1_1",6,"blanket",16,0,"distractor",4,2100,"Include"
"CSR2015_e1","CSR2015_e1_1",6,"planet",17,1,"R2",6,1085,"Include"
"CSR2015_e1","CSR2015_e1_1",6,"design",18,1,"R4",6,928,"Include"
"CSR2015_e1","CSR2015_e1_1",6,"maze",19,0,"distractor",3,3418,"Include"
"CSR2015_e1","CSR2015_e1_1",6,"trial",20,1,"R4",6,1389,"Include"
"CSR2015_e1","CSR2015_e1_1",6,"surplus",21,1,"R4",4,2916,"Include"
"CSR2015_e1","CSR2015_e1_1",6,"beer",22,0,"distractor",3,1836,"Include"
"CSR2015_e1","CSR2015_e1_1",6,"country",23,0,"distractor",3,2289,"Include"
"CSR2015_e1","CSR2015_e1_1",6,"budget",24,1,"R2",4,2818,"Include"
"CSR2015_e1","CSR2015_e1_1",6,"agony",25,0,"distractor",4,1838,"Include"
"CSR2015_e1","CSR2015_e1_1",6,"gravity",26,1,"R1",5,2499,"Include"
"CSR2015_e1","CSR2015_e1_1",6,"port",27,0,"distractor",3,3692,"Include"
"CSR2015_e1","CSR2015_e1_1",6,"tool",28,0,"distractor",3,1253,"Include"
"CSR2015_e1","CSR2015_e1_1",6,"moss",29,0,"distractor",3,2145,"Include"
"CSR2015_e1","CSR2015_e1_1",6,"colony",30,0,"distractor",3,1529,"Include"
"CSR2015_e1","CSR2015_e1_1",6,"wrath",31,1,"SS",6,1146,"Include"
"CSR2015_e1","CSR2015_e1_1",6,"stable",32,1,"R1",4,1755,"Include"
"CSR2015_e1","CSR2015_e1_1",6,"cave",33,0,"distractor",3,2947,"Include"
"CSR2015_e1","CSR2015_e1_1",6,"fashion",34,0,"distractor",2,2522,"Include"
"CSR2015_e1","CSR2015_e1_1",6,"bolt",35,1,"R4",6,1010,"Include"
"CSR2015_e1","CSR2015_e1_1",6,"sleeve",36,1,"R2",4,1832,"Include"
"CSR2015_e1","CSR2015_e1_1",6,"purpose",37,1,"R1",3,2381,"Include"
"CSR2015_e1","CSR2015_e1_1",6,"mileage",38,1,"SS",6,956,"Include"
"CSR2015_e1","CSR2015_e1_1",6,"prelude",39,1,"R1",6,1028,"Include"
"CSR2015_e1","CSR2015_e1_1",6,"butcher",40,1,"R2",6,858,"Include"
"CSR2015_e1","CSR2015_e1_1",6,"wish",41,1,"SS",6,854,"Include"
"CSR2015_e1","CSR2015_e1_1",6,"gravel",42,0,"distractor",3,4851,"Include"
"CSR2015_e1","CSR2015_e1_1",6,"warrior",43,0,"distractor",3,1788,"Include"
"CSR2015_e1","CSR2015_e1_1",6,"debt",44,1,"R1",3,1810,"Include"
"CSR2015_e1","CSR2015_e1_1",6,"triumph",45,0,"distractor",2,1496,"Include"
"CSR2015_e1","CSR2015_e1_1",6,"house",46,1,"R1",3,1770,"Include"
"CSR2015_e1","CSR2015_e1_1",6,"span",47,0,"distractor",3,4177,"Include"
"CSR2015_e1","CSR2015_e1_1",6,"record",48,1,"R2",3,3174,"Include"
"CSR2015_e1","CSR2015_e1_1",6,"bone",49,1,"R4",4,2643,"Include"
"CSR2015_e1","CSR2015_e1_1",6,"proof",50,1,"R2",4,1126,"Include"
"CSR2015_e1","CSR2015_e1_1",6,"feeling",51,0,"distractor",3,1865,"Include"
"CSR2015_e1","CSR2015_e1_1",6,"club",52,0,"distractor",3,1291,"Include"
"CSR2015_e1","CSR2015_e1_1",6,"pepper",53,1,"R2",6,1094,"Include"
"CSR2015_e1","CSR2015_e1_1",6,"mastery",54,0,"distractor",3,3529,"Include"
"CSR2015_e1","CSR2015_e1_1",6,"cost",55,0,"distractor",3,1128,"Include"
"CSR2015_e1","CSR2015_e1_1",6,"city",56,0,"distractor",3,1242,"Include"
"CSR2015_e1","CSR2015_e1_1",6,"hour",57,0,"distractor",3,2343,"Include"
"CSR2015_e1","CSR2015_e1_1",6,"hole",58,1,"R4",4,1574,"Include"
"CSR2015_e1","CSR2015_e1_1",6,"foil",59,1,"R2",4,1126,"Include"
"CSR2015_e1","CSR2015_e1_1",6,"rake",60,1,"R4",4,1063,"Include"
"CSR2015_e1","CSR2015_e1_1",6,"lecture",61,0,"distractor",3,859,"Include"
"CSR2015_e1","CSR2015_e1_1",6,"pollen",62,0,"distractor",3,1560,"Include"
"CSR2015_e1","CSR2015_e1_1",6,"temple",63,0,"distractor",3,1400,"Include"
"CSR2015_e1","CSR2015_e1_1",6,"axle",64,0,"distractor",3,5198,"Include"
"CSR2015_e1","CSR2015_e1_1",6,"sauce",65,0,"distractor",3,1769,"Include"
"CSR2015_e1","CSR2015_e1_1",6,"quarter",66,1,"R2",4,1488,"Include"
"CSR2015_e1","CSR2015_e1_1",6,"earl",67,1,"R2",4,1314,"Include"
"CSR2015_e1","CSR2015_e1_1",6,"arrival",68,0,"distractor",3,1052,"Include"
"CSR2015_e1","CSR2015_e1_1",6,"bang",69,1,"R2",5,1489,"Include"
"CSR2015_e1","CSR2015_e1_1",6,"misery",70,1,"R4",5,1875,"Include"
"CSR2015_e1","CSR2015_e1_1",6,"cheek",71,1,"R1",4,1606,"Include"
"CSR2015_e1","CSR2015_e1_1",6,"holiday",72,0,"distractor",3,1076,"Include"
"CSR2015_e1","CSR2015_e1_1",6,"barn",73,0,"distractor",4,2904,"Include"
"CSR2015_e1","CSR2015_e1_1",6,"luxury",74,1,"SS",6,1040,"Include"
"CSR2015_e1","CSR2015_e1_1",6,"fellow",75,1,"R1",3,1781,"Include"
"CSR2015_e1","CSR2015_e1_1",6,"sink",76,0,"distractor",4,4732,"Include"
"CSR2015_e1","CSR2015_e1_1",6,"public",77,1,"R4",4,1914,"Include"
"CSR2015_e1","CSR2015_e1_1",6,"muscle",78,0,"distractor",3,2092,"Include"
"CSR2015_e1","CSR2015_e1_1",6,"chief",79,0,"distractor",3,1894,"Include"
"CSR2015_e1","CSR2015_e1_1",6,"cottage",80,0,"distractor",3,1304,"Include"
"CSR2015_e1","CSR2015_e1_1",6,"mineral",81,1,"SS",5,3202,"Include"
"CSR2015_e1","CSR2015_e1_1",6,"leader",82,1,"R2",3,3646,"Include"
"CSR2015_e1","CSR2015_e1_1",6,"neglect",83,0,"distractor",3,1433,"Include"
"CSR2015_e1","CSR2015_e1_1",6,"enemy",84,1,"R4",5,1901,"Include"
"CSR2015_e1","CSR2015_e1_1",7,"bosom",1,0,"distractor",2,2345,"Include"
"CSR2015_e1","CSR2015_e1_1",7,"citizen",2,1,"SS",6,1081,"Include"
"CSR2015_e1","CSR2015_e1_1",7,"dream",3,0,"distractor",4,1116,"Include"
"CSR2015_e1","CSR2015_e1_1",7,"pocket",4,0,"distractor",3,1246,"Include"
"CSR2015_e1","CSR2015_e1_1",7,"breeze",5,1,"R4",6,1099,"Include"
"CSR2015_e1","CSR2015_e1_1",7,"mast",6,0,"distractor",3,1661,"Include"
"CSR2015_e1","CSR2015_e1_1",7,"stick",7,1,"R4",4,1193,"Include"
"CSR2015_e1","CSR2015_e1_1",7,"hair",8,1,"R2",4,1560,"Include"
"CSR2015_e1","CSR2015_e1_1",7,"topic",9,0,"distractor",3,984,"Include"
"CSR2015_e1","CSR2015_e1_1",7,"failure",10,1,"R1",3,1951,"Include"
"CSR2015_e1","CSR2015_e1_1",7,"shed",11,1,"R4",6,1374,"Include"
"CSR2015_e1","CSR2015_e1_1",7,"culture",12,0,"distractor",3,2245,"Include"
"CSR2015_e1","CSR2015_e1_1",7,"breath",13,1,"R2",4,1305,"Include"
"CSR2015_e1","CSR2015_e1_1",7,"claim",14,0,"distractor",3,1171,"Include"
"CSR2015_e1","CSR2015_e1_1",7,"steeple",15,1,"R4",5,963,"Include"
"CSR2015_e1","CSR2015_e1_1",7,"wisdom",16,1,"SS",6,1067,"Include"
"CSR2015_e1","CSR2015_e1_1",7,"zeal",17,0,"distractor",2,1183,"Include"
"CSR2015_e1","CSR2015_e1_1",7,"music",18,0,"distractor",3,1054,"Include"
"CSR2015_e1","CSR2015_e1_1",7,"otter",19,1,"R1",3,1986,"Include"
"CSR2015_e1","CSR2015_e1_1",7,"core",20,0,"distractor",3,1184,"Include"
"CSR2015_e1","CSR2015_e1_1",7,"corner",21,0,"distractor",3,1103,"Include"
"CSR2015_e1","CSR2015_e1_1",7,"dancer",22,1,"R1",5,1169,"Include"
"CSR2015_e1","CSR2015_e1_1",7,"latch",23,1,"R4",3,1984,"Include"
"CSR2015_e1","CSR2015_e1_1",7,"mercy",24,0,"distractor",3,1599,"Include"
"CSR2015_e1","CSR2015_e1_1",7,"palace",25,1,"R2",3,1149,"Include"
"CSR2015_e1","CSR2015_e1_1",7,"grade",26,0,"distractor",3,1452,"Include"
"CSR2015_e1","CSR2015_e1_1",7,"organ",27,1,"R1",4,1920,"Include"
"CSR2015_e1","CSR2015_e1_1",7,"fool",28,0,"distractor",4,1233,"Include"
"CSR2015_e1","CSR2015_e1_1",7,"deer",29,1,"R2",5,1374,"Include"
"CSR2015_e1","CSR2015_e1_1",7,"loyalty",30,0,"distractor",3,1253,"Include"
"CSR2015_e1","CSR2015_e1_1",7,"knife",31,0,"distractor",3,1233,"Include"
"CSR2015_e1","CSR2015_e1_1",7,"current",32,1,"R4",4,1854,"Include"
"CSR2015_e1","CSR2015_e1_1",7,"singer",33,1,"R1",4,1234,"Include"
"CSR2015_e1","CSR2015_e1_1",7,"damage",34,1,"R2",3,911,"Include"
"CSR2015_e1","CSR2015_e1_1",7,"berry",35,1,"R4",6,1209,"Include"
"CSR2015_e1","CSR2015_e1_1",7,"dread",36,0,"distractor",6,935,"Include"
"CSR2015_e1","CSR2015_e1_1",7,"stem",37,1,"R2",4,1200,"Include"
"CSR2015_e1","CSR2015_e1_1",7,"blade",38,1,"R2",5,1343,"Include"
"CSR2015_e1","CSR2015_e1_1",7,"crew",39,0,"distractor",3,1415,"Include"
"CSR2015_e1","CSR2015_e1_1",7,"fatigue",40,1,"R4",5,1085,"Include"
"CSR2015_e1","CSR2015_e1_1",7,"school",41,1,"R1",4,1327,"Include"
"CSR2015_e1","CSR2015_e1_1",7,"rescue",42,0,"distractor",3,809,"Include"
"CSR2015_e1","CSR2015_e1_1",7,"cunning",43,0,"distractor",3,1015,"Include"
"CSR2015_e1","CSR2015_e1_1",7,"pencil",44,1,"SS",6,925,"Include"
"CSR2015_e1","CSR2015_e1_1",7,"food",45,1,"R2",4,1495,"Include"
"CSR2015_e1","CSR2015_e1_1",7,"basket",46,0,"distractor",4,1145,"Include"
"CSR2015_e1","CSR2015_e1_1",7,"tune",47,1,"R1",3,874,"Include"
"CSR2015_e1","CSR2015_e1_1",7,"bishop",48,0,"distractor",3,1302,"Include"
"CSR2015_e1","CSR2015_e1_1",7,"costume",49,0,"distractor",3,1984,"Include"
"CSR2015_e1","CSR2015_e1_1",7,"toilet",50,1,"R4",4,1006,"Include"
"CSR2015_e1","CSR2015_e1_1",7,"home",51,1,"SS",6,1845,"Include"
"CSR2015_e1","CSR2015_e1_1",7,"route",52,0,"distractor",3,2793,"Include"
"CSR2015_e1","CSR2015_e1_1",7,"spear",53,1,"R1",3,1766,"Include"
"CSR2015_e1","CSR2015_e1_1",7,"quarrel",54,1,"SS",6,1069,"Include"
"CSR2015_e1","CSR2015_e1_1",7,"edge",55,1,"R2",4,7345,"Include"
"CSR2015_e1","CSR2015_e1_1",7,"cargo",56,1,"SS",6,1156,"Include"
"CSR2015_e1","CSR2015_e1_1",7,"duel",57,1,"R1",3,1332,"Include"
"CSR2015_e1","CSR2015_e1_1",7,"ramp",58,1,"R4",4,1485,"Include"
"CSR2015_e1","CSR2015_e1_1",7,"mortar",59,0,"distractor",3,1023,"Include"
"CSR2015_e1","CSR2015_e1_1",7,"tale",60,0,"distractor",3,1269,"Include"
"CSR2015_e1","CSR2015_e1_1",7,"meal",61,0,"distractor",3,1616,"Include"
"CSR2015_e1","CSR2015_e1_1",7,"mink",62,1,"R1",4,3053,"Include"
"CSR2015_e1","CSR2015_e1_1",7,"prairie",63,0,"distractor",4,2208,"Include"
"CSR2015_e1","CSR2015_e1_1",7,"scout",64,0,"distractor",3,1013,"Include"
"CSR2015_e1","CSR2015_e1_1",7,"chance",65,1,"R2",4,3003,"Include"
"CSR2015_e1","CSR2015_e1_1",7,"caravan",66,0,"distractor",2,1136,"Include"
"CSR2015_e1","CSR2015_e1_1",7,"dock",67,0,"distractor",3,1409,"Include"
"CSR2015_e1","CSR2015_e1_1",7,"giant",68,1,"R4",4,1207,"Include"
"CSR2015_e1","CSR2015_e1_1",7,"raid",69,1,"R2",4,1093,"Include"
"CSR2015_e1","CSR2015_e1_1",7,"hook",70,0,"distractor",3,2184,"Include"
"CSR2015_e1","CSR2015_e1_1",7,"spell",71,1,"R1",4,910,"Include"
"CSR2015_e1","CSR2015_e1_1",7,"weather",72,0,"distractor",3,824,"Include"
"CSR2015_e1","CSR2015_e1_1",7,"machine",73,0,"distractor",3,1366,"Include"
"CSR2015_e1","CSR2015_e1_1",7,"bark",74,0,"distractor",4,1005,"Include"
"CSR2015_e1","CSR2015_e1_1",7,"mankind",75,0,"distractor",2,1092,"Include"
"CSR2015_e1","CSR2015_e1_1",7,"stake",76,0,"distractor",3,2215,"Include"
"CSR2015_e1","CSR2015_e1_1",7,"virtue",77,0,"distractor",3,876,"Include"
"CSR2015_e1","CSR2015_e1_1",7,"guilt",78,0,"distractor",3,2408,"Include"
"CSR2015_e1","CSR2015_e1_1",7,"academy",79,1,"R1",2,1061,"Include"
"CSR2015_e1","CSR2015_e1_1",7,"pants",80,1,"R4",3,1305,"Include"
"CSR2015_e1","CSR2015_e1_1",7,"riot",81,1,"R2",4,915,"Include"
"CSR2015_e1","CSR2015_e1_1",7,"chest",82,0,"distractor",3,1789,"Include"
"CSR2015_e1","CSR2015_e1_1",7,"whip",83,0,"distractor",3,1075,"Include"
"CSR2015_e1","CSR2015_e1_1",7,"tractor",84,0,"distractor",3,1255,"Include"
"CSR2015_e1","CSR2015_e1_1",8,"queen",1,1,"R2",3,2032,"Include"
"CSR2015_e1","CSR2015_e1_1",8,"market",2,1,"R2",4,1196,"Include"
"CSR2015_e1","CSR2015_e1_1",8,"signal",3,0,"distractor",3,779,"Include"
"CSR2015_e1","CSR2015_e1_1",8,"park",4,0,"distractor",3,1323,"Include"
"CSR2015_e1","CSR2015_e1_1",8,"object",5,1,"R4",4,1077,"Include"
"CSR2015_e1","CSR2015_e1_1",8,"gore",6,0,"distractor",2,1320,"Include"
"CSR2015_e1","CSR2015_e1_1",8,"folly",7,1,"R4",5,1346,"Include"
"CSR2015_e1","CSR2015_e1_1",8,"bird",8,0,"distractor",3,1386,"Include"
"CSR2015_e1","CSR2015_e1_1",8,"poet",9,0,"distractor",3,1217,"Include"
"CSR2015_e1","CSR2015_e1_1",8,"roll",10,0,"distractor",3,1166,"Include"
"CSR2015_e1","CSR2015_e1_1",8,"mistake",11,1,"R4",5,1230,"Include"
"CSR2015_e1","CSR2015_e1_1",8,"load",12,1,"R4",4,2875,"Include"
"CSR2015_e1","CSR2015_e1_1",8,"tooth",13,1,"R2",4,1189,"Include"
"CSR2015_e1","CSR2015_e1_1",8,"burial",14,0,"distractor",3,820,"Include"
"CSR2015_e1","CSR2015_e1_1",8,"control",15,0,"distractor",3,1202,"Include"
"CSR2015_e1","CSR2015_e1_1",8,"golf",16,0,"distractor",3,1296,"Include"
"CSR2015_e1","CSR2015_e1_1",8,"shoe",17,0,"distractor",3,1515,"Include"
"CSR2015_e1","CSR2015_e1_1",8,"saint",18,0,"distractor",3,1196,"Include"
"CSR2015_e1","CSR2015_e1_1",8,"shadow",19,0,"distractor",3,1404,"Include"
"CSR2015_e1","CSR2015_e1_1",8,"back",20,0,"distractor",3,1618,"Include"
"CSR2015_e1","CSR2015_e1_1",8,"pity",21,1,"R1",3,1583,"Include"
"CSR2015_e1","CSR2015_e1_1",8,"palm",22,1,"R4",3,1197,"Include"
"CSR2015_e1","CSR2015_e1_1",8,"wall",23,0,"distractor",3,2348,"Include"
"CSR2015_e1","CSR2015_e1_1",8,"sack",24,1,"SS",5,2700,"Include"
"CSR2015_e1","CSR2015_e1_1",8,"wave",25,0,"distractor",3,1853,"Include"
"CSR2015_e1","CSR2015_e1_1",8,"relic",26,1,"R1",2,1105,"Include"
"CSR2015_e1","CSR2015_e1_1",8,"frame",27,0,"distractor",3,1315,"Include"
"CSR2015_e1","CSR2015_e1_1",8,"history",28,0,"distractor",2,1309,"Include"
"CSR2015_e1","CSR2015_e1_1",8,"pillow",29,1,"R2",4,1047,"Include"
"CSR2015_e1","CSR2015_e1_1",8,"ridge",30,1,"R1",3,2364,"Include"
"CSR2015_e1","CSR2015_e1_1",8,"marble",31,0,"distractor",3,2427,"Include"
"CSR2015_e1","CSR2015_e1_1",8,"stool",32,1,"SS",6,952,"Include"
"CSR2015_e1","CSR2015_e1_1",8,"subject",33,1,"R2",6,1456,"Include"
"CSR2015_e1","CSR2015_e1_1",8,"tomb",34,0,"distractor",3,1348,"Include"
"CSR2015_e1","CSR2015_e1_1",8,"lantern",35,1,"R1",4,1548,"Include"
"CSR2015_e1","CSR2015_e1_1",8,"rent",36,0,"distractor",3,2045,"Include"
"CSR2015_e1","CSR2015_e1_1",8,"wolf",37,1,"R2",5,1369,"Include"
"CSR2015_e1","CSR2015_e1_1",8,"injury",38,1,"R1",3,2337,"Include"
"CSR2015_e1","CSR2015_e1_1",8,"soil",39,0,"distractor",5,1136,"Include"
"CSR2015_e1","CSR2015_e1_1",8,"room",40,1,"SS",6,993,"Include"
"CSR2015_e1","CSR2015_e1_1",8,"lobby",41,0,"distractor",4,1384,"Include"
"CSR2015_e1","CSR2015_e1_1",8,"dignity",42,1,"R1",2,1631,"Include"
"CSR2015_e1","CSR2015_e1_1",8,"major",43,1,"R1",3,2012,"Include"
"CSR2015_e1","CSR2015_e1_1",8,"area",44,1,"R1",4,969,"Include"
"CSR2015_e1","CSR2015_e1_1",8,"value",45,0,"distractor",4,1249,"Include"
"CSR2015_e1","CSR2015_e1_1",8,"palette",46,0,"distractor",2,989,"Include"
"CSR2015_e1","CSR2015_e1_1",8,"loan",47,1,"R4",5,1108,"Include"
"CSR2015_e1","CSR2015_e1_1",8,"recruit",48,1,"R2",4,1655,"Include"
"CSR2015_e1","CSR2015_e1_1",8,"shirt",49,1,"SS",6,962,"Include"
"CSR2015_e1","CSR2015_e1_1",8,"radio",50,1,"R4",6,1243,"Include"
"CSR2015_e1","CSR2015_e1_1",8,"pasture",51,0,"distractor",4,1176,"Include"
"CSR2015_e1","CSR2015_e1_1",8,"coach",52,1,"R4",4,1222,"Include"
"CSR2015_e1","CSR2015_e1_1",8,"crowd",53,1,"R1",3,1109,"Include"
"CSR2015_e1","CSR2015_e1_1",8,"amateur",54,1,"R4",5,1078,"Include"
"CSR2015_e1","CSR2015_e1_1",8,"part",55,1,"R2",4,2217,"Include"
"CSR2015_e1","CSR2015_e1_1",8,"window",56,1,"R2",3,1838,"Include"
"CSR2015_e1","CSR2015_e1_1",8,"stomach",57,1,"SS",6,931,"Include"
"CSR2015_e1","CSR2015_e1_1",8,"size",58,0,"distractor",4,2508,"Include"
"CSR2015_e1","CSR2015_e1_1",8,"seller",59,1,"R4",5,1333,"Include"
"CSR2015_e1","CSR2015_e1_1",8,"kitten",60,0,"distractor",3,3838,"Include"
"CSR2015_e1","CSR2015_e1_1",8,"lady",61,1,"R1",4,2272,"Include"
"CSR2015_e1","CSR2015_e1_1",8,"toast",62,1,"SS",6,1218,"Include"
"CSR2015_e1","CSR2015_e1_1",8,"freedom",63,0,"distractor",4,2432,"Include"
"CSR2015_e1","CSR2015_e1_1",8,"play",64,1,"R2",4,1660,"Include"
"CSR2015_e1","CSR2015_e1_1",8,"danger",65,0,"distractor",3,1336,"Include"
"CSR2015_e1","CSR2015_e1_1",8,"fork",66,0,"distractor",4,1329,"Include"
"CSR2015_e1","CSR2015_e1_1",8,"felt",67,1,"R4",4,1498,"Include"
"CSR2015_e1","CSR2015_e1_1",8,"year",68,1,"R1",3,1180,"Include"
"CSR2015_e1","CSR2015_e1_1",8,"cotton",69,0,"distractor",4,2012,"Include"
"CSR2015_e1","CSR2015_e1_1",8,"ball",70,0,"distractor",4,10106,"Include"
"CSR2015_e1","CSR2015_e1_1",8,"musical",71,0,"distractor",2,1164,"Include"
"CSR2015_e1","CSR2015_e1_1",8,"pupil",72,1,"R4",5,1100,"Include"
"CSR2015_e1","CSR2015_e1_1",8,"mouse",73,0,"distractor",3,1726,"Include"
"CSR2015_e1","CSR2015_e1_1",8,"boulder",74,0,"distractor",2,1255,"Include"
"CSR2015_e1","CSR2015_e1_1",8,"month",75,1,"R1",3,1683,"Include"
"CSR2015_e1","CSR2015_e1_1",8,"center",76,0,"distractor",3,1486,"Include"
"CSR2015_e1","CSR2015_e1_1",8,"seat",77,1,"R2",4,1440,"Include"
"CSR2015_e1","CSR2015_e1_1",8,"removal",78,0,"distractor",3,1237,"Include"
"CSR2015_e1","CSR2015_e1_1",8,"chorus",79,0,"distractor",3,1122,"Include"
"CSR2015_e1","CSR2015_e1_1",8,"floor",80,0,"distractor",3,2083,"Include"
"CSR2015_e1","CSR2015_e1_1",8,"ceiling",81,0,"distractor",3,1485,"Include"
"CSR2015_e1","CSR2015_e1_1",8,"special",82,0,"distractor",4,2928,"Include"
"CSR2015_e1","CSR2015_e1_1",8,"shower",83,1,"R2",3,1160,"Include"
"CSR2015_e1","CSR2015_e1_1",8,"dress",84,0,"distractor",3,1400,"Include"
"CSR2015_e1","CSR2015_e1_1",9,"travel",1,0,"distractor",3,1871,"Include"
"CSR2015_e1","CSR2015_e1_1",9,"tape",2,0,"distractor",3,1474,"Include"
"CSR2015_e1","CSR2015_e1_1",9,"hawk",3,0,"distractor",2,1077,"Include"
"CSR2015_e1","CSR2015_e1_1",9,"echo",4,1,"R2",4,1000,"Include"
"CSR2015_e1","CSR2015_e1_1",9,"origin",5,0,"distractor",3,1247,"Include"
"CSR2015_e1","CSR2015_e1_1",9,"smoke",6,0,"distractor",3,1388,"Include"
"CSR2015_e1","CSR2015_e1_1",9,"strain",7,1,"R1",4,865,"Include"
"CSR2015_e1","CSR2015_e1_1",9,"easel",8,1,"R2",5,973,"Include"
"CSR2015_e1","CSR2015_e1_1",9,"court",9,1,"SS",6,918,"Include"
"CSR2015_e1","CSR2015_e1_1",9,"camp",10,1,"R4",6,1103,"Include"
"CSR2015_e1","CSR2015_e1_1",9,"turtle",11,0,"distractor",3,1633,"Include"
"CSR2015_e1","CSR2015_e1_1",9,"builder",12,0,"distractor",3,1517,"Include"
"CSR2015_e1","CSR2015_e1_1",9,"office",13,0,"distractor",3,1966,"Include"
"CSR2015_e1","CSR2015_e1_1",9,"cannon",14,0,"distractor",3,1501,"Include"
"CSR2015_e1","CSR2015_e1_1",9,"genius",15,1,"R4",6,943,"Include"
"CSR2015_e1","CSR2015_e1_1",9,"heaven",16,0,"distractor",3,1480,"Include"
"CSR2015_e1","CSR2015_e1_1",9,"gospel",17,1,"SS",6,827,"Include"
"CSR2015_e1","CSR2015_e1_1",9,"slope",18,0,"distractor",3,2569,"Include"
"CSR2015_e1","CSR2015_e1_1",9,"abdomen",19,1,"R1",6,928,"Include"
"CSR2015_e1","CSR2015_e1_1",9,"prey",20,0,"distractor",3,4425,"Include"
"CSR2015_e1","CSR2015_e1_1",9,"pioneer",21,0,"distractor",3,1188,"Include"
"CSR2015_e1","CSR2015_e1_1",9,"speck",22,0,"distractor",3,1491,"Include"
"CSR2015_e1","CSR2015_e1_1",9,"pattern",23,1,"SS",6,789,"Include"
"CSR2015_e1","CSR2015_e1_1",9,"trick",24,0,"distractor",3,1684,"Include"
"CSR2015_e1","CSR2015_e1_1",9,"idea",25,1,"R2",5,1247,"Include"
"CSR2015_e1","CSR2015_e1_1",9,"treat",26,1,"R4",5,1244,"Include"
"CSR2015_e1","CSR2015_e1_1",9,"cloth",27,1,"R1",4,1624,"Include"
"CSR2015_e1","CSR2015_e1_1",9,"willow",28,0,"distractor",2,1461,"Include"
"CSR2015_e1","CSR2015_e1_1",9,"guide",29,1,"SS",6,889,"Include"
"CSR2015_e1","CSR2015_e1_1",9,"ballot",30,0,"distractor",3,1765,"Include"
"CSR2015_e1","CSR2015_e1_1",9,"insight",31,0,"distractor",2,1020,"Include"
"CSR2015_e1","CSR2015_e1_1",9,"body",32,1,"R2",4,1410,"Include"
"CSR2015_e1","CSR2015_e1_1",9,"nose",33,1,"SS",6,936,"Include"
"CSR2015_e1","CSR2015_e1_1",9,"heat",34,0,"distractor",3,1809,"Include"
"CSR2015_e1","CSR2015_e1_1",9,"hotel",35,0,"distractor",2,1190,"Include"
"CSR2015_e1","CSR2015_e1_1",9,"anchor",36,1,"R2",4,1237,"Include"
"CSR2015_e1","CSR2015_e1_1",9,"kingdom",37,0,"distractor",2,1010,"Include"
"CSR2015_e1","CSR2015_e1_1",9,"coin",38,0,"distractor",3,1096,"Include"
"CSR2015_e1","CSR2015_e1_1",9,"exhibit",39,0,"distractor",2,939,"Include"
"CSR2015_e1","CSR2015_e1_1",9,"corps",40,0,"distractor",3,2437,"Include"
"CSR2015_e1","CSR2015_e1_1",9,"cage",41,1,"R4",4,1216,"Include"
"CSR2015_e1","CSR2015_e1_1",9,"alley",42,0,"distractor",4,1902,"Include"
"CSR2015_e1","CSR2015_e1_1",9,"cement",43,1,"R1",4,1103,"Include"
"CSR2015_e1","CSR2015_e1_1",9,"feat",44,0,"distractor",3,977,"Include"
"CSR2015_e1","CSR2015_e1_1",9,"duty",45,0,"distractor",3,1849,"Include"
"CSR2015_e1","CSR2015_e1_1",9,"ally",46,1,"R4",5,1885,"Include"
"CSR2015_e1","CSR2015_e1_1",9,"sonata",47,0,"distractor",2,1103,"Include"
"CSR2015_e1","CSR2015_e1_1",9,"silk",48,1,"R2",5,1089,"Include"
"CSR2015_e1","CSR2015_e1_1",9,"report",49,1,"R2",4,2516,"Include"
"CSR2015_e1","CSR2015_e1_1",9,"surface",50,0,"distractor",3,956,"Include"
"CSR2015_e1","CSR2015_e1_1",9,"menu",51,1,"R2",3,1605,"Include"
"CSR2015_e1","CSR2015_e1_1",9,"door",52,0,"distractor",4,979,"Include"
"CSR2015_e1","CSR2015_e1_1",9,"tiger",53,1,"R2",4,1051,"Include"
"CSR2015_e1","CSR2015_e1_1",9,"violin",54,1,"SS",6,1007,"Include"
"CSR2015_e1","CSR2015_e1_1",9,"seam",55,1,"R1",4,1430,"Include"
"CSR2015_e1","CSR2015_e1_1",9,"picture",56,1,"R1",3,3227,"Include"
"CSR2015_e1","CSR2015_e1_1",9,"manor",57,0,"distractor",3,2502,"Include"
"CSR2015_e1","CSR2015_e1_1",9,"brush",58,1,"R2",3,1359,"Include"
"CSR2015_e1","CSR2015_e1_1",9,"string",59,1,"R4",5,1111,"Include"
"CSR2015_e1","CSR2015_e1_1",9,"cherry",60,0,"distractor",3,2122,"Include"
"CSR2015_e1","CSR2015_e1_1",9,"denial",61,1,"R1",3,2530,"Include"
"CSR2015_e1","CSR2015_e1_1",9,"milk",62,0,"distractor",3,1579,"Include"
"CSR2015_e1","CSR2015_e1_1",9,"affair",63,1,"R4",6,1034,"Include"
"CSR2015_e1","CSR2015_e1_1",9,"gait",64,0,"distractor",4,3295,"Include"
"CSR2015_e1","CSR2015_e1_1",9,"head",65,1,"R2",4,1896,"Include"
"CSR2015_e1","CSR2015_e1_1",9,"patient",66,1,"R1",3,1082,"Include"
"CSR2015_e1","CSR2015_e1_1",9,"ability",67,1,"R4",3,3245,"Include"
"CSR2015_e1","CSR2015_e1_1",9,"degree",68,1,"R4",4,1048,"Include"
"CSR2015_e1","CSR2015_e1_1",9,"newt",69,1,"R2",3,1516,"Include"
"CSR2015_e1","CSR2015_e1_1",9,"display",70,1,"R4",3,2126,"Include"
"CSR2015_e1","CSR2015_e1_1",9,"idiom",71,0,"distractor",2,1159,"Include"
"CSR2015_e1","CSR2015_e1_1",9,"post",72,0,"distractor",3,1462,"Include"
"CSR2015_e1","CSR2015_e1_1",9,"truth",73,0,"distractor",3,1242,"Include"
"CSR2015_e1","CSR2015_e1_1",9,"spark",74,1,"R4",4,935,"Include"
"CSR2015_e1","CSR2015_e1_1",9,"lime",75,0,"distractor",3,1648,"Include"
"CSR2015_e1","CSR2015_e1_1",9,"reality",76,0,"distractor",3,988,"Include"
"CSR2015_e1","CSR2015_e1_1",9,"curse",77,1,"R1",3,2213,"Include"
"CSR2015_e1","CSR2015_e1_1",9,"tyranny",78,0,"distractor",2,969,"Include"
"CSR2015_e1","CSR2015_e1_1",9,"purse",79,1,"R1",3,1232,"Include"
"CSR2015_e1","CSR2015_e1_1",9,"table",80,0,"distractor",4,957,"Include"
"CSR2015_e1","CSR2015_e1_1",9,"term",81,1,"R1",3,1878,"Include"
"CSR2015_e1","CSR2015_e1_1",9,"arrow",82,0,"distractor",3,2057,"Include"
"CSR2015_e1","CSR2015_e1_1",9,"person",83,1,"R1",3,1652,"Include"
"CSR2015_e1","CSR2015_e1_1",9,"owner",84,1,"R4",4,1200,"Include"
"CSR2015_e1","CSR2015_e1_1",10,"sphere",1,0,"distractor",4,4819,"Include"
"CSR2015_e1","CSR2015_e1_1",10,"bedroom",2,0,"distractor",3,989,"Include"
"CSR2015_e1","CSR2015_e1_1",10,"suspect",3,0,"distractor",4,1380,"Include"
"CSR2015_e1","CSR2015_e1_1",10,"foam",4,1,"R4",4,940,"Include"
"CSR2015_e1","CSR2015_e1_1",10,"isle",5,1,"R1",5,1013,"Include"
"CSR2015_e1","CSR2015_e1_1",10,"concern",6,1,"R4",4,1435,"Include"
"CSR2015_e1","CSR2015_e1_1",10,"phase",7,0,"distractor",3,1168,"Include"
"CSR2015_e1","CSR2015_e1_1",10,"camera",8,0,"distractor",3,1167,"Include"
"CSR2015_e1","CSR2015_e1_1",10,"beef",9,0,"distractor",2,1215,"Include"
"CSR2015_e1","CSR2015_e1_1",10,"wealth",10,1,"R1",4,1197,"Include"
"CSR2015_e1","CSR2015_e1_1",10,"nest",11,1,"R2",5,1180,"Include"
"CSR2015_e1","CSR2015_e1_1",10,"store",12,0,"distractor",3,1755,"Include"
"CSR2015_e1","CSR2015_e1_1",10,"bush",13,1,"R4",4,1059,"Include"
"CSR2015_e1","CSR2015_e1_1",10,"shield",14,1,"R1",4,2167,"Include"
"CSR2015_e1","CSR2015_e1_1",10,"segment",15,0,"distractor",2,990,"Include"
"CSR2015_e1","CSR2015_e1_1",10,"athlete",16,1,"R2",4,2069,"Include"
"CSR2015_e1","CSR2015_e1_1",10,"rust",17,0,"distractor",3,1120,"Include"
"CSR2015_e1","CSR2015_e1_1",10,"balloon",18,0,"distractor",2,1072,"Include"
"CSR2015_e1","CSR2015_e1_1",10,"iron",19,1,"R4",4,1428,"Include"
"CSR2015_e1","CSR2015_e1_1",10,"stand",20,0,"distractor",3,1001,"Include"
"CSR2015_e1","CSR2015_e1_1",10,"infant",21,0,"distractor",2,1327,"Include"
"CSR2015_e1","CSR2015_e1_1",10,"burn",22,1,"R1",6,1385,"Include"
"CSR2015_e1","CSR2015_e1_1",10,"banner",23,1,"R2",6,880,"Include"
"CSR2015_e1","CSR2015_e1_1",10,"stain",24,1,"R1",4,1163,"Include"
"CSR2015_e1","CSR2015_e1_1",10,"fare",25,0,"distractor",3,1004,"Include"
"CSR2015_e1","CSR2015_e1_1",10,"comedy",26,1,"R4",6,1458,"Include"
"CSR2015_e1","CSR2015_e1_1",10,"peace",27,0,"distractor",4,1702,"Include"
"CSR2015_e1","CSR2015_e1_1",10,"alien",28,0,"distractor",2,1712,"Include"
"CSR2015_e1","CSR2015_e1_1",10,"prophet",29,1,"R2",3,1641,"Include"
"CSR2015_e1","CSR2015_e1_1",10,"smile",30,1,"R4",4,1302,"Include"
"CSR2015_e1","CSR2015_e1_1",10,"onion",31,0,"distractor",3,1312,"Include"
"CSR2015_e1","CSR2015_e1_1",10,"forward",32,1,"R2",4,1338,"Include"
"CSR2015_e1","CSR2015_e1_1",10,"cigar",33,0,"distractor",2,1027,"Include"
"CSR2015_e1","CSR2015_e1_1",10,"permit",34,1,"R4",6,984,"Include"
"CSR2015_e1","CSR2015_e1_1",10,"match",35,0,"distractor",3,1727,"Include"
"CSR2015_e1","CSR2015_e1_1",10,"future",36,1,"R2",6,1048,"Include"
"CSR2015_e1","CSR2015_e1_1",10,"carbon",37,1,"SS",6,797,"Include"
"CSR2015_e1","CSR2015_e1_1",10,"hill",38,1,"SS",6,716,"Include"
"CSR2015_e1","CSR2015_e1_1",10,"liberty",39,0,"distractor",2,1326,"Include"
"CSR2015_e1","CSR2015_e1_1",10,"belief",40,1,"SS",6,871,"Include"
"CSR2015_e1","CSR2015_e1_1",10,"bayonet",41,1,"SS",6,723,"Include"
"CSR2015_e1","CSR2015_e1_1",10,"lord",42,1,"R4",5,1941,"Include"
"CSR2015_e1","CSR2015_e1_1",10,"blossom",43,1,"R1",3,1589,"Include"
"CSR2015_e1","CSR2015_e1_1",10,"aunt",44,1,"R4",5,1604,"Include"
"CSR2015_e1","CSR2015_e1_1",10,"thrill",45,0,"distractor",3,1201,"Include"
"CSR2015_e1","CSR2015_e1_1",10,"shop",46,0,"distractor",3,3120,"Include"
"CSR2015_e1","CSR2015_e1_1",10,"relief",47,0,"distractor",3,1391,"Include"
"CSR2015_e1","CSR2015_e1_1",10,"success",48,0,"distractor",3,1254,"Include"
"CSR2015_e1","CSR2015_e1_1",10,"juice",49,1,"R1",3,1410,"Include"
"CSR2015_e1","CSR2015_e1_1",10,"spruce",50,0,"distractor",3,1320,"Include"
"CSR2015_e1","CSR2015_e1_1",10,"lever",51,0,"distractor",3,1153,"Include"
"CSR2015_e1","CSR2015_e1_1",10,"impact",52,1,"R4",4,1234,"Include"
"CSR2015_e1","CSR2015_e1_1",10,"hound",53,1,"R4",3,1566,"Include"
"CSR2015_e1","CSR2015_e1_1",10,"donor",54,0,"distractor",2,989,"Include"
"CSR2015_e1","CSR2015_e1_1",10,"session",55,0,"distractor",3,981,"Include"
"CSR2015_e1","CSR2015_e1_1",10,"general",56,0,"distractor",3,972,"Include"
"CSR2015_e1","CSR2015_e1_1",10,"gallon",57,0,"distractor",3,932,"Include"
"CSR2015_e1","CSR2015_e1_1",10,"piston",58,1,"R4",6,861,"Include"
"CSR2015_e1","CSR2015_e1_1",10,"button",59,1,"R1",3,1434,"Include"
"CSR2015_e1","CSR2015_e1_1",10,"troop",60,0,"distractor",3,2318,"Include"
"CSR2015_e1","CSR2015_e1_1",10,"fish",61,1,"R1",3,959,"Include"
"CSR2015_e1","CSR2015_e1_1",10,"mister",62,0,"distractor",4,871,"Include"
"CSR2015_e1","CSR2015_e1_1",10,"gold",63,0,"distractor",4,1731,"Include"
"CSR2015_e1","CSR2015_e1_1",10,"rain",64,1,"R2",3,780,"Include"
"CSR2015_e1","CSR2015_e1_1",10,"cover",65,0,"distractor",3,1084,"Include"
"CSR2015_e1","CSR2015_e1_1",10,"prop",66,0,"distractor",3,1023,"Include"
"CSR2015_e1","CSR2015_e1_1",10,"contact",67,1,"R2",4,884,"Include"
"CSR2015_e1","CSR2015_e1_1",10,"moral",68,1,"R2",4,1312,"Include"
"CSR2015_e1","CSR2015_e1_1",10,"state",69,0,"distractor",4,1162,"Include"
"CSR2015_e1","CSR2015_e1_1",10,"heart",70,1,"R1",3,698,"Include"
"CSR2015_e1","CSR2015_e1_1",10,"luck",71,1,"R2",3,972,"Include"
"CSR2015_e1","CSR2015_e1_1",10,"bond",72,1,"SS",6,853,"Include"
"CSR2015_e1","CSR2015_e1_1",10,"emperor",73,0,"distractor",2,1393,"Include"
"CSR2015_e1","CSR2015_e1_1",10,"youth",74,0,"distractor",3,1096,"Include"
"CSR2015_e1","CSR2015_e1_1",10,"gate",75,0,"distractor",4,1131,"Include"
"CSR2015_e1","CSR2015_e1_1",10,"lake",76,1,"SS",6,861,"Include"
"CSR2015_e1","CSR2015_e1_1",10,"partner",77,1,"R1",4,1449,"Include"
"CSR2015_e1","CSR2015_e1_1",10,"chair",78,0,"distractor",4,1837,"Include"
"CSR2015_e1","CSR2015_e1_1",10,"animal",79,1,"R2",3,913,"Include"
"CSR2015_e1","CSR2015_e1_1",10,"ritual",80,1,"R1",4,1228,"Include"
"CSR2015_e1","CSR2015_e1_1",10,"border",81,0,"distractor",3,1129,"Include"
"CSR2015_e1","CSR2015_e1_1",10,"paradox",82,0,"distractor",2,859,"Include"
"CSR2015_e1","CSR2015_e1_1",10,"routine",83,0,"distractor",3,951,"Include"
"CSR2015_e1","CSR2015_e1_1",10,"jacket",84,1,"R2",5,1296,"Include"
"CSR2015_e1","CSR2015_e1_1",11,"sting",1,0,"distractor",3,1140,"Include"
"CSR2015_e1","CSR2015_e1_1",11,"entry",2,0,"distractor",4,1221,"Include"
"CSR2015_e1","CSR2015_e1_1",11,"life",3,0,"distractor",3,802,"Include"
"CSR2015_e1","CSR2015_e1_1",11,"choir",4,1,"R4",5,1105,"Include"
"CSR2015_e1","CSR2015_e1_1",11,"dusk",5,0,"distractor",4,1059,"Include"
"CSR2015_e1","CSR2015_e1_1",11,"spoon",6,1,"R4",3,727,"Include"
"CSR2015_e1","CSR2015_e1_1",11,"hand",7,0,"distractor",3,1497,"Include"
"CSR2015_e1","CSR2015_e1_1",11,"calf",8,1,"R1",4,940,"Include"
"CSR2015_e1","CSR2015_e1_1",11,"force",9,1,"R1",3,885,"Include"
"CSR2015_e1","CSR2015_e1_1",11,"rite",10,0,"distractor",3,1040,"Include"
"CSR2015_e1","CSR2015_e1_1",11,"linen",11,1,"R4",5,1045,"Include"
"CSR2015_e1","CSR2015_e1_1",11,"upkeep",12,1,"R1",3,1482,"Include"
"CSR2015_e1","CSR2015_e1_1",11,"promise",13,1,"R4",4,893,"Include"
"CSR2015_e1","CSR2015_e1_1",11,"problem",14,1,"R1",4,1848,"Include"
"CSR2015_e1","CSR2015_e1_1",11,"sister",15,0,"distractor",3,956,"Include"
"CSR2015_e1","CSR2015_e1_1",11,"curve",16,1,"R4",4,1364,"Include"
"CSR2015_e1","CSR2015_e1_1",11,"truck",17,1,"SS",6,828,"Include"
"CSR2015_e1","CSR2015_e1_1",11,"rebel",18,1,"R1",3,986,"Include"
"CSR2015_e1","CSR2015_e1_1",11,"whiskey",19,1,"R1",6,753,"Include"
"CSR2015_e1","CSR2015_e1_1",11,"navy",20,0,"distractor",3,866,"Include"
"CSR2015_e1","CSR2015_e1_1",11,"insult",21,0,"distractor",3,1406,"Include"
"CSR2015_e1","CSR2015_e1_1",11,"amount",22,1,"R2",5,1012,"Include"
"CSR2015_e1","CSR2015_e1_1",11,"context",23,0,"distractor",3,890,"Include"
"CSR2015_e1","CSR2015_e1_1",11,"treaty",24,0,"distractor",3,1205,"Include"
"CSR2015_e1","CSR2015_e1_1",11,"steel",25,0,"distractor",3,2963,"Include"
"CSR2015_e1","CSR2015_e1_1",11,"horn",26,0,"distractor",4,1658,"Include"
"CSR2015_e1","CSR2015_e1_1",11,"crane",27,1,"R2",4,950,"Include"
"CSR2015_e1","CSR2015_e1_1",11,"aspect",28,1,"R4",3,1358,"Include"
"CSR2015_e1","CSR2015_e1_1",11,"finish",29,1,"R4",3,950,"Include"
"CSR2015_e1","CSR2015_e1_1",11,"file",30,0,"distractor",3,1406,"Include"
"CSR2015_e1","CSR2015_e1_1",11,"paste",31,1,"R1",4,1396,"Include"
"CSR2015_e1","CSR2015_e1_1",11,"role",32,1,"R2",4,827,"Include"
"CSR2015_e1","CSR2015_e1_1",11,"biology",33,0,"distractor",2,841,"Include"
"CSR2015_e1","CSR2015_e1_1",11,"cause",34,0,"distractor",3,2646,"Include"
"CSR2015_e1","CSR2015_e1_1",11,"saga",35,0,"distractor",2,922,"Include"
"CSR2015_e1","CSR2015_e1_1",11,"level",36,1,"R4",4,947,"Include"
"CSR2015_e1","CSR2015_e1_1",11,"pear",37,0,"distractor",3,972,"Include"
"CSR2015_e1","CSR2015_e1_1",11,"impetus",38,0,"distractor",2,980,"Include"
"CSR2015_e1","CSR2015_e1_1",11,"harmony",39,0,"distractor",3,1084,"Include"
"CSR2015_e1","CSR2015_e1_1",11,"soprano",40,0,"distractor",2,1119,"Include"
"CSR2015_e1","CSR2015_e1_1",11,"bottle",41,1,"SS",6,880,"Include"
"CSR2015_e1","CSR2015_e1_1",11,"present",42,1,"R4",4,988,"Include"
"CSR2015_e1","CSR2015_e1_1",11,"weapon",43,1,"R2",4,2371,"Include"
"CSR2015_e1","CSR2015_e1_1",11,"ticket",44,0,"distractor",4,2034,"Include"
"CSR2015_e1","CSR2015_e1_1",11,"trailer",45,0,"distractor",3,942,"Include"
"CSR2015_e1","CSR2015_e1_1",11,"bureau",46,0,"distractor",3,1351,"Include"
"CSR2015_e1","CSR2015_e1_1",11,"course",47,0,"distractor",3,1119,"Include"
"CSR2015_e1","CSR2015_e1_1",11,"episode",48,1,"R4",5,1504,"Include"
"CSR2015_e1","CSR2015_e1_1",11,"plate",49,0,"distractor",3,1762,"Include"
"CSR2015_e1","CSR2015_e1_1",11,"pound",50,1,"R2",3,1882,"Include"
"CSR2015_e1","CSR2015_e1_1",11,"square",51,1,"R2",3,1181,"Include"
"CSR2015_e1","CSR2015_e1_1",11,"rock",52,1,"R1",4,891,"Include"
"CSR2015_e1","CSR2015_e1_1",11,"circuit",53,1,"R2",5,1031,"Include"
"CSR2015_e1","CSR2015_e1_1",11,"desk",54,1,"R4",4,1356,"Include"
"CSR2015_e1","CSR2015_e1_1",11,"farm",55,1,"R2",3,821,"Include"
"CSR2015_e1","CSR2015_e1_1",11,"widow",56,0,"distractor",4,1042,"Include"
"CSR2015_e1","CSR2015_e1_1",11,"heap",57,0,"distractor",3,775,"Include"
"CSR2015_e1","CSR2015_e1_1",11,"trouble",58,1,"SS",6,903,"Include"
"CSR2015_e1","CSR2015_e1_1",11,"service",59,1,"R1",3,2577,"Include"
"CSR2015_e1","CSR2015_e1_1",11,"lesson",60,0,"distractor",3,2008,"Include"
"CSR2015_e1","CSR2015_e1_1",11,"quality",61,0,"distractor",3,949,"Include"
"CSR2015_e1","CSR2015_e1_1",11,"bean",62,1,"R4",4,957,"Include"
"CSR2015_e1","CSR2015_e1_1",11,"scene",63,0,"distractor",3,1366,"Include"
"CSR2015_e1","CSR2015_e1_1",11,"coral",64,1,"R1",4,909,"Include"
"CSR2015_e1","CSR2015_e1_1",11,"sail",65,1,"R2",4,1112,"Include"
"CSR2015_e1","CSR2015_e1_1",11,"rope",66,1,"R1",3,746,"Include"
"CSR2015_e1","CSR2015_e1_1",11,"skill",67,0,"distractor",3,2299,"Include"
"CSR2015_e1","CSR2015_e1_1",11,"captain",68,0,"distractor",3,1276,"Include"
"CSR2015_e1","CSR2015_e1_1",11,"parade",69,1,"R1",4,1112,"Include"
"CSR2015_e1","CSR2015_e1_1",11,"week",70,0,"distractor",3,779,"Include"
"CSR2015_e1","CSR2015_e1_1",11,"witch",71,1,"SS",6,971,"Include"
"CSR2015_e1","CSR2015_e1_1",11,"baby",72,0,"distractor",3,1570,"Include"
"CSR2015_e1","CSR2015_e1_1",11,"column",73,0,"distractor",3,1089,"Include"
"CSR2015_e1","CSR2015_e1_1",11,"beauty",74,0,"distractor",3,2212,"Include"
"CSR2015_e1","CSR2015_e1_1",11,"debut",75,1,"R2",4,986,"Include"
"CSR2015_e1","CSR2015_e1_1",11,"flower",76,0,"distractor",4,1057,"Include"
"CSR2015_e1","CSR2015_e1_1",11,"train",77,0,"distractor",4,2069,"Include"
"CSR2015_e1","CSR2015_e1_1",11,"wine",78,1,"SS",6,944,"Include"
"CSR2015_e1","CSR2015_e1_1",11,"channel",79,0,"distractor",4,1081,"Include"
"CSR2015_e1","CSR2015_e1_1",11,"duck",80,0,"distractor",3,652,"Include"
"CSR2015_e1","CSR2015_e1_1",11,"chicken",81,1,"SS",5,1521,"Include"
"CSR2015_e1","CSR2015_e1_1",11,"century",82,1,"R2",3,4082,"Include"
"CSR2015_e1","CSR2015_e1_1",11,"advice",83,0,"distractor",3,1083,"Include"
"CSR2015_e1","CSR2015_e1_1",11,"morning",84,1,"R2",3,1310,"Include"
"CSR2015_e1","CSR2015_e1_1",12,"bear",1,0,"distractor",3,1502,"Include"
"CSR2015_e1","CSR2015_e1_1",12,"land",2,0,"distractor",3,1152,"Include"
"CSR2015_e1","CSR2015_e1_1",12,"limb",3,0,"distractor",4,1440,"Include"
"CSR2015_e1","CSR2015_e1_1",12,"curb",4,1,"R4",4,916,"Include"
"CSR2015_e1","CSR2015_e1_1",12,"rule",5,0,"distractor",3,1070,"Include"
"CSR2015_e1","CSR2015_e1_1",12,"soap",6,1,"R2",4,1010,"Include"
"CSR2015_e1","CSR2015_e1_1",12,"dirt",7,0,"distractor",3,888,"Include"
"CSR2015_e1","CSR2015_e1_1",12,"bale",8,1,"R4",4,883,"Include"
"CSR2015_e1","CSR2015_e1_1",12,"devil",9,0,"distractor",3,910,"Include"
"CSR2015_e1","CSR2015_e1_1",12,"realm",10,0,"distractor",2,1081,"Include"
"CSR2015_e1","CSR2015_e1_1",12,"inch",11,1,"R2",3,956,"Include"
"CSR2015_e1","CSR2015_e1_1",12,"resort",12,1,"R4",4,789,"Include"
"CSR2015_e1","CSR2015_e1_1",12,"wire",13,1,"R4",5,1492,"Include"
"CSR2015_e1","CSR2015_e1_1",12,"nurse",14,1,"SS",6,823,"Include"
"CSR2015_e1","CSR2015_e1_1",12,"thing",15,0,"distractor",3,1285,"Include"
"CSR2015_e1","CSR2015_e1_1",12,"zone",16,0,"distractor",2,1183,"Include"
"CSR2015_e1","CSR2015_e1_1",12,"glitter",17,0,"distractor",2,974,"Include"
"CSR2015_e1","CSR2015_e1_1",12,"lumber",18,1,"R2",4,1094,"Include"
"CSR2015_e1","CSR2015_e1_1",12,"cash",19,0,"distractor",3,1033,"Include"
"CSR2015_e1","CSR2015_e1_1",12,"letter",20,1,"R4",4,1198,"Include"
"CSR2015_e1","CSR2015_e1_1",12,"hose",21,0,"distractor",3,1084,"Include"
"CSR2015_e1","CSR2015_e1_1",12,"cradle",22,1,"R2",4,1088,"Include"
"CSR2015_e1","CSR2015_e1_1",12,"metal",23,1,"R2",5,963,"Include"
"CSR2015_e1","CSR2015_e1_1",12,"tariff",24,1,"R2",3,1035,"Include"
"CSR2015_e1","CSR2015_e1_1",12,"author",25,0,"distractor",3,1072,"Include"
"CSR2015_e1","CSR2015_e1_1",12,"diamond",26,1,"R1",3,1236,"Include"
"CSR2015_e1","CSR2015_e1_1",12,"nail",27,0,"distractor",4,1216,"Include"
"CSR2015_e1","CSR2015_e1_1",12,"statue",28,1,"R1",4,974,"Include"
"CSR2015_e1","CSR2015_e1_1",12,"angle",29,0,"distractor",3,742,"Include"
"CSR2015_e1","CSR2015_e1_1",12,"plunge",30,1,"R4",5,935,"Include"
"CSR2015_e1","CSR2015_e1_1",12,"nation",31,0,"distractor",3,928,"Include"
"CSR2015_e1","CSR2015_e1_1",12,"rice",32,1,"R1",3,1130,"Include"
"CSR2015_e1","CSR2015_e1_1",12,"residue",33,1,"R2",4,1499,"Include"
"CSR2015_e1","CSR2015_e1_1",12,"trend",34,0,"distractor",3,1373,"Include"
"CSR2015_e1","CSR2015_e1_1",12,"itch",35,0,"distractor",3,1157,"Include"
"CSR2015_e1","CSR2015_e1_1",12,"meat",36,0,"distractor",3,2949,"Include"
"CSR2015_e1","CSR2015_e1_1",12,"justice",37,1,"R4",4,956,"Include"
"CSR2015_e1","CSR2015_e1_1",12,"capital",38,0,"distractor",4,1684,"Include"
"CSR2015_e1","CSR2015_e1_1",12,"health",39,0,"distractor",3,959,"Include"
"CSR2015_e1","CSR2015_e1_1",12,"vanity",40,1,"R1",3,1063,"Include"
"CSR2015_e1","CSR2015_e1_1",12,"mystery",41,0,"distractor",3,891,"Include"
"CSR2015_e1","CSR2015_e1_1",12,"gown",42,1,"R1",3,1271,"Include"
"CSR2015_e1","CSR2015_e1_1",12,"package",43,0,"distractor",3,4242,"Include"
"CSR2015_e1","CSR2015_e1_1",12,"recital",44,1,"R2",4,724,"Include"
"CSR2015_e1","CSR2015_e1_1",12,"shape",45,0,"distractor",4,2278,"Include"
"CSR2015_e1","CSR2015_e1_1",12,"device",46,0,"distractor",3,1144,"Include"
"CSR2015_e1","CSR2015_e1_1",12,"equal",47,0,"distractor",4,1513,"Include"
"CSR2015_e1","CSR2015_e1_1",12,"branch",48,0,"distractor",3,779,"Include"
"CSR2015_e1","CSR2015_e1_1",12,"thunder",49,1,"R1",3,1035,"Include"
"CSR2015_e1","CSR2015_e1_1",12,"buckle",50,0,"distractor",3,1440,"Include"
"CSR2015_e1","CSR2015_e1_1",12,"block",51,0,"distractor",3,1541,"Include"
"CSR2015_e1","CSR2015_e1_1",12,"site",52,1,"R4",4,789,"Include"
"CSR2015_e1","CSR2015_e1_1",12,"move",53,0,"distractor",3,644,"Include"
"CSR2015_e1","CSR2015_e1_1",12,"hero",54,1,"R1",4,1674,"Include"
"CSR2015_e1","CSR2015_e1_1",12,"break",55,1,"SS",5,1173,"Include"
"CSR2015_e1","CSR2015_e1_1",12,"basin",56,0,"distractor",3,2996,"Include"
"CSR2015_e1","CSR2015_e1_1",12,"season",57,1,"R1",3,4042,"Include"
"CSR2015_e1","CSR2015_e1_1",12,"mood",58,1,"SS",6,900,"Include"
"CSR2015_e1","CSR2015_e1_1",12,"pond",59,1,"R4",4,1406,"Include"
"CSR2015_e1","CSR2015_e1_1",12,"arbiter",60,1,"SS",6,900,"Include"
"CSR2015_e1","CSR2015_e1_1",12,"engine",61,1,"R1",4,1647,"Include"
"CSR2015_e1","CSR2015_e1_1",12,"watch",62,1,"R2",4,1146,"Include"
"CSR2015_e1","CSR2015_e1_1",12,"swell",63,1,"R1",3,1388,"Include"
"CSR2015_e1","CSR2015_e1_1",12,"driver",64,0,"distractor",4,1186,"Include"
"CSR2015_e1","CSR2015_e1_1",12,"ulcer",65,1,"R1",3,928,"Include"
"CSR2015_e1","CSR2015_e1_1",12,"drug",66,1,"SS",6,971,"Include"
"CSR2015_e1","CSR2015_e1_1",12,"throat",67,0,"distractor",3,2338,"Include"
"CSR2015_e1","CSR2015_e1_1",12,"toll",68,1,"R4",4,866,"Include"
"CSR2015_e1","CSR2015_e1_1",12,"silver",69,1,"R1",4,1085,"Include"
"CSR2015_e1","CSR2015_e1_1",12,"motion",70,1,"R2",3,1488,"Include"
"CSR2015_e1","CSR2015_e1_1",12,"trail",71,0,"distractor",4,963,"Include"
"CSR2015_e1","CSR2015_e1_1",12,"fever",72,1,"R2",4,1019,"Include"
"CSR2015_e1","CSR2015_e1_1",12,"moon",73,0,"distractor",3,993,"Include"
"CSR2015_e1","CSR2015_e1_1",12,"seal",74,0,"distractor",3,1800,"Include"
"CSR2015_e1","CSR2015_e1_1",12,"deputy",75,0,"distractor",3,942,"Include"
"CSR2015_e1","CSR2015_e1_1",12,"chapel",76,0,"distractor",3,1175,"Include"
"CSR2015_e1","CSR2015_e1_1",12,"exit",77,1,"R4",3,1574,"Include"
"CSR2015_e1","CSR2015_e1_1",12,"liquor",78,1,"R4",5,1221,"Include"
"CSR2015_e1","CSR2015_e1_1",12,"maker",79,0,"distractor",3,2995,"Include"
"CSR2015_e1","CSR2015_e1_1",12,"boredom",80,0,"distractor",2,1048,"Include"
"CSR2015_e1","CSR2015_e1_1",12,"note",81,0,"distractor",3,1196,"Include"
"CSR2015_e1","CSR2015_e1_1",12,"physics",82,1,"R2",2,1531,"Include"
"CSR2015_e1","CSR2015_e1_1",12,"lamb",83,1,"SS",4,1580,"Include"
"CSR2015_e1","CSR2015_e1_1",12,"lodge",84,0,"distractor",4,1532,"Include"
"CSR2015_e1","CSR2015_e1_1",13,"deed",1,1,"R2",4,1468,"Include"
"CSR2015_e1","CSR2015_e1_1",13,"card",2,1,"R4",3,1265,"Include"
"CSR2015_e1","CSR2015_e1_1",13,"founder",3,0,"distractor",3,1052,"Include"
"CSR2015_e1","CSR2015_e1_1",13,"cone",4,0,"distractor",3,1056,"Include"
"CSR2015_e1","CSR2015_e1_1",13,"clash",5,0,"distractor",3,1893,"Include"
"CSR2015_e1","CSR2015_e1_1",13,"estate",6,1,"R4",6,1063,"Include"
"CSR2015_e1","CSR2015_e1_1",13,"quest",7,0,"distractor",3,1835,"Include"
"CSR2015_e1","CSR2015_e1_1",13,"fine",8,0,"distractor",3,1343,"Include"
"CSR2015_e1","CSR2015_e1_1",13,"monkey",9,1,"R1",6,872,"Include"
"CSR2015_e1","CSR2015_e1_1",13,"crisis",10,1,"R2",4,2244,"Include"
"CSR2015_e1","CSR2015_e1_1",13,"scale",11,1,"SS",6,1016,"Include"
"CSR2015_e1","CSR2015_e1_1",13,"prayer",12,0,"distractor",3,1181,"Include"
"CSR2015_e1","CSR2015_e1_1",13,"terror",13,0,"distractor",3,2188,"Include"
"CSR2015_e1","CSR2015_e1_1",13,"veto",14,1,"R1",3,1683,"Include"
"CSR2015_e1","CSR2015_e1_1",13,"glory",15,0,"distractor",3,925,"Include"
"CSR2015_e1","CSR2015_e1_1",13,"ration",16,1,"R1",4,1703,"Include"
"CSR2015_e1","CSR2015_e1_1",13,"vessel",17,0,"distractor",3,705,"Include"
"CSR2015_e1","CSR2015_e1_1",13,"sorrow",18,1,"R1",2,2915,"Include"
"CSR2015_e1","CSR2015_e1_1",13,"rabbit",19,0,"distractor",2,780,"Include"
"CSR2015_e1","CSR2015_e1_1",13,"theft",20,0,"distractor",3,1244,"Include"
"CSR2015_e1","CSR2015_e1_1",13,"essence",21,0,"distractor",2,905,"Include"
"CSR2015_e1","CSR2015_e1_1",13,"paint",22,0,"distractor",4,1763,"Include"
"CSR2015_e1","CSR2015_e1_1",13,"cook",23,1,"R2",3,843,"Include"
"CSR2015_e1","CSR2015_e1_1",13,"demon",24,1,"R4",6,1000,"Include"
"CSR2015_e1","CSR2015_e1_1",13,"tail",25,1,"R2",4,1502,"Include"
"CSR2015_e1","CSR2015_e1_1",13,"flag",26,1,"R4",4,944,"Include"
"CSR2015_e1","CSR2015_e1_1",13,"lawyer",27,1,"SS",6,1001,"Include"
"CSR2015_e1","CSR2015_e1_1",13,"cart",28,0,"distractor",4,1728,"Include"
"CSR2015_e1","CSR2015_e1_1",13,"form",29,0,"distractor",3,969,"Include"
"CSR2015_e1","CSR2015_e1_1",13,"fate",30,1,"R2",4,1072,"Include"
"CSR2015_e1","CSR2015_e1_1",13,"lung",31,1,"R1",3,1188,"Include"
"CSR2015_e1","CSR2015_e1_1",13,"concept",32,1,"R4",2,1283,"Include"
"CSR2015_e1","CSR2015_e1_1",13,"speaker",33,0,"distractor",2,1101,"Include"
"CSR2015_e1","CSR2015_e1_1",13,"gesture",34,0,"distractor",2,992,"Include"
"CSR2015_e1","CSR2015_e1_1",13,"cure",35,1,"SS",6,983,"Include"
"CSR2015_e1","CSR2015_e1_1",13,"banker",36,1,"R4",4,1006,"Include"
"CSR2015_e1","CSR2015_e1_1",13,"unrest",37,1,"SS",6,804,"Include"
"CSR2015_e1","CSR2015_e1_1",13,"extent",38,1,"R2",3,1347,"Include"
"CSR2015_e1","CSR2015_e1_1",13,"quill",39,0,"distractor",2,987,"Include"
"CSR2015_e1","CSR2015_e1_1",13,"teacher",40,1,"R1",3,1059,"Include"
"CSR2015_e1","CSR2015_e1_1",13,"nature",41,0,"distractor",3,1495,"Include"
"CSR2015_e1","CSR2015_e1_1",13,"disease",42,0,"distractor",2,969,"Include"
"CSR2015_e1","CSR2015_e1_1",13,"belly",43,1,"SS",6,849,"Include"
"CSR2015_e1","CSR2015_e1_1",13,"blonde",44,1,"R1",4,2094,"Include"
"CSR2015_e1","CSR2015_e1_1",13,"income",45,1,"R1",3,2392,"Include"
"CSR2015_e1","CSR2015_e1_1",13,"party",46,0,"distractor",3,997,"Include"
"CSR2015_e1","CSR2015_e1_1",13,"east",47,0,"distractor",3,1084,"Include"
"CSR2015_e1","CSR2015_e1_1",13,"tenure",48,1,"R1",2,1695,"Include"
"CSR2015_e1","CSR2015_e1_1",13,"tent",49,1,"R2",4,922,"Include"
"CSR2015_e1","CSR2015_e1_1",13,"oyster",50,1,"R4",5,1603,"Include"
"CSR2015_e1","CSR2015_e1_1",13,"sight",51,0,"distractor",4,1809,"Include"
"CSR2015_e1","CSR2015_e1_1",13,"judge",52,0,"distractor",4,2167,"Include"
"CSR2015_e1","CSR2015_e1_1",13,"lawn",53,0,"distractor",3,893,"Include"
"CSR2015_e1","CSR2015_e1_1",13,"temper",54,1,"R4",4,1257,"Include"
"CSR2015_e1","CSR2015_e1_1",13,"missile",55,0,"distractor",3,885,"Include"
"CSR2015_e1","CSR2015_e1_1",13,"hall",56,1,"SS",6,960,"Include"
"CSR2015_e1","CSR2015_e1_1",13,"weight",57,1,"R4",3,1944,"Include"
"CSR2015_e1","CSR2015_e1_1",13,"grudge",58,0,"distractor",3,1064,"Include"
"CSR2015_e1","CSR2015_e1_1",13,"treason",59,0,"distractor",2,1325,"Include"
"CSR2015_e1","CSR2015_e1_1",13,"coast",60,0,"distractor",3,982,"Include"
"CSR2015_e1","CSR2015_e1_1",13,"ghost",61,1,"R2",5,1533,"Include"
"CSR2015_e1","CSR2015_e1_1",13,"event",62,0,"distractor",4,3790,"Include"
"CSR2015_e1","CSR2015_e1_1",13,"thought",63,0,"distractor",3,722,"Include"
"CSR2015_e1","CSR2015_e1_1",13,"summit",64,1,"R2",3,1108,"Include"
"CSR2015_e1","CSR2015_e1_1",13,"ranch",65,1,"R1",4,886,"Include"
"CSR2015_e1","CSR2015_e1_1",13,"empire",66,0,"distractor",3,1249,"Include"
"CSR2015_e1","CSR2015_e1_1",13,"prince",67,1,"R2",4,1037,"Include"
"CSR2015_e1","CSR2015_e1_1",13,"hammer",68,1,"R1",3,3826,"Include"
"CSR2015_e1","CSR2015_e1_1",13,"bank",69,0,"distractor",4,996,"Include"
"CSR2015_e1","CSR2015_e1_1",13,"verse",70,0,"distractor",3,971,"Include"
"CSR2015_e1","CSR2015_e1_1",13,"leather",71,1,"R4",4,963,"Include"
"CSR2015_e1","CSR2015_e1_1",13,"duke",72,0,"distractor",3,748,"Include"
"CSR2015_e1","CSR2015_e1_1",13,"crime",73,1,"R1",4,860,"Include"
"CSR2015_e1","CSR2015_e1_1",13,"anger",74,0,"distractor",3,2041,"Include"
"CSR2015_e1","CSR2015_e1_1",13,"variety",75,1,"R2",4,1733,"Include"
"CSR2015_e1","CSR2015_e1_1",13,"base",76,0,"distractor",3,717,"Include"
"CSR2015_e1","CSR2015_e1_1",13,"interim",77,0,"distractor",2,895,"Include"
"CSR2015_e1","CSR2015_e1_1",13,"wool",78,0,"distractor",3,874,"Include"
"CSR2015_e1","CSR2015_e1_1",13,"series",79,0,"distractor",3,1526,"Include"
"CSR2015_e1","CSR2015_e1_1",13,"patent",80,0,"distractor",3,1063,"Include"
"CSR2015_e1","CSR2015_e1_1",13,"bargain",81,0,"distractor",3,1387,"Include"
"CSR2015_e1","CSR2015_e1_1",13,"wallet",82,1,"R2",4,850,"Include"
"CSR2015_e1","CSR2015_e1_1",13,"grave",83,1,"R4",6,1023,"Include"
"CSR2015_e1","CSR2015_e1_1",13,"skin",84,1,"R4",4,1092,"Include"
"CSR2015_e1","CSR2015_e1_1",14,"soup",1,0,"distractor",3,1087,"Include"
"CSR2015_e1","CSR2015_e1_1",14,"roof",2,1,"R2",4,994,"Include"
"CSR2015_e1","CSR2015_e1_1",14,"horse",3,0,"distractor",3,617,"Include"
"CSR2015_e1","CSR2015_e1_1",14,"token",4,0,"distractor",3,607,"Include"
"CSR2015_e1","CSR2015_e1_1",14,"pipe",5,1,"R1",3,790,"Include"
"CSR2015_e1","CSR2015_e1_1",14,"hail",6,1,"R4",4,901,"Include"
"CSR2015_e1","CSR2015_e1_1",14,"passion",7,1,"SS",6,831,"Include"
"CSR2015_e1","CSR2015_e1_1",14,"sketch",8,1,"R4",5,1277,"Include"
"CSR2015_e1","CSR2015_e1_1",14,"gloom",9,0,"distractor",3,1961,"Include"
"CSR2015_e1","CSR2015_e1_1",14,"neck",10,0,"distractor",3,1320,"Include"
"CSR2015_e1","CSR2015_e1_1",14,"mouth",11,0,"distractor",3,786,"Include"
"CSR2015_e1","CSR2015_e1_1",14,"rifle",12,0,"distractor",3,913,"Include"
"CSR2015_e1","CSR2015_e1_1",14,"message",13,1,"SS",6,1723,"Include"
"CSR2015_e1","CSR2015_e1_1",14,"ocean",14,1,"R1",5,1780,"Include"
"CSR2015_e1","CSR2015_e1_1",14,"moment",15,0,"distractor",3,923,"Include"
"CSR2015_e1","CSR2015_e1_1",14,"motor",16,1,"R2",4,1301,"Include"
"CSR2015_e1","CSR2015_e1_1",14,"summer",17,0,"distractor",3,943,"Include"
"CSR2015_e1","CSR2015_e1_1",14,"produce",18,0,"distractor",3,903,"Include"
"CSR2015_e1","CSR2015_e1_1",14,"delta",19,1,"SS",6,1587,"Include"
"CSR2015_e1","CSR2015_e1_1",14,"meet",20,0,"distractor",4,1520,"Include"
"CSR2015_e1","CSR2015_e1_1",14,"tree",21,1,"R1",3,1281,"Include"
"CSR2015_e1","CSR2015_e1_1",14,"snake",22,0,"distractor",3,1340,"Include"
"CSR2015_e1","CSR2015_e1_1",14,"priest",23,0,"distractor",3,837,"Include"
"CSR2015_e1","CSR2015_e1_1",14,"acre",24,1,"R2",3,2003,"Include"
"CSR2015_e1","CSR2015_e1_1",14,"novel",25,1,"R1",3,1088,"Include"
"CSR2015_e1","CSR2015_e1_1",14,"ring",26,1,"R2",3,2291,"Include"
"CSR2015_e1","CSR2015_e1_1",14,"king",27,0,"distractor",3,773,"Include"
"CSR2015_e1","CSR2015_e1_1",14,"time",28,1,"R2",5,1701,"Include"
"CSR2015_e1","CSR2015_e1_1",14,"step",29,1,"R1",4,1022,"Include"
"CSR2015_e1","CSR2015_e1_1",14,"group",30,0,"distractor",3,1268,"Include"
"CSR2015_e1","CSR2015_e1_1",14,"snow",31,1,"R2",6,1103,"Include"
"CSR2015_e1","CSR2015_e1_1",14,"corn",32,0,"distractor",4,1650,"Include"
"CSR2015_e1","CSR2015_e1_1",14,"face",33,0,"distractor",3,637,"Include"
"CSR2015_e1","CSR2015_e1_1",14,"cult",34,0,"distractor",3,819,"Include"
"CSR2015_e1","CSR2015_e1_1",14,"line",35,1,"R1",3,2145,"Include"
"CSR2015_e1","CSR2015_e1_1",14,"spite",36,1,"R4",4,1817,"Include"
"CSR2015_e1","CSR2015_e1_1",14,"storm",37,0,"distractor",3,1358,"Include"
"CSR2015_e1","CSR2015_e1_1",14,"profit",38,0,"distractor",3,1206,"Include"
"CSR2015_e1","CSR2015_e1_1",14,"ideal",39,0,"distractor",2,1028,"Include"
"CSR2015_e1","CSR2015_e1_1",14,"fruit",40,0,"distractor",3,953,"Include"
"CSR2015_e1","CSR2015_e1_1",14,"skirt",41,0,"distractor",4,962,"Include"
"CSR2015_e1","CSR2015_e1_1",14,"lure",42,1,"R4",4,842,"Include"
"CSR2015_e1","CSR2015_e1_1",14,"snap",43,1,"R4",4,1271,"Include"
"CSR2015_e1","CSR2015_e1_1",14,"fraud",44,0,"distractor",3,771,"Include"
"CSR2015_e1","CSR2015_e1_1",14,"fire",45,1,"SS",6,1075,"Include"
"CSR2015_e1","CSR2015_e1_1",14,"sheet",46,1,"R1",5,1078,"Include"
"CSR2015_e1","CSR2015_e1_1",14,"hint",47,0,"distractor",3,970,"Include"
"CSR2015_e1","CSR2015_e1_1",14,"symbol",48,0,"distractor",3,1234,"Include"
"CSR2015_e1","CSR2015_e1_1",14,"spring",49,1,"R2",3,1135,"Include"
"CSR2015_e1","CSR2015_e1_1",14,"friend",50,1,"R4",5,1119,"Include"
"CSR2015_e1","CSR2015_e1_1",14,"hazard",51,1,"R2",4,1233,"Include"
"CSR2015_e1","CSR2015_e1_1",14,"cattle",52,0,"distractor",4,1134,"Include"
"CSR2015_e1","CSR2015_e1_1",14,"village",53,1,"R1",3,735,"Include"
"CSR2015_e1","CSR2015_e1_1",14,"pact",54,0,"distractor",3,976,"Include"
"CSR2015_e1","CSR2015_e1_1",14,"drain",55,0,"distractor",4,1544,"Include"
"CSR2015_e1","CSR2015_e1_1",14,"threat",56,0,"distractor",3,2120,"Include"
"CSR2015_e1","CSR2015_e1_1",14,"name",57,1,"R2",4,897,"Include"
"CSR2015_e1","CSR2015_e1_1",14,"crown",58,0,"distractor",3,1884,"Include"
"CSR2015_e1","CSR2015_e1_1",14,"movie",59,1,"R2",3,1486,"Include"
"CSR2015_e1","CSR2015_e1_1",14,"mind",60,1,"R4",3,1985,"Include"
"CSR2015_e1","CSR2015_e1_1",14,"dollar",61,0,"distractor",3,1183,"Include"
"CSR2015_e1","CSR2015_e1_1",14,"phone",62,0,"distractor",3,1470,"Include"
"CSR2015_e1","CSR2015_e1_1",14,"beat",63,0,"distractor",3,2145,"Include"
"CSR2015_e1","CSR2015_e1_1",14,"flash",64,1,"R1",3,2249,"Include"
"CSR2015_e1","CSR2015_e1_1",14,"edition",65,1,"R4",4,2092,"Include"
"CSR2015_e1","CSR2015_e1_1",14,"reward",66,0,"distractor",3,615,"Include"
"CSR2015_e1","CSR2015_e1_1",14,"boot",67,0,"distractor",3,2029,"Include"
"CSR2015_e1","CSR2015_e1_1",14,"potato",68,1,"R1",4,1129,"Include"
"CSR2015_e1","CSR2015_e1_1",14,"stove",69,1,"R4",3,1387,"Include"
"CSR2015_e1","CSR2015_e1_1",14,"saddle",70,1,"R1",4,1986,"Include"
"CSR2015_e1","CSR2015_e1_1",14,"orange",71,0,"distractor",3,864,"Include"
"CSR2015_e1","CSR2015_e1_1",14,"doorway",72,1,"R4",4,1852,"Include"
"CSR2015_e1","CSR2015_e1_1",14,"plan",73,0,"distractor",3,720,"Include"
"CSR2015_e1","CSR2015_e1_1",14,"remedy",74,1,"R1",3,1042,"Include"
"CSR2015_e1","CSR2015_e1_1",14,"eagle",75,1,"R4",4,1175,"Include"
"CSR2015_e1","CSR2015_e1_1",14,"boss",76,0,"distractor",3,886,"Include"
"CSR2015_e1","CSR2015_e1_1",14,"sound",77,1,"SS",6,993,"Include"
"CSR2015_e1","CSR2015_e1_1",14,"closet",78,0,"distractor",3,1337,"Include"
"CSR2015_e1","CSR2015_e1_1",14,"thumb",79,1,"SS",5,1169,"Include"
"CSR2015_e1","CSR2015_e1_1",14,"peer",80,1,"R2",3,2273,"Include"
"CSR2015_e1","CSR2015_e1_1",14,"forest",81,1,"R4",4,1091,"Include"
"CSR2015_e1","CSR2015_e1_1",14,"water",82,0,"distractor",3,1046,"Include"
"CSR2015_e1","CSR2015_e1_1",14,"tennis",83,0,"distractor",3,1211,"Include"
"CSR2015_e1","CSR2015_e1_1",14,"payment",84,1,"R2",3,1785,"Include"
"CSR2015_e1","CSR2015_e1_2",1,"degree",1,0,"distractor",3,7175,"Include"
"CSR2015_e1","CSR2015_e1_2",1,"summit",2,1,"R4",6,2497,"Include"
"CSR2015_e1","CSR2015_e1_2",1,"badge",3,0,"distractor",3,3275,"Include"
"CSR2015_e1","CSR2015_e1_2",1,"sunburn",4,0,"distractor",2,2420,"Include"
"CSR2015_e1","CSR2015_e1_2",1,"stew",5,0,"distractor",2,1568,"Include"
"CSR2015_e1","CSR2015_e1_2",1,"scholar",6,1,"R1",3,1807,"Include"
"CSR2015_e1","CSR2015_e1_2",1,"pasture",7,1,"R1",5,2308,"Include"
"CSR2015_e1","CSR2015_e1_2",1,"desire",8,0,"distractor",3,2197,"Include"
"CSR2015_e1","CSR2015_e1_2",1,"trip",9,1,"SS",6,1467,"Include"
"CSR2015_e1","CSR2015_e1_2",1,"menace",10,1,"SS",6,815,"Include"
"CSR2015_e1","CSR2015_e1_2",1,"nail",11,0,"distractor",3,4748,"Include"
"CSR2015_e1","CSR2015_e1_2",1,"lace",12,1,"R2",6,1195,"Include"
"CSR2015_e1","CSR2015_e1_2",1,"speech",13,0,"distractor",3,1497,"Include"
"CSR2015_e1","CSR2015_e1_2",1,"sight",14,0,"distractor",3,1820,"Include"
"CSR2015_e1","CSR2015_e1_2",1,"pear",15,0,"distractor",3,1137,"Include"
"CSR2015_e1","CSR2015_e1_2",1,"film",16,1,"R4",6,1522,"Include"
"CSR2015_e1","CSR2015_e1_2",1,"soprano",17,0,"distractor",2,1843,"Include"
"CSR2015_e1","CSR2015_e1_2",1,"bridge",18,0,"distractor",4,1927,"Include"
"CSR2015_e1","CSR2015_e1_2",1,"steel",19,1,"R1",6,952,"Include"
"CSR2015_e1","CSR2015_e1_2",1,"show",20,1,"R4",5,1552,"Include"
"CSR2015_e1","CSR2015_e1_2",1,"house",21,0,"distractor",2,2464,"Include"
"CSR2015_e1","CSR2015_e1_2",1,"cell",22,1,"R1",6,955,"Include"
"CSR2015_e1","CSR2015_e1_2",1,"ditch",23,0,"distractor",2,2836,"Include"
"CSR2015_e1","CSR2015_e1_2",1,"travel",24,0,"distractor",3,2447,"Include"
"CSR2015_e1","CSR2015_e1_2",1,"history",25,0,"distractor",3,2379,"Include"
"CSR2015_e1","CSR2015_e1_2",1,"boss",26,0,"distractor",3,1497,"Include"
"CSR2015_e1","CSR2015_e1_2",1,"pump",27,1,"R2",4,2284,"Include"
"CSR2015_e1","CSR2015_e1_2",1,"wolf",28,0,"distractor",3,1341,"Include"
"CSR2015_e1","CSR2015_e1_2",1,"hand",29,0,"distractor",4,4278,"Include"
"CSR2015_e1","CSR2015_e1_2",1,"essence",30,0,"distractor",2,1367,"Include"
"CSR2015_e1","CSR2015_e1_2",1,"gait",31,1,"R2",6,1214,"Include"
"CSR2015_e1","CSR2015_e1_2",1,"soul",32,1,"R2",6,972,"Include"
"CSR2015_e1","CSR2015_e1_2",1,"cake",33,1,"SS",6,836,"Include"
"CSR2015_e1","CSR2015_e1_2",1,"tank",34,1,"R2",4,2913,"Include"
"CSR2015_e1","CSR2015_e1_2",1,"hammer",35,1,"R2",6,1034,"Include"
"CSR2015_e1","CSR2015_e1_2",1,"clash",36,0,"distractor",2,1711,"Include"
"CSR2015_e1","CSR2015_e1_2",1,"dome",37,0,"distractor",4,2120,"Include"
"CSR2015_e1","CSR2015_e1_2",1,"jail",38,0,"distractor",2,1201,"Include"
"CSR2015_e1","CSR2015_e1_2",1,"smoke",39,1,"R1",6,1519,"Include"
"CSR2015_e1","CSR2015_e1_2",1,"wealth",40,1,"R4",6,672,"Include"
"CSR2015_e1","CSR2015_e1_2",1,"bomb",41,1,"R4",6,788,"Include"
"CSR2015_e1","CSR2015_e1_2",1,"army",42,0,"distractor",2,1315,"Include"
"CSR2015_e1","CSR2015_e1_2",1,"trolley",43,0,"distractor",4,3021,"Include"
"CSR2015_e1","CSR2015_e1_2",1,"flash",44,1,"R2",6,913,"Include"
"CSR2015_e1","CSR2015_e1_2",1,"triumph",45,1,"R4",6,732,"Include"
"CSR2015_e1","CSR2015_e1_2",1,"buckle",46,1,"R4",6,685,"Include"
"CSR2015_e1","CSR2015_e1_2",1,"lotion",47,1,"R1",3,1905,"Include"
"CSR2015_e1","CSR2015_e1_2",1,"cement",48,1,"R1",2,1539,"Include"
"CSR2015_e1","CSR2015_e1_2",1,"feeling",49,1,"R1",2,1075,"Include"
"CSR2015_e1","CSR2015_e1_2",1,"paste",50,0,"distractor",1,1687,"Include"
"CSR2015_e1","CSR2015_e1_2",1,"quarrel",51,0,"distractor",1,1761,"Include"
"CSR2015_e1","CSR2015_e1_2",1,"bang",52,1,"R2",6,857,"Include"
"CSR2015_e1","CSR2015_e1_2",1,"sheet",53,1,"R2",6,949,"Include"
"CSR2015_e1","CSR2015_e1_2",1,"cone",54,1,"R4",6,702,"Include"
"CSR2015_e1","CSR2015_e1_2",1,"proxy",55,0,"distractor",2,1312,"Include"
"CSR2015_e1","CSR2015_e1_2",1,"camera",56,1,"R1",3,3226,"Include"
"CSR2015_e1","CSR2015_e1_2",1,"adult",57,0,"distractor",2,1206,"Include"
"CSR2015_e1","CSR2015_e1_2",1,"silence",58,0,"distractor",4,2548,"Include"
"CSR2015_e1","CSR2015_e1_2",1,"money",59,1,"SS",6,1292,"Include"
"CSR2015_e1","CSR2015_e1_2",1,"beast",60,1,"R4",6,742,"Include"
"CSR2015_e1","CSR2015_e1_2",1,"fork",61,1,"R2",2,1624,"Include"
"CSR2015_e1","CSR2015_e1_2",1,"mustard",62,1,"SS",6,1012,"Include"
"CSR2015_e1","CSR2015_e1_2",1,"duty",63,1,"R1",6,1130,"Include"
"CSR2015_e1","CSR2015_e1_2",1,"infant",64,1,"R4",6,780,"Include"
"CSR2015_e1","CSR2015_e1_2",1,"gulf",65,1,"R4",6,652,"Include"
"CSR2015_e1","CSR2015_e1_2",1,"spirit",66,0,"distractor",3,2016,"Include"
"CSR2015_e1","CSR2015_e1_2",1,"waist",67,0,"distractor",2,1229,"Include"
"CSR2015_e1","CSR2015_e1_2",1,"volume",68,0,"distractor",2,955,"Include"
"CSR2015_e1","CSR2015_e1_2",1,"rate",69,0,"distractor",3,2323,"Include"
"CSR2015_e1","CSR2015_e1_2",1,"shot",70,0,"distractor",3,1507,"Include"
"CSR2015_e1","CSR2015_e1_2",1,"animal",71,1,"R1",6,1093,"Include"
"CSR2015_e1","CSR2015_e1_2",1,"force",72,1,"R2",4,2120,"Include"
"CSR2015_e1","CSR2015_e1_2",1,"concert",73,0,"distractor",3,1569,"Include"
"CSR2015_e1","CSR2015_e1_2",1,"lobby",74,1,"R4",6,896,"Include"
"CSR2015_e1","CSR2015_e1_2",1,"cradle",75,0,"distractor",5,1995,"Include"
"CSR2015_e1","CSR2015_e1_2",1,"bump",76,0,"distractor",4,2665,"Include"
"CSR2015_e1","CSR2015_e1_2",1,"nerve",77,0,"distractor",2,1212,"Include"
"CSR2015_e1","CSR2015_e1_2",1,"mast",78,0,"distractor",3,1450,"Include"
"CSR2015_e1","CSR2015_e1_2",1,"butcher",79,0,"distractor",1,2382,"Include"
"CSR2015_e1","CSR2015_e1_2",1,"ration",80,1,"R1",3,1644,"Include"
"CSR2015_e1","CSR2015_e1_2",1,"stomach",81,1,"R2",6,1049,"Include"
"CSR2015_e1","CSR2015_e1_2",1,"pride",82,1,"SS",6,749,"Include"
"CSR2015_e1","CSR2015_e1_2",1,"hall",83,0,"distractor",4,3038,"Include"
"CSR2015_e1","CSR2015_e1_2",1,"income",84,0,"distractor",3,1441,"Include"
"CSR2015_e1","CSR2015_e1_2",2,"waste",1,1,"R1",6,1953,"Include"
"CSR2015_e1","CSR2015_e1_2",2,"tooth",2,0,"distractor",3,1552,"Include"
"CSR2015_e1","CSR2015_e1_2",2,"scout",3,0,"distractor",2,1312,"Include"
"CSR2015_e1","CSR2015_e1_2",2,"racket",4,0,"distractor",2,1050,"Include"
"CSR2015_e1","CSR2015_e1_2",2,"mercy",5,1,"R4",6,1039,"Include"
"CSR2015_e1","CSR2015_e1_2",2,"beauty",6,1,"R4",6,996,"Include"
"CSR2015_e1","CSR2015_e1_2",2,"wage",7,1,"R2",4,1339,"Include"
"CSR2015_e1","CSR2015_e1_2",2,"rubber",8,1,"R2",6,947,"Include"
"CSR2015_e1","CSR2015_e1_2",2,"jury",9,0,"distractor",2,1932,"Include"
"CSR2015_e1","CSR2015_e1_2",2,"rain",10,0,"distractor",2,1069,"Include"
"CSR2015_e1","CSR2015_e1_2",2,"owner",11,1,"R4",6,1216,"Include"
"CSR2015_e1","CSR2015_e1_2",2,"insight",12,1,"R4",6,669,"Include"
"CSR2015_e1","CSR2015_e1_2",2,"marble",13,1,"R4",6,625,"Include"
"CSR2015_e1","CSR2015_e1_2",2,"strand",14,0,"distractor",3,1415,"Include"
"CSR2015_e1","CSR2015_e1_2",2,"turtle",15,1,"SS",6,862,"Include"
"CSR2015_e1","CSR2015_e1_2",2,"birth",16,0,"distractor",4,3353,"Include"
"CSR2015_e1","CSR2015_e1_2",2,"ranch",17,1,"R2",5,1695,"Include"
"CSR2015_e1","CSR2015_e1_2",2,"sound",18,0,"distractor",2,1402,"Include"
"CSR2015_e1","CSR2015_e1_2",2,"theme",19,1,"R4",6,1904,"Include"
"CSR2015_e1","CSR2015_e1_2",2,"move",20,1,"SS",6,737,"Include"
"CSR2015_e1","CSR2015_e1_2",2,"lodge",21,0,"distractor",1,1602,"Include"
"CSR2015_e1","CSR2015_e1_2",2,"aspect",22,0,"distractor",4,1392,"Include"
"CSR2015_e1","CSR2015_e1_2",2,"upkeep",23,1,"R2",5,1031,"Include"
"CSR2015_e1","CSR2015_e1_2",2,"lumber",24,0,"distractor",5,1212,"Include"
"CSR2015_e1","CSR2015_e1_2",2,"week",25,1,"R2",6,955,"Include"
"CSR2015_e1","CSR2015_e1_2",2,"steeple",26,0,"distractor",3,1347,"Include"
"CSR2015_e1","CSR2015_e1_2",2,"suspect",27,0,"distractor",3,780,"Include"
"CSR2015_e1","CSR2015_e1_2",2,"opium",28,1,"R1",2,1212,"Include"
"CSR2015_e1","CSR2015_e1_2",2,"nose",29,0,"distractor",3,1626,"Include"
"CSR2015_e1","CSR2015_e1_2",2,"dread",30,1,"R2",5,1415,"Include"
"CSR2015_e1","CSR2015_e1_2",2,"chest",31,1,"R1",3,1292,"Include"
"CSR2015_e1","CSR2015_e1_2",2,"seller",32,1,"SS",6,887,"Include"
"CSR2015_e1","CSR2015_e1_2",2,"theft",33,0,"distractor",4,2114,"Include"
"CSR2015_e1","CSR2015_e1_2",2,"medal",34,1,"SS",6,939,"Include"
"CSR2015_e1","CSR2015_e1_2",2,"globe",35,1,"R4",6,1205,"Include"
"CSR2015_e1","CSR2015_e1_2",2,"nature",36,1,"R1",4,1779,"Include"
"CSR2015_e1","CSR2015_e1_2",2,"ability",37,0,"distractor",3,1274,"Include"
"CSR2015_e1","CSR2015_e1_2",2,"mood",38,0,"distractor",2,1557,"Include"
"CSR2015_e1","CSR2015_e1_2",2,"impetus",39,1,"R4",6,885,"Include"
"CSR2015_e1","CSR2015_e1_2",2,"grass",40,1,"R1",3,1680,"Include"
"CSR2015_e1","CSR2015_e1_2",2,"limb",41,1,"R2",5,1499,"Include"
"CSR2015_e1","CSR2015_e1_2",2,"bullet",42,1,"R1",4,1373,"Include"
"CSR2015_e1","CSR2015_e1_2",2,"leaf",43,0,"distractor",4,1604,"Include"
"CSR2015_e1","CSR2015_e1_2",2,"mirror",44,0,"distractor",3,1234,"Include"
"CSR2015_e1","CSR2015_e1_2",2,"pattern",45,0,"distractor",2,1199,"Include"
"CSR2015_e1","CSR2015_e1_2",2,"capital",46,0,"distractor",3,1149,"Include"
"CSR2015_e1","CSR2015_e1_2",2,"water",47,0,"distractor",5,3069,"Include"
"CSR2015_e1","CSR2015_e1_2",2,"poverty",48,0,"distractor",2,1295,"Include"
"CSR2015_e1","CSR2015_e1_2",2,"alley",49,0,"distractor",4,1114,"Include"
"CSR2015_e1","CSR2015_e1_2",2,"toll",50,1,"SS",6,844,"Include"
"CSR2015_e1","CSR2015_e1_2",2,"crew",51,0,"distractor",4,2553,"Include"
"CSR2015_e1","CSR2015_e1_2",2,"skill",52,0,"distractor",3,976,"Include"
"CSR2015_e1","CSR2015_e1_2",2,"charm",53,0,"distractor",2,1288,"Include"
"CSR2015_e1","CSR2015_e1_2",2,"special",54,0,"distractor",3,1091,"Include"
"CSR2015_e1","CSR2015_e1_2",2,"arbiter",55,1,"R4",6,998,"Include"
"CSR2015_e1","CSR2015_e1_2",2,"veto",56,0,"distractor",1,1533,"Include"
"CSR2015_e1","CSR2015_e1_2",2,"factor",57,0,"distractor",2,1293,"Include"
"CSR2015_e1","CSR2015_e1_2",2,"paradox",58,1,"R1",5,1640,"Include"
"CSR2015_e1","CSR2015_e1_2",2,"navy",59,1,"R2",6,1060,"Include"
"CSR2015_e1","CSR2015_e1_2",2,"time",60,0,"distractor",3,1161,"Include"
"CSR2015_e1","CSR2015_e1_2",2,"purse",61,0,"distractor",3,809,"Include"
"CSR2015_e1","CSR2015_e1_2",2,"palm",62,0,"distractor",3,1607,"Include"
"CSR2015_e1","CSR2015_e1_2",2,"cafe",63,0,"distractor",3,837,"Include"
"CSR2015_e1","CSR2015_e1_2",2,"muscle",64,1,"R2",5,1666,"Include"
"CSR2015_e1","CSR2015_e1_2",2,"revenge",65,0,"distractor",3,1069,"Include"
"CSR2015_e1","CSR2015_e1_2",2,"palace",66,1,"R4",6,1425,"Include"
"CSR2015_e1","CSR2015_e1_2",2,"anger",67,0,"distractor",3,1094,"Include"
"CSR2015_e1","CSR2015_e1_2",2,"fraud",68,1,"R1",5,1097,"Include"
"CSR2015_e1","CSR2015_e1_2",2,"tiger",69,1,"SS",6,860,"Include"
"CSR2015_e1","CSR2015_e1_2",2,"leather",70,1,"R1",6,937,"Include"
"CSR2015_e1","CSR2015_e1_2",2,"emotion",71,1,"R1",3,1778,"Include"
"CSR2015_e1","CSR2015_e1_2",2,"amateur",72,1,"R1",6,920,"Include"
"CSR2015_e1","CSR2015_e1_2",2,"baby",73,1,"R4",5,1858,"Include"
"CSR2015_e1","CSR2015_e1_2",2,"sofa",74,1,"R4",6,773,"Include"
"CSR2015_e1","CSR2015_e1_2",2,"file",75,0,"distractor",3,949,"Include"
"CSR2015_e1","CSR2015_e1_2",2,"irony",76,0,"distractor",3,1006,"Include"
"CSR2015_e1","CSR2015_e1_2",2,"hour",77,1,"R2",3,1412,"Include"
"CSR2015_e1","CSR2015_e1_2",2,"grade",78,0,"distractor",3,842,"Include"
"CSR2015_e1","CSR2015_e1_2",2,"ceiling",79,0,"distractor",3,967,"Include"
"CSR2015_e1","CSR2015_e1_2",2,"cloud",80,0,"distractor",3,975,"Include"
"CSR2015_e1","CSR2015_e1_2",2,"play",81,1,"R2",3,3015,"Include"
"CSR2015_e1","CSR2015_e1_2",2,"affair",82,1,"R1",6,875,"Include"
"CSR2015_e1","CSR2015_e1_2",2,"coat",83,1,"R2",6,1031,"Include"
"CSR2015_e1","CSR2015_e1_2",2,"mystery",84,0,"distractor",3,1069,"Include"
"CSR2015_e1","CSR2015_e1_2",3,"removal",1,1,"R2",4,1863,"Include"
"CSR2015_e1","CSR2015_e1_2",3,"fence",2,0,"distractor",3,1018,"Include"
"CSR2015_e1","CSR2015_e1_2",3,"pound",3,1,"R4",6,976,"Include"
"CSR2015_e1","CSR2015_e1_2",3,"drug",4,0,"distractor",1,1464,"Include"
"CSR2015_e1","CSR2015_e1_2",3,"mantle",5,0,"distractor",2,1212,"Include"
"CSR2015_e1","CSR2015_e1_2",3,"exhibit",6,0,"distractor",3,1210,"Include"
"CSR2015_e1","CSR2015_e1_2",3,"moment",7,1,"R4",6,1144,"Include"
"CSR2015_e1","CSR2015_e1_2",3,"wave",8,1,"SS",6,681,"Include"
"CSR2015_e1","CSR2015_e1_2",3,"horse",9,0,"distractor",3,1149,"Include"
"CSR2015_e1","CSR2015_e1_2",3,"anxiety",10,0,"distractor",1,1613,"Include"
"CSR2015_e1","CSR2015_e1_2",3,"squire",11,1,"R4",6,1099,"Include"
"CSR2015_e1","CSR2015_e1_2",3,"writing",12,0,"distractor",2,1261,"Include"
"CSR2015_e1","CSR2015_e1_2",3,"heat",13,0,"distractor",3,1625,"Include"
"CSR2015_e1","CSR2015_e1_2",3,"food",14,1,"R4",6,887,"Include"
"CSR2015_e1","CSR2015_e1_2",3,"hunger",15,0,"distractor",3,1730,"Include"
"CSR2015_e1","CSR2015_e1_2",3,"yard",16,1,"R1",6,875,"Include"
"CSR2015_e1","CSR2015_e1_2",3,"camp",17,0,"distractor",3,886,"Include"
"CSR2015_e1","CSR2015_e1_2",3,"liberty",18,1,"R2",6,706,"Include"
"CSR2015_e1","CSR2015_e1_2",3,"idea",19,0,"distractor",3,1812,"Include"
"CSR2015_e1","CSR2015_e1_2",3,"sewer",20,0,"distractor",4,1786,"Include"
"CSR2015_e1","CSR2015_e1_2",3,"judge",21,1,"R1",6,976,"Include"
"CSR2015_e1","CSR2015_e1_2",3,"work",22,0,"distractor",3,1112,"Include"
"CSR2015_e1","CSR2015_e1_2",3,"tent",23,1,"R4",6,842,"Include"
"CSR2015_e1","CSR2015_e1_2",3,"tide",24,0,"distractor",3,1063,"Include"
"CSR2015_e1","CSR2015_e1_2",3,"planet",25,0,"distractor",5,2060,"Include"
"CSR2015_e1","CSR2015_e1_2",3,"slit",26,0,"distractor",2,1639,"Include"
"CSR2015_e1","CSR2015_e1_2",3,"devil",27,0,"distractor",1,1091,"Include"
"CSR2015_e1","CSR2015_e1_2",3,"century",28,1,"SS",6,806,"Include"
"CSR2015_e1","CSR2015_e1_2",3,"test",29,1,"R2",6,852,"Include"
"CSR2015_e1","CSR2015_e1_2",3,"temper",30,0,"distractor",2,1089,"Include"
"CSR2015_e1","CSR2015_e1_2",3,"crown",31,1,"SS",6,820,"Include"
"CSR2015_e1","CSR2015_e1_2",3,"angel",32,0,"distractor",3,1650,"Include"
"CSR2015_e1","CSR2015_e1_2",3,"guilt",33,0,"distractor",3,989,"Include"
"CSR2015_e1","CSR2015_e1_2",3,"prison",34,0,"distractor",3,884,"Include"
"CSR2015_e1","CSR2015_e1_2",3,"chain",35,0,"distractor",3,783,"Include"
"CSR2015_e1","CSR2015_e1_2",3,"stem",36,0,"distractor",3,1183,"Include"
"CSR2015_e1","CSR2015_e1_2",3,"crisis",37,0,"distractor",3,798,"Include"
"CSR2015_e1","CSR2015_e1_2",3,"winter",38,0,"distractor",3,1277,"Include"
"CSR2015_e1","CSR2015_e1_2",3,"victim",39,0,"distractor",4,1736,"Include"
"CSR2015_e1","CSR2015_e1_2",3,"drama",40,1,"R4",6,1089,"Include"
"CSR2015_e1","CSR2015_e1_2",3,"sack",41,0,"distractor",3,1091,"Include"
"CSR2015_e1","CSR2015_e1_2",3,"dispute",42,1,"R2",5,2838,"Include"
"CSR2015_e1","CSR2015_e1_2",3,"roof",43,1,"R2",6,1041,"Include"
"CSR2015_e1","CSR2015_e1_2",3,"letter",44,0,"distractor",3,1238,"Include"
"CSR2015_e1","CSR2015_e1_2",3,"shore",45,1,"R2",6,786,"Include"
"CSR2015_e1","CSR2015_e1_2",3,"revenue",46,0,"distractor",2,1714,"Include"
"CSR2015_e1","CSR2015_e1_2",3,"door",47,0,"distractor",4,1835,"Include"
"CSR2015_e1","CSR2015_e1_2",3,"match",48,1,"R2",4,1248,"Include"
"CSR2015_e1","CSR2015_e1_2",3,"sleeve",49,1,"R4",6,812,"Include"
"CSR2015_e1","CSR2015_e1_2",3,"disc",50,0,"distractor",3,1291,"Include"
"CSR2015_e1","CSR2015_e1_2",3,"coil",51,1,"R1",4,1142,"Include"
"CSR2015_e1","CSR2015_e1_2",3,"easel",52,1,"R2",6,919,"Include"
"CSR2015_e1","CSR2015_e1_2",3,"cloth",53,0,"distractor",5,1264,"Include"
"CSR2015_e1","CSR2015_e1_2",3,"errand",54,1,"R1",6,780,"Include"
"CSR2015_e1","CSR2015_e1_2",3,"purpose",55,0,"distractor",3,1324,"Include"
"CSR2015_e1","CSR2015_e1_2",3,"rent",56,0,"distractor",3,1110,"Include"
"CSR2015_e1","CSR2015_e1_2",3,"denial",57,0,"distractor",5,1736,"Include"
"CSR2015_e1","CSR2015_e1_2",3,"nation",58,0,"distractor",3,992,"Include"
"CSR2015_e1","CSR2015_e1_2",3,"sister",59,1,"SS",6,871,"Include"
"CSR2015_e1","CSR2015_e1_2",3,"bolt",60,1,"SS",6,723,"Include"
"CSR2015_e1","CSR2015_e1_2",3,"rust",61,1,"R1",6,821,"Include"
"CSR2015_e1","CSR2015_e1_2",3,"statue",62,1,"R2",6,707,"Include"
"CSR2015_e1","CSR2015_e1_2",3,"expanse",63,1,"R4",6,694,"Include"
"CSR2015_e1","CSR2015_e1_2",3,"spell",64,1,"R4",6,761,"Include"
"CSR2015_e1","CSR2015_e1_2",3,"riot",65,0,"distractor",3,954,"Include"
"CSR2015_e1","CSR2015_e1_2",3,"sponge",66,1,"R1",3,2994,"Include"
"CSR2015_e1","CSR2015_e1_2",3,"series",67,0,"distractor",4,8759,"Include"
"CSR2015_e1","CSR2015_e1_2",3,"interim",68,1,"R1",6,1088,"Include"
"CSR2015_e1","CSR2015_e1_2",3,"sheep",69,1,"R1",5,1219,"Include"
"CSR2015_e1","CSR2015_e1_2",3,"revolt",70,0,"distractor",3,5713,"Include"
"CSR2015_e1","CSR2015_e1_2",3,"ballot",71,0,"distractor",5,3078,"Include"
"CSR2015_e1","CSR2015_e1_2",3,"mileage",72,0,"distractor",2,1192,"Include"
"CSR2015_e1","CSR2015_e1_2",3,"scar",73,1,"R1",5,1399,"Include"
"CSR2015_e1","CSR2015_e1_2",3,"lock",74,1,"R1",2,1117,"Include"
"CSR2015_e1","CSR2015_e1_2",3,"deed",75,1,"R2",5,1327,"Include"
"CSR2015_e1","CSR2015_e1_2",3,"bench",76,0,"distractor",2,952,"Include"
"CSR2015_e1","CSR2015_e1_2",3,"concept",77,1,"R1",2,1168,"Include"
"CSR2015_e1","CSR2015_e1_2",3,"spire",78,1,"SS",6,864,"Include"
"CSR2015_e1","CSR2015_e1_2",3,"quill",79,1,"R2",6,812,"Include"
"CSR2015_e1","CSR2015_e1_2",3,"teacher",80,1,"R4",6,587,"Include"
"CSR2015_e1","CSR2015_e1_2",3,"entry",81,1,"R1",2,1314,"Include"
"CSR2015_e1","CSR2015_e1_2",3,"opinion",82,1,"R4",6,1132,"Include"
"CSR2015_e1","CSR2015_e1_2",3,"vessel",83,1,"R4",6,653,"Include"
"CSR2015_e1","CSR2015_e1_2",3,"account",84,1,"R2",5,2642,"Include"
"CSR2015_e1","CSR2015_e1_2",4,"paint",1,0,"distractor",5,2731,"Include"
"CSR2015_e1","CSR2015_e1_2",4,"realm",2,0,"distractor",2,1755,"Include"
"CSR2015_e1","CSR2015_e1_2",4,"rail",3,0,"distractor",2,1283,"Include"
"CSR2015_e1","CSR2015_e1_2",4,"hill",4,0,"distractor",3,2189,"Include"
"CSR2015_e1","CSR2015_e1_2",4,"jacket",5,1,"R4",6,963,"Include"
"CSR2015_e1","CSR2015_e1_2",4,"summer",6,1,"R2",6,1532,"Include"
"CSR2015_e1","CSR2015_e1_2",4,"injury",7,0,"distractor",3,1180,"Include"
"CSR2015_e1","CSR2015_e1_2",4,"pint",8,1,"R1",6,940,"Include"
"CSR2015_e1","CSR2015_e1_2",4,"myth",9,1,"SS",6,5078,"Include"
"CSR2015_e1","CSR2015_e1_2",4,"voice",10,1,"SS",6,1141,"Include"
"CSR2015_e1","CSR2015_e1_2",4,"veteran",11,1,"R2",5,1254,"Include"
"CSR2015_e1","CSR2015_e1_2",4,"style",12,1,"R4",6,850,"Include"
"CSR2015_e1","CSR2015_e1_2",4,"side",13,1,"SS",6,703,"Include"
"CSR2015_e1","CSR2015_e1_2",4,"college",14,1,"R1",5,2210,"Include"
