"exp","id","item","trial","isold","condition1","rating","RT","excluding"
"D2007_e1a","D2007_e1a_1","PRESENT",1,1,"HighFreq",5,4790,"Include"
"D2007_e1a","D2007_e1a_1","DESPISE",2,0,"LowFreq",2,4269,"Include"
"D2007_e1a","D2007_e1a_1","CONVICT",3,0,"LowFreq",3,6421,"Include"
"D2007_e1a","D2007_e1a_1","UNLESS",4,0,"HighFreq",3,1775,"Include"
"D2007_e1a","D2007_e1a_1","FURTHER",5,0,"HighFreq",4,2826,"Include"
"D2007_e1a","D2007_e1a_1","LATHER",6,1,"LowFreq",6,2023,"Include"
"D2007_e1a","D2007_e1a_1","FRENZY",7,1,"LowFreq",6,953,"Include"
"D2007_e1a","D2007_e1a_1","ILLICIT",8,1,"LowFreq",6,844,"Include"
"D2007_e1a","D2007_e1a_1","GARNER",9,1,"LowFreq",6,761,"Include"
"D2007_e1a","D2007_e1a_1","BECAME",10,1,"HighFreq",1,2205,"Include"
"D2007_e1a","D2007_e1a_1","GRATE",11,1,"LowFreq",4,2754,"Include"
"D2007_e1a","D2007_e1a_1","DEDUCE",12,0,"LowFreq",1,1625,"Include"
"D2007_e1a","D2007_e1a_1","CERTIFY",13,0,"LowFreq",2,2323,"Include"
"D2007_e1a","D2007_e1a_1","ABOVE",14,0,"HighFreq",3,2298,"Include"
"D2007_e1a","D2007_e1a_1","PARTY",15,0,"HighFreq",1,1666,"Include"
"D2007_e1a","D2007_e1a_1","DRIVE",16,0,"HighFreq",3,3460,"Include"
"D2007_e1a","D2007_e1a_1","COMPANY",17,0,"HighFreq",1,1240,"Include"
"D2007_e1a","D2007_e1a_1","LIKELY",18,0,"HighFreq",2,3438,"Include"
"D2007_e1a","D2007_e1a_1","SPRING",19,0,"HighFreq",2,3276,"Include"
"D2007_e1a","D2007_e1a_1","SEASON",20,0,"HighFreq",1,1317,"Include"
"D2007_e1a","D2007_e1a_1","TALLY",21,0,"LowFreq",1,831,"Include"
"D2007_e1a","D2007_e1a_1","DAILY",22,1,"HighFreq",6,2372,"Include"
"D2007_e1a","D2007_e1a_1","WAGER",23,1,"LowFreq",5,1927,"Include"
"D2007_e1a","D2007_e1a_1","PLANE",24,0,"HighFreq",1,1336,"Include"
"D2007_e1a","D2007_e1a_1","VOICE",25,1,"HighFreq",3,3069,"Include"
"D2007_e1a","D2007_e1a_1","SCOOP",26,0,"LowFreq",1,1483,"Include"
"D2007_e1a","D2007_e1a_1","IMPAIR",27,0,"LowFreq",3,3255,"Include"
"D2007_e1a","D2007_e1a_1","PADDLE",28,0,"LowFreq",3,2650,"Include"
"D2007_e1a","D2007_e1a_1","OUTSIDE",29,1,"HighFreq",5,2509,"Include"
"D2007_e1a","D2007_e1a_1","EXALT",30,1,"LowFreq",3,2238,"Include"
"D2007_e1a","D2007_e1a_1","BORROW",31,0,"LowFreq",3,2119,"Include"
"D2007_e1a","D2007_e1a_1","LARGE",32,1,"HighFreq",3,3980,"Include"
"D2007_e1a","D2007_e1a_1","CLICK",33,0,"LowFreq",5,2410,"Include"
"D2007_e1a","D2007_e1a_1","HEAVE",34,1,"LowFreq",6,1432,"Include"
"D2007_e1a","D2007_e1a_1","THROUGH",35,0,"HighFreq",3,3751,"Include"
"D2007_e1a","D2007_e1a_1","BANISH",36,1,"LowFreq",5,2477,"Include"
"D2007_e1a","D2007_e1a_1","SHABBY",37,1,"LowFreq",6,1662,"Include"
"D2007_e1a","D2007_e1a_1","DISTORT",38,0,"LowFreq",3,3202,"Include"
"D2007_e1a","D2007_e1a_1","BLATANT",39,1,"LowFreq",6,1541,"Include"
"D2007_e1a","D2007_e1a_1","FLUENT",40,1,"LowFreq",6,933,"Include"
"D2007_e1a","D2007_e1a_1","EFFORT",41,1,"HighFreq",3,2388,"Include"
"D2007_e1a","D2007_e1a_1","SINCE",42,1,"HighFreq",5,1931,"Include"
"D2007_e1a","D2007_e1a_1","PLACE",43,1,"HighFreq",3,2970,"Include"
"D2007_e1a","D2007_e1a_1","RANGE",44,1,"HighFreq",5,1704,"Include"
"D2007_e1a","D2007_e1a_1","PONDER",45,0,"LowFreq",3,2590,"Include"
"D2007_e1a","D2007_e1a_1","REFINE",46,0,"LowFreq",3,1680,"Include"
"D2007_e1a","D2007_e1a_1","ANOMALY",47,0,"LowFreq",1,2399,"Include"
"D2007_e1a","D2007_e1a_1","UNDER",48,1,"HighFreq",3,2622,"Include"
"D2007_e1a","D2007_e1a_1","MOMENT",49,1,"HighFreq",3,4053,"Include"
"D2007_e1a","D2007_e1a_1","ENDOW",50,1,"LowFreq",5,1728,"Include"
"D2007_e1a","D2007_e1a_1","SUPPLY",51,0,"HighFreq",3,2873,"Include"
"D2007_e1a","D2007_e1a_1","DECREE",52,1,"LowFreq",3,4870,"Include"
"D2007_e1a","D2007_e1a_1","GROUND",53,1,"HighFreq",5,1307,"Include"
"D2007_e1a","D2007_e1a_1","WEAVE",54,0,"LowFreq",6,1501,"Include"
"D2007_e1a","D2007_e1a_1","FROLIC",55,0,"LowFreq",3,2027,"Include"
"D2007_e1a","D2007_e1a_1","EXPECT",56,0,"HighFreq",3,2049,"Include"
"D2007_e1a","D2007_e1a_1","MAJOR",57,0,"HighFreq",5,1908,"Include"
"D2007_e1a","D2007_e1a_1","GREED",58,0,"LowFreq",5,1262,"Include"
"D2007_e1a","D2007_e1a_1","CLENCH",59,1,"LowFreq",6,1237,"Include"
"D2007_e1a","D2007_e1a_1","NEVER",60,1,"HighFreq",3,4082,"Include"
"D2007_e1a","D2007_e1a_1","SINGLE",61,0,"HighFreq",3,1184,"Include"
"D2007_e1a","D2007_e1a_1","ACCLAIM",62,0,"LowFreq",3,3937,"Include"
"D2007_e1a","D2007_e1a_1","INSIDE",63,0,"HighFreq",3,1788,"Include"
"D2007_e1a","D2007_e1a_1","BETWEEN",64,0,"HighFreq",2,2679,"Include"
"D2007_e1a","D2007_e1a_1","DOUBT",65,1,"HighFreq",6,1356,"Include"
"D2007_e1a","D2007_e1a_1","RECENT",66,1,"HighFreq",3,3979,"Include"
"D2007_e1a","D2007_e1a_1","FOUND",67,1,"HighFreq",4,1959,"Include"
"D2007_e1a","D2007_e1a_1","LATER",68,0,"HighFreq",4,2532,"Include"
"D2007_e1a","D2007_e1a_1","NUANCE",69,0,"LowFreq",5,2247,"Include"
"D2007_e1a","D2007_e1a_1","FIRST",70,0,"HighFreq",3,4137,"Include"
"D2007_e1a","D2007_e1a_1","ABOUND",71,1,"LowFreq",3,1516,"Include"
"D2007_e1a","D2007_e1a_1","FARCE",72,1,"LowFreq",3,1204,"Include"
"D2007_e1a","D2007_e1a_1","LAVISH",73,0,"LowFreq",6,1433,"Include"
"D2007_e1a","D2007_e1a_1","CONTEND",74,1,"LowFreq",6,1423,"Include"
"D2007_e1a","D2007_e1a_1","SHREWD",75,0,"LowFreq",3,1802,"Include"
"D2007_e1a","D2007_e1a_1","GROUP",76,0,"HighFreq",3,1499,"Include"
"D2007_e1a","D2007_e1a_1","MACHINE",77,1,"HighFreq",3,3864,"Include"
"D2007_e1a","D2007_e1a_1","CALLOUS",78,1,"LowFreq",6,1405,"Include"
"D2007_e1a","D2007_e1a_1","PRESS",79,0,"HighFreq",2,2178,"Include"
"D2007_e1a","D2007_e1a_1","UNISON",80,1,"LowFreq",3,1873,"Include"
"D2007_e1a","D2007_e1a_1","PACIFY",81,1,"LowFreq",4,2924,"Include"
"D2007_e1a","D2007_e1a_1","LIGHT",82,1,"HighFreq",2,2439,"Include"
"D2007_e1a","D2007_e1a_1","EITHER",83,0,"HighFreq",3,8257,"Include"
"D2007_e1a","D2007_e1a_1","INDEED",84,1,"HighFreq",5,1278,"Include"
"D2007_e1a","D2007_e1a_1","NORMAL",85,0,"HighFreq",3,2022,"Include"
"D2007_e1a","D2007_e1a_1","VOLUME",86,0,"HighFreq",2,1356,"Include"
"D2007_e1a","D2007_e1a_1","HIGHER",87,1,"HighFreq",3,1503,"Include"
"D2007_e1a","D2007_e1a_1","FLURRY",88,0,"LowFreq",1,1493,"Include"
"D2007_e1a","D2007_e1a_1","SUBJECT",89,1,"HighFreq",3,3173,"Include"
"D2007_e1a","D2007_e1a_1","AMONG",90,0,"HighFreq",3,1894,"Include"
"D2007_e1a","D2007_e1a_1","HISTORY",91,0,"HighFreq",3,4592,"Include"
"D2007_e1a","D2007_e1a_1","RECORD",92,0,"HighFreq",3,1171,"Include"
"D2007_e1a","D2007_e1a_1","REBUFF",93,1,"LowFreq",5,1847,"Include"
"D2007_e1a","D2007_e1a_1","FINAL",94,1,"HighFreq",3,5649,"Include"
"D2007_e1a","D2007_e1a_1","BETTER",95,1,"HighFreq",3,1434,"Include"
"D2007_e1a","D2007_e1a_1","INSIPID",96,0,"LowFreq",6,1332,"Include"
"D2007_e1a","D2007_e1a_1","EXCEPT",97,1,"HighFreq",3,1494,"Include"
"D2007_e1a","D2007_e1a_1","RATHER",98,0,"HighFreq",4,2381,"Include"
"D2007_e1a","D2007_e1a_1","MORAL",99,0,"HighFreq",3,2625,"Include"
"D2007_e1a","D2007_e1a_1","ABOUT",100,1,"HighFreq",3,2945,"Include"
"D2007_e1a","D2007_e1a_1","AGHAST",101,1,"LowFreq",6,1241,"Include"
"D2007_e1a","D2007_e1a_1","LOFTY",102,1,"LowFreq",6,1267,"Include"
"D2007_e1a","D2007_e1a_1","SCANT",103,1,"LowFreq",6,1166,"Include"
"D2007_e1a","D2007_e1a_1","TACTIC",104,1,"LowFreq",2,2785,"Include"
"D2007_e1a","D2007_e1a_1","AGILITY",105,0,"LowFreq",1,1479,"Include"
"D2007_e1a","D2007_e1a_1","EXCEL",106,0,"LowFreq",3,2024,"Include"
"D2007_e1a","D2007_e1a_1","ALONE",107,1,"HighFreq",6,1380,"Include"
"D2007_e1a","D2007_e1a_1","BOGUS",108,1,"LowFreq",1,1163,"Include"
"D2007_e1a","D2007_e1a_1","THOUGHT",109,1,"HighFreq",3,4064,"Include"
"D2007_e1a","D2007_e1a_1","GAUCHE",110,0,"LowFreq",2,1837,"Include"
"D2007_e1a","D2007_e1a_1","SCENE",111,1,"HighFreq",6,1352,"Include"
"D2007_e1a","D2007_e1a_1","MAYBE",112,1,"HighFreq",3,4262,"Include"
"D2007_e1a","D2007_e1a_1","ANIMATE",113,1,"LowFreq",3,1280,"Include"
"D2007_e1a","D2007_e1a_1","BANTER",114,0,"LowFreq",5,1377,"Include"
"D2007_e1a","D2007_e1a_1","DISPEL",115,1,"LowFreq",3,1406,"Include"
"D2007_e1a","D2007_e1a_1","PROVIDE",116,0,"HighFreq",3,1296,"Include"
"D2007_e1a","D2007_e1a_1","SERVICE",117,1,"HighFreq",3,2035,"Include"
"D2007_e1a","D2007_e1a_1","BECAUSE",118,0,"HighFreq",3,1164,"Include"
"D2007_e1a","D2007_e1a_1","COMMON",119,1,"HighFreq",4,2807,"Include"
"D2007_e1a","D2007_e1a_1","MEDLEY",120,1,"LowFreq",4,1247,"Include"
"D2007_e1a","D2007_e1a_1","MELLOW",121,0,"LowFreq",3,1089,"Include"
"D2007_e1a","D2007_e1a_1","FATHOM",122,0,"LowFreq",3,1881,"Include"
"D2007_e1a","D2007_e1a_1","BLEND",123,0,"LowFreq",5,1879,"Include"
"D2007_e1a","D2007_e1a_1","INFORM",124,1,"LowFreq",3,1589,"Include"
"D2007_e1a","D2007_e1a_1","SPECIAL",125,1,"HighFreq",3,2196,"Include"
"D2007_e1a","D2007_e1a_1","DEPICT",126,1,"LowFreq",4,1689,"Include"
"D2007_e1a","D2007_e1a_1","SEVERAL",127,0,"HighFreq",3,1190,"Include"
"D2007_e1a","D2007_e1a_1","CHANGE",128,1,"HighFreq",3,2373,"Include"
"D2007_e1a","D2007_e1a_1","NOTIFY",129,1,"LowFreq",3,2318,"Include"
"D2007_e1a","D2007_e1a_1","UPROAR",130,0,"LowFreq",3,1172,"Include"
"D2007_e1a","D2007_e1a_1","CANCEL",131,0,"LowFreq",4,1452,"Include"
"D2007_e1a","D2007_e1a_1","POACH",132,1,"LowFreq",5,1210,"Include"
"D2007_e1a","D2007_e1a_1","CHARGE",133,0,"HighFreq",2,1269,"Include"
"D2007_e1a","D2007_e1a_1","DEFENSE",134,0,"HighFreq",3,3670,"Include"
"D2007_e1a","D2007_e1a_1","LUCID",135,0,"LowFreq",5,1304,"Include"
"D2007_e1a","D2007_e1a_1","PROGRAM",136,1,"HighFreq",3,2411,"Include"
"D2007_e1a","D2007_e1a_1","ENJOIN",137,0,"LowFreq",1,1846,"Include"
"D2007_e1a","D2007_e1a_1","HECTIC",138,0,"LowFreq",3,1463,"Include"
"D2007_e1a","D2007_e1a_1","CENSURE",139,1,"LowFreq",4,2618,"Include"
"D2007_e1a","D2007_e1a_1","MEANING",140,0,"HighFreq",3,1235,"Include"
"D2007_e1a","D2007_e1a_1","CAPTIVE",1,1,"LowFreq",6,3971,"Include"
"D2007_e1a","D2007_e1a_1","VARIANT",2,0,"LowFreq",5,2393,"Include"
"D2007_e1a","D2007_e1a_1","LIABLE",3,0,"LowFreq",2,1747,"Include"
"D2007_e1a","D2007_e1a_1","FALLOW",4,0,"LowFreq",2,1581,"Include"
"D2007_e1a","D2007_e1a_1","PROBLEM",5,0,"HighFreq",2,1290,"Include"
"D2007_e1a","D2007_e1a_1","HOUND",6,1,"LowFreq",2,827,"Include"
"D2007_e1a","D2007_e1a_1","WHETHER",7,0,"HighFreq",2,736,"Include"
"D2007_e1a","D2007_e1a_1","VARIOUS",8,0,"HighFreq",1,2974,"Include"
"D2007_e1a","D2007_e1a_1","ADEPT",9,0,"LowFreq",2,1192,"Include"
"D2007_e1a","D2007_e1a_1","HOVER",10,0,"LowFreq",2,980,"Include"
"D2007_e1a","D2007_e1a_1","CORNER",11,1,"HighFreq",3,1535,"Include"
"D2007_e1a","D2007_e1a_1","MARKET",12,0,"HighFreq",2,1350,"Include"
"D2007_e1a","D2007_e1a_1","EMBARK",13,1,"LowFreq",6,1707,"Include"
"D2007_e1a","D2007_e1a_1","SPACE",14,0,"HighFreq",3,1463,"Include"
"D2007_e1a","D2007_e1a_1","INCLINE",15,1,"LowFreq",2,2302,"Include"
"D2007_e1a","D2007_e1a_1","PRIVATE",16,1,"HighFreq",3,2823,"Include"
"D2007_e1a","D2007_e1a_1","SEDATE",17,1,"LowFreq",2,1718,"Include"
"D2007_e1a","D2007_e1a_1","AMIDST",18,0,"LowFreq",5,1431,"Include"
"D2007_e1a","D2007_e1a_1","RESULT",19,0,"HighFreq",3,1521,"Include"
"D2007_e1a","D2007_e1a_1","FORMER",20,0,"HighFreq",5,2368,"Include"
"D2007_e1a","D2007_e1a_1","INCLUDE",21,0,"HighFreq",6,1749,"Include"
"D2007_e1a","D2007_e1a_1","TERSE",22,0,"LowFreq",1,3486,"Include"
"D2007_e1a","D2007_e1a_1","ATTACK",23,0,"HighFreq",1,808,"Include"
"D2007_e1a","D2007_e1a_1","PERSON",24,0,"HighFreq",1,674,"Include"
"D2007_e1a","D2007_e1a_1","LOCAL",25,0,"HighFreq",1,613,"Include"
"D2007_e1a","D2007_e1a_1","TRIAL",26,0,"HighFreq",2,2086,"Include"
"D2007_e1a","D2007_e1a_1","DAPPER",27,0,"LowFreq",1,1526,"Include"
"D2007_e1a","D2007_e1a_1","DIFFUSE",28,1,"LowFreq",2,1255,"Include"
"D2007_e1a","D2007_e1a_1","FORCE",29,1,"HighFreq",5,1258,"Include"
"D2007_e1a","D2007_e1a_1","GENERAL",30,1,"HighFreq",6,1067,"Include"
"D2007_e1a","D2007_e1a_1","MANUAL",31,0,"LowFreq",3,1435,"Include"
"D2007_e1a","D2007_e1a_1","STOCK",32,0,"HighFreq",2,1709,"Include"
"D2007_e1a","D2007_e1a_1","ISSUE",33,0,"HighFreq",2,1100,"Include"
"D2007_e1a","D2007_e1a_1","WITHIN",34,1,"HighFreq",4,1780,"Include"
"D2007_e1a","D2007_e1a_1","FLAIL",35,1,"LowFreq",6,2304,"Include"
"D2007_e1a","D2007_e1a_1","COMPILE",36,1,"LowFreq",6,1164,"Include"
"D2007_e1a","D2007_e1a_1","NEARLY",37,0,"HighFreq",3,1257,"Include"
"D2007_e1a","D2007_e1a_1","DESPITE",38,0,"HighFreq",3,2255,"Include"
"D2007_e1a","D2007_e1a_1","VALUE",39,1,"HighFreq",5,2036,"Include"
"D2007_e1a","D2007_e1a_1","GLARE",40,1,"LowFreq",6,1161,"Include"
"D2007_e1a","D2007_e1a_1","SHOWN",41,1,"HighFreq",6,1380,"Include"
"D2007_e1a","D2007_e1a_1","DESIGN",42,1,"HighFreq",3,1188,"Include"
"D2007_e1a","D2007_e1a_1","ADAMANT",43,1,"LowFreq",6,1153,"Include"
"D2007_e1a","D2007_e1a_1","RADIANT",44,1,"LowFreq",6,2161,"Include"
"D2007_e1a","D2007_e1a_1","GALLANT",45,1,"LowFreq",6,888,"Include"
"D2007_e1a","D2007_e1a_1","LEAVE",46,1,"HighFreq",6,801,"Include"
"D2007_e1a","D2007_e1a_1","MIDDLE",47,1,"HighFreq",6,799,"Include"
"D2007_e1a","D2007_e1a_1","ABIDE",48,0,"LowFreq",6,1155,"Include"
"D2007_e1a","D2007_e1a_1","BLISTER",49,1,"LowFreq",1,1820,"Include"
"D2007_e1a","D2007_e1a_1","SENSE",50,0,"HighFreq",6,2315,"Include"
"D2007_e1a","D2007_e1a_1","DEGRADE",51,0,"LowFreq",4,3855,"Include"
"D2007_e1a","D2007_e1a_1","POINT",52,1,"HighFreq",3,2613,"Include"
"D2007_e1a","D2007_e1a_1","EMINENT",53,0,"LowFreq",5,1189,"Include"
"D2007_e1a","D2007_e1a_1","MANDATE",54,1,"LowFreq",6,1102,"Include"
"D2007_e1a","D2007_e1a_1","VANISH",55,1,"LowFreq",6,1157,"Include"
"D2007_e1a","D2007_e1a_1","FEDERAL",56,1,"HighFreq",6,984,"Include"
"D2007_e1a","D2007_e1a_1","SOUND",57,1,"HighFreq",3,1334,"Include"
"D2007_e1a","D2007_e1a_1","NIBBLE",58,0,"LowFreq",2,1626,"Include"
"D2007_e1a","D2007_e1a_1","RAMPANT",59,0,"LowFreq",2,2269,"Include"
"D2007_e1a","D2007_e1a_1","JARGON",60,1,"LowFreq",2,980,"Include"
"D2007_e1a","D2007_e1a_1","ORDER",61,0,"HighFreq",2,997,"Include"
"D2007_e1a","D2007_e1a_1","ENTAIL",62,1,"LowFreq",6,1196,"Include"
"D2007_e1a","D2007_e1a_1","BROIL",63,0,"LowFreq",3,4030,"Include"
"D2007_e1a","D2007_e1a_1","GALLOP",64,0,"LowFreq",6,1112,"Include"
"D2007_e1a","D2007_e1a_1","MIGHT",65,0,"HighFreq",3,2881,"Include"
"D2007_e1a","D2007_e1a_1","FACILE",66,1,"LowFreq",6,1304,"Include"
"D2007_e1a","D2007_e1a_1","HARDLY",67,1,"HighFreq",4,2710,"Include"
"D2007_e1a","D2007_e1a_1","ERRATIC",68,0,"LowFreq",4,1323,"Include"
"D2007_e1a","D2007_e1a_1","GLIDE",69,0,"LowFreq",2,1668,"Include"
"D2007_e1a","D2007_e1a_1","ONWARD",70,0,"LowFreq",2,1561,"Include"
"D2007_e1a","D2007_e1a_1","COURSE",71,0,"HighFreq",5,1648,"Include"
"D2007_e1a","D2007_e1a_1","TEMPT",72,1,"LowFreq",6,1308,"Include"
"D2007_e1a","D2007_e1a_1","NATURAL",73,1,"HighFreq",2,1034,"Include"
"D2007_e1a","D2007_e1a_1","DAINTY",74,1,"LowFreq",6,1289,"Include"
"D2007_e1a","D2007_e1a_1","TRADE",75,1,"HighFreq",4,1350,"Include"
"D2007_e1a","D2007_e1a_1","START",76,1,"HighFreq",2,3604,"Include"
"D2007_e1a","D2007_e1a_1","ISLAND",77,1,"HighFreq",6,1246,"Include"
"D2007_e1a","D2007_e1a_1","RESPECT",78,1,"HighFreq",4,1876,"Include"
"D2007_e1a","D2007_e1a_1","THING",79,0,"HighFreq",2,1441,"Include"
"D2007_e1a","D2007_e1a_1","PARODY",80,0,"LowFreq",3,1210,"Include"
"D2007_e1a","D2007_e1a_1","HAMPER",81,0,"LowFreq",6,1210,"Include"
"D2007_e1a","D2007_e1a_1","HEARD",82,0,"HighFreq",3,2801,"Include"
"D2007_e1a","D2007_e1a_1","BEHIND",83,1,"HighFreq",6,1406,"Include"
"D2007_e1a","D2007_e1a_1","CONCISE",84,0,"LowFreq",3,4100,"Include"
"D2007_e1a","D2007_e1a_1","PERIOD",85,1,"HighFreq",6,1065,"Include"
"D2007_e1a","D2007_e1a_1","EASILY",86,0,"HighFreq",3,1640,"Include"
"D2007_e1a","D2007_e1a_1","PURPOSE",87,1,"HighFreq",6,1285,"Include"
"D2007_e1a","D2007_e1a_1","CENTER",88,1,"HighFreq",4,2008,"Include"
"D2007_e1a","D2007_e1a_1","OBLIGE",89,1,"LowFreq",3,2120,"Include"
"D2007_e1a","D2007_e1a_1","ROGUE",90,1,"LowFreq",3,3192,"Include"
"D2007_e1a","D2007_e1a_1","PARCEL",91,1,"LowFreq",3,1443,"Include"
"D2007_e1a","D2007_e1a_1","BLOAT",92,0,"LowFreq",3,3568,"Include"
"D2007_e1a","D2007_e1a_1","SENILE",93,0,"LowFreq",2,1580,"Include"
"D2007_e1a","D2007_e1a_1","BEREFT",94,1,"LowFreq",6,1249,"Include"
"D2007_e1a","D2007_e1a_1","REALLY",95,0,"HighFreq",3,1349,"Include"
"D2007_e1a","D2007_e1a_1","CERTAIN",96,0,"HighFreq",6,1012,"Include"
"D2007_e1a","D2007_e1a_1","EVERY",97,0,"HighFreq",6,994,"Include"
"D2007_e1a","D2007_e1a_1","CLASS",98,1,"HighFreq",3,1726,"Include"
"D2007_e1a","D2007_e1a_1","ENTIRE",99,1,"HighFreq",4,2859,"Include"
"D2007_e1a","D2007_e1a_1","CLEAR",100,0,"HighFreq",3,1340,"Include"
"D2007_e1a","D2007_e1a_1","SURFACE",101,1,"HighFreq",3,1240,"Include"
"D2007_e1a","D2007_e1a_1","BELIEVE",102,0,"HighFreq",4,1247,"Include"
"D2007_e1a","D2007_e1a_1","QUALITY",103,0,"HighFreq",3,1052,"Include"
"D2007_e1a","D2007_e1a_1","HAGGARD",104,1,"LowFreq",6,995,"Include"
"D2007_e1a","D2007_e1a_1","ROOST",105,0,"LowFreq",2,1324,"Include"
"D2007_e1a","D2007_e1a_1","AROUND",106,1,"HighFreq",4,1867,"Include"
"D2007_e1a","D2007_e1a_1","BESTOW",107,0,"LowFreq",3,1338,"Include"
"D2007_e1a","D2007_e1a_1","IMAGE",108,1,"HighFreq",3,1620,"Include"
"D2007_e1a","D2007_e1a_1","POLICY",109,0,"HighFreq",5,1382,"Include"
"D2007_e1a","D2007_e1a_1","NEMESIS",110,1,"LowFreq",4,1489,"Include"
"D2007_e1a","D2007_e1a_1","BRINK",111,1,"LowFreq",5,1278,"Include"
"D2007_e1a","D2007_e1a_1","AMEND",112,1,"LowFreq",5,1173,"Include"
"D2007_e1a","D2007_e1a_1","CASCADE",113,0,"LowFreq",3,1310,"Include"
"D2007_e1a","D2007_e1a_1","EARLY",114,1,"HighFreq",5,1317,"Include"
"D2007_e1a","D2007_e1a_1","FORAY",115,0,"LowFreq",2,1160,"Include"
"D2007_e1a","D2007_e1a_1","CHANT",116,1,"LowFreq",6,1510,"Include"
"D2007_e1a","D2007_e1a_1","INDUCE",117,0,"LowFreq",3,2040,"Include"
"D2007_e1a","D2007_e1a_1","CHEAT",118,0,"LowFreq",3,1334,"Include"
"D2007_e1a","D2007_e1a_1","DEFUNCT",119,1,"LowFreq",6,1208,"Include"
"D2007_e1a","D2007_e1a_1","FLANK",120,0,"LowFreq",5,1673,"Include"
"D2007_e1a","D2007_e1a_1","MARCH",121,1,"HighFreq",3,1448,"Include"
"D2007_e1a","D2007_e1a_1","FIELD",122,0,"HighFreq",2,1092,"Include"
"D2007_e1a","D2007_e1a_1","DIGEST",123,0,"LowFreq",4,1439,"Include"
"D2007_e1a","D2007_e1a_1","AFTER",124,1,"HighFreq",5,1223,"Include"
"D2007_e1a","D2007_e1a_1","LENGTH",125,0,"HighFreq",2,1371,"Include"
"D2007_e1a","D2007_e1a_1","FODDER",126,1,"LowFreq",5,1179,"Include"
"D2007_e1a","D2007_e1a_1","GIVEN",127,0,"HighFreq",3,1344,"Include"
"D2007_e1a","D2007_e1a_1","ASTUTE",128,0,"LowFreq",4,1489,"Include"
"D2007_e1a","D2007_e1a_1","SLEEK",129,0,"LowFreq",5,3048,"Include"
"D2007_e1a","D2007_e1a_1","SECTION",130,1,"HighFreq",3,2445,"Include"
"D2007_e1a","D2007_e1a_1","READY",131,1,"HighFreq",3,1132,"Include"
"D2007_e1a","D2007_e1a_1","ARDUOUS",132,1,"LowFreq",2,2702,"Include"
"D2007_e1a","D2007_e1a_1","LIVING",133,1,"HighFreq",3,1203,"Include"
"D2007_e1a","D2007_e1a_1","ABACK",134,1,"LowFreq",2,1159,"Include"
"D2007_e1a","D2007_e1a_1","OFTEN",135,1,"HighFreq",3,3495,"Include"
"D2007_e1a","D2007_e1a_1","JEALOUS",136,0,"LowFreq",1,2758,"Include"
"D2007_e1a","D2007_e1a_1","AGAIN",137,0,"HighFreq",4,3385,"Include"
"D2007_e1a","D2007_e1a_1","SIMILAR",138,0,"HighFreq",3,2115,"Include"
"D2007_e1a","D2007_e1a_1","LENIENT",139,1,"LowFreq",5,1588,"Include"
"D2007_e1a","D2007_e1a_1","SLANT",140,1,"LowFreq",6,1337,"Include"
"D2007_e1a","D2007_e1a_4","HARDLY",1,1,"HighFreq",6,4139,"Include"
"D2007_e1a","D2007_e1a_4","POLICY",2,0,"HighFreq",1,2252,"Include"
"D2007_e1a","D2007_e1a_4","CHANT",3,1,"LowFreq",6,1894,"Include"
"D2007_e1a","D2007_e1a_4","MIDDLE",4,1,"HighFreq",1,2966,"Include"
"D2007_e1a","D2007_e1a_4","ADEPT",5,0,"LowFreq",1,1798,"Include"
"D2007_e1a","D2007_e1a_4","QUALITY",6,0,"HighFreq",1,1900,"Include"
"D2007_e1a","D2007_e1a_4","ATTACK",7,0,"HighFreq",1,1829,"Include"
"D2007_e1a","D2007_e1a_4","ISLAND",8,1,"HighFreq",6,1928,"Include"
"D2007_e1a","D2007_e1a_4","ERRATIC",9,0,"LowFreq",1,1997,"Include"
"D2007_e1a","D2007_e1a_4","DAPPER",10,0,"LowFreq",1,2042,"Include"
"D2007_e1a","D2007_e1a_4","OFTEN",11,1,"HighFreq",2,10915,"Include"
"D2007_e1a","D2007_e1a_4","PERIOD",12,1,"HighFreq",6,2946,"Include"
"D2007_e1a","D2007_e1a_4","ROGUE",13,1,"LowFreq",6,1914,"Include"
"D2007_e1a","D2007_e1a_4","SURFACE",14,1,"HighFreq",6,852,"Include"
"D2007_e1a","D2007_e1a_4","GLIDE",15,0,"LowFreq",2,3019,"Include"
"D2007_e1a","D2007_e1a_4","CLEAR",16,0,"HighFreq",2,4445,"Include"
"D2007_e1a","D2007_e1a_4","DESPITE",17,0,"HighFreq",2,3555,"Include"
"D2007_e1a","D2007_e1a_4","GIVEN",18,0,"HighFreq",1,3148,"Include"
"D2007_e1a","D2007_e1a_4","EARLY",19,1,"HighFreq",1,2124,"Include"
"D2007_e1a","D2007_e1a_4","TRADE",20,1,"HighFreq",5,3877,"Include"
"D2007_e1a","D2007_e1a_4","BLISTER",21,1,"LowFreq",2,3208,"Include"
"D2007_e1a","D2007_e1a_4","INDUCE",22,0,"LowFreq",1,2391,"Include"
"D2007_e1a","D2007_e1a_4","AFTER",23,1,"HighFreq",2,5334,"Include"
"D2007_e1a","D2007_e1a_4","FODDER",24,1,"LowFreq",5,2823,"Include"
"D2007_e1a","D2007_e1a_4","MIGHT",25,0,"HighFreq",2,2383,"Include"
"D2007_e1a","D2007_e1a_4","IMAGE",26,1,"HighFreq",2,2762,"Include"
"D2007_e1a","D2007_e1a_4","LENIENT",27,1,"LowFreq",6,1220,"Include"
"D2007_e1a","D2007_e1a_4","STOCK",28,0,"HighFreq",2,3296,"Include"
"D2007_e1a","D2007_e1a_4","DEFUNCT",29,1,"LowFreq",5,1686,"Include"
"D2007_e1a","D2007_e1a_4","SENILE",30,0,"LowFreq",2,4658,"Include"
"D2007_e1a","D2007_e1a_4","GENERAL",31,1,"HighFreq",6,1546,"Include"
"D2007_e1a","D2007_e1a_4","SOUND",32,1,"HighFreq",3,3485,"Include"
"D2007_e1a","D2007_e1a_4","DIFFUSE",33,1,"LowFreq",6,1381,"Include"
"D2007_e1a","D2007_e1a_4","BEREFT",34,1,"LowFreq",5,2613,"Include"
"D2007_e1a","D2007_e1a_4","MARKET",35,0,"HighFreq",3,6130,"Include"
"D2007_e1a","D2007_e1a_4","SLANT",36,1,"LowFreq",5,2602,"Include"
"D2007_e1a","D2007_e1a_4","ABIDE",37,0,"LowFreq",2,4507,"Include"
"D2007_e1a","D2007_e1a_4","BESTOW",38,0,"LowFreq",1,2190,"Include"
"D2007_e1a","D2007_e1a_4","ARDUOUS",39,1,"LowFreq",6,1265,"Include"
"D2007_e1a","D2007_e1a_4","FORMER",40,0,"HighFreq",2,3109,"Include"
"D2007_e1a","D2007_e1a_4","READY",41,1,"HighFreq",2,2128,"Include"
"D2007_e1a","D2007_e1a_4","RADIANT",42,1,"LowFreq",6,1124,"Include"
"D2007_e1a","D2007_e1a_4","RAMPANT",43,0,"LowFreq",2,2355,"Include"
"D2007_e1a","D2007_e1a_4","EMBARK",44,1,"LowFreq",5,3561,"Include"
"D2007_e1a","D2007_e1a_4","HAMPER",45,0,"LowFreq",2,3158,"Include"
"D2007_e1a","D2007_e1a_4","FALLOW",46,0,"LowFreq",1,1576,"Include"
"D2007_e1a","D2007_e1a_4","MANDATE",47,1,"LowFreq",4,4454,"Include"
"D2007_e1a","D2007_e1a_4","RESULT",48,0,"HighFreq",3,3796,"Include"
"D2007_e1a","D2007_e1a_4","PROBLEM",49,0,"HighFreq",3,2212,"Include"
"D2007_e1a","D2007_e1a_4","FORAY",50,0,"LowFreq",1,2031,"Include"
"D2007_e1a","D2007_e1a_4","CENTER",51,1,"HighFreq",3,3881,"Include"
"D2007_e1a","D2007_e1a_4","FIELD",52,0,"HighFreq",3,3308,"Include"
"D2007_e1a","D2007_e1a_4","SLEEK",53,0,"LowFreq",1,2418,"Include"
"D2007_e1a","D2007_e1a_4","CHEAT",54,0,"LowFreq",1,1375,"Include"
"D2007_e1a","D2007_e1a_4","JEALOUS",55,0,"LowFreq",1,1926,"Include"
"D2007_e1a","D2007_e1a_4","DEGRADE",56,0,"LowFreq",1,2508,"Include"
"D2007_e1a","D2007_e1a_4","NEMESIS",57,1,"LowFreq",6,1841,"Include"
"D2007_e1a","D2007_e1a_4","NIBBLE",58,0,"LowFreq",2,4755,"Include"
"D2007_e1a","D2007_e1a_4","WITHIN",59,1,"HighFreq",6,1112,"Include"
"D2007_e1a","D2007_e1a_4","POINT",60,1,"HighFreq",3,3767,"Include"
"D2007_e1a","D2007_e1a_4","EASILY",61,0,"HighFreq",2,3957,"Include"
"D2007_e1a","D2007_e1a_4","ENTIRE",62,1,"HighFreq",3,2554,"Include"
"D2007_e1a","D2007_e1a_4","VALUE",63,1,"HighFreq",6,1919,"Include"
"D2007_e1a","D2007_e1a_4","SIMILAR",64,0,"HighFreq",2,2768,"Include"
"D2007_e1a","D2007_e1a_4","JARGON",65,1,"LowFreq",4,9302,"Include"
"D2007_e1a","D2007_e1a_4","PRIVATE",66,1,"HighFreq",3,1671,"Include"
"D2007_e1a","D2007_e1a_4","CORNER",67,1,"HighFreq",4,3585,"Include"
"D2007_e1a","D2007_e1a_4","DESIGN",68,1,"HighFreq",2,2365,"Include"
"D2007_e1a","D2007_e1a_4","BRINK",69,1,"LowFreq",3,2500,"Include"
"D2007_e1a","D2007_e1a_4","PARCEL",70,1,"LowFreq",2,1353,"Include"
"D2007_e1a","D2007_e1a_4","START",71,1,"HighFreq",5,6713,"Include"
"D2007_e1a","D2007_e1a_4","ADAMANT",72,1,"LowFreq",4,5565,"Include"
"D2007_e1a","D2007_e1a_4","FLAIL",73,1,"LowFreq",3,5324,"Include"
"D2007_e1a","D2007_e1a_4","INCLUDE",74,0,"HighFreq",3,1699,"Include"
"D2007_e1a","D2007_e1a_4","GALLOP",75,0,"LowFreq",3,3045,"Include"
"D2007_e1a","D2007_e1a_4","CLASS",76,1,"HighFreq",4,2178,"Include"
"D2007_e1a","D2007_e1a_4","OBLIGE",77,1,"LowFreq",6,2518,"Include"
"D2007_e1a","D2007_e1a_4","ENTAIL",78,1,"LowFreq",6,1618,"Include"
"D2007_e1a","D2007_e1a_4","GLARE",79,1,"LowFreq",3,5525,"Include"
"D2007_e1a","D2007_e1a_4","NEARLY",80,0,"HighFreq",4,2922,"Include"
"D2007_e1a","D2007_e1a_4","ROOST",81,0,"LowFreq",2,2859,"Include"
"D2007_e1a","D2007_e1a_4","TEMPT",82,1,"LowFreq",2,2883,"Include"
"D2007_e1a","D2007_e1a_4","EVERY",83,0,"HighFreq",3,5502,"Include"
"D2007_e1a","D2007_e1a_4","VARIANT",84,0,"LowFreq",2,2141,"Include"
"D2007_e1a","D2007_e1a_4","CASCADE",85,0,"LowFreq",2,7010,"Include"
"D2007_e1a","D2007_e1a_4","BEHIND",86,1,"HighFreq",2,2384,"Include"
"D2007_e1a","D2007_e1a_4","DIGEST",87,0,"LowFreq",3,3665,"Include"
"D2007_e1a","D2007_e1a_4","CERTAIN",88,0,"HighFreq",3,6977,"Include"
"D2007_e1a","D2007_e1a_4","SENSE",89,0,"HighFreq",3,3071,"Include"
"D2007_e1a","D2007_e1a_4","MARCH",90,1,"HighFreq",6,3014,"Include"
"D2007_e1a","D2007_e1a_4","LOCAL",91,0,"HighFreq",3,5270,"Include"
"D2007_e1a","D2007_e1a_4","LENGTH",92,0,"HighFreq",2,3471,"Include"
"D2007_e1a","D2007_e1a_4","AMEND",93,1,"LowFreq",3,4242,"Include"
"D2007_e1a","D2007_e1a_4","COURSE",94,0,"HighFreq",3,7759,"Include"
"D2007_e1a","D2007_e1a_4","EMINENT",95,0,"LowFreq",2,2387,"Include"
"D2007_e1a","D2007_e1a_4","BLOAT",96,0,"LowFreq",2,1964,"Include"
"D2007_e1a","D2007_e1a_4","BROIL",97,0,"LowFreq",2,2082,"Include"
"D2007_e1a","D2007_e1a_4","VANISH",98,1,"LowFreq",2,3386,"Include"
"D2007_e1a","D2007_e1a_4","LEAVE",99,1,"HighFreq",2,3556,"Include"
"D2007_e1a","D2007_e1a_4","HEARD",100,0,"HighFreq",2,1632,"Include"
"D2007_e1a","D2007_e1a_4","INCLINE",101,1,"LowFreq",6,2177,"Include"
"D2007_e1a","D2007_e1a_4","SPACE",102,0,"HighFreq",4,4240,"Include"
"D2007_e1a","D2007_e1a_4","CONCISE",103,0,"LowFreq",3,1964,"Include"
"D2007_e1a","D2007_e1a_4","LIABLE",104,0,"LowFreq",2,2544,"Include"
"D2007_e1a","D2007_e1a_4","HAGGARD",105,1,"LowFreq",4,4233,"Include"
"D2007_e1a","D2007_e1a_4","RESPECT",106,1,"HighFreq",3,2785,"Include"
"D2007_e1a","D2007_e1a_4","LIVING",107,1,"HighFreq",2,1313,"Include"
"D2007_e1a","D2007_e1a_4","THING",108,0,"HighFreq",1,3421,"Include"
"D2007_e1a","D2007_e1a_4","FLANK",109,0,"LowFreq",1,2369,"Include"
"D2007_e1a","D2007_e1a_4","SEDATE",110,1,"LowFreq",4,4090,"Include"
"D2007_e1a","D2007_e1a_4","SHOWN",111,1,"HighFreq",3,3616,"Include"
"D2007_e1a","D2007_e1a_4","PURPOSE",112,1,"HighFreq",3,3217,"Include"
"D2007_e1a","D2007_e1a_4","COMPILE",113,1,"LowFreq",3,2179,"Include"
"D2007_e1a","D2007_e1a_4","FORCE",114,1,"HighFreq",3,3316,"Include"
"D2007_e1a","D2007_e1a_4","SECTION",115,1,"HighFreq",3,2784,"Include"
"D2007_e1a","D2007_e1a_4","FEDERAL",116,1,"HighFreq",5,3176,"Include"
"D2007_e1a","D2007_e1a_4","ISSUE",117,0,"HighFreq",5,3419,"Include"
"D2007_e1a","D2007_e1a_4","PARODY",118,0,"LowFreq",2,2214,"Include"
"D2007_e1a","D2007_e1a_4","GALLANT",119,1,"LowFreq",4,5541,"Include"
"D2007_e1a","D2007_e1a_4","HOUND",120,1,"LowFreq",5,1649,"Include"
"D2007_e1a","D2007_e1a_4","AMIDST",121,0,"LowFreq",3,3002,"Include"
"D2007_e1a","D2007_e1a_4","TRIAL",122,0,"HighFreq",3,2177,"Include"
"D2007_e1a","D2007_e1a_4","AROUND",123,1,"HighFreq",6,3296,"Include"
"D2007_e1a","D2007_e1a_4","DAINTY",124,1,"LowFreq",6,1235,"Include"
"D2007_e1a","D2007_e1a_4","FACILE",125,1,"LowFreq",6,2439,"Include"
"D2007_e1a","D2007_e1a_4","NATURAL",126,1,"HighFreq",3,5693,"Include"
"D2007_e1a","D2007_e1a_4","HOVER",127,0,"LowFreq",3,2812,"Include"
"D2007_e1a","D2007_e1a_4","ABACK",128,1,"LowFreq",5,5569,"Include"
"D2007_e1a","D2007_e1a_4","VARIOUS",129,0,"HighFreq",3,2419,"Include"
"D2007_e1a","D2007_e1a_4","MANUAL",130,0,"LowFreq",3,4037,"Include"
"D2007_e1a","D2007_e1a_4","ASTUTE",131,0,"LowFreq",3,3135,"Include"
"D2007_e1a","D2007_e1a_4","AGAIN",132,0,"HighFreq",3,1883,"Include"
"D2007_e1a","D2007_e1a_4","ORDER",133,0,"HighFreq",3,2327,"Include"
"D2007_e1a","D2007_e1a_4","REALLY",134,0,"HighFreq",5,4305,"Include"
"D2007_e1a","D2007_e1a_4","WHETHER",135,0,"HighFreq",2,2811,"Include"
"D2007_e1a","D2007_e1a_4","CAPTIVE",136,1,"LowFreq",3,2455,"Include"
"D2007_e1a","D2007_e1a_4","ONWARD",137,0,"LowFreq",3,2197,"Include"
"D2007_e1a","D2007_e1a_4","BELIEVE",138,0,"HighFreq",3,5195,"Include"
"D2007_e1a","D2007_e1a_4","PERSON",139,0,"HighFreq",2,2148,"Include"
"D2007_e1a","D2007_e1a_4","TERSE",140,0,"LowFreq",2,1068,"Include"
"D2007_e1a","D2007_e1a_4","EFFORT",1,1,"HighFreq",2,6362,"Include"
"D2007_e1a","D2007_e1a_4","GARNER",2,1,"LowFreq",6,2672,"Include"
"D2007_e1a","D2007_e1a_4","OUTSIDE",3,1,"HighFreq",1,4507,"Include"
"D2007_e1a","D2007_e1a_4","DECREE",4,1,"LowFreq",6,1403,"Include"
"D2007_e1a","D2007_e1a_4","PACIFY",5,1,"LowFreq",5,4367,"Include"
"D2007_e1a","D2007_e1a_4","INSIDE",6,0,"HighFreq",1,4319,"Include"
"D2007_e1a","D2007_e1a_4","MELLOW",7,0,"LowFreq",1,2594,"Include"
"D2007_e1a","D2007_e1a_4","HECTIC",8,0,"LowFreq",2,2652,"Include"
"D2007_e1a","D2007_e1a_4","FURTHER",9,0,"HighFreq",2,2969,"Include"
"D2007_e1a","D2007_e1a_4","WAGER",10,1,"LowFreq",6,2391,"Include"
"D2007_e1a","D2007_e1a_4","SEASON",11,0,"HighFreq",1,1595,"Include"
"D2007_e1a","D2007_e1a_4","PROGRAM",12,1,"HighFreq",6,1166,"Include"
"D2007_e1a","D2007_e1a_4","FOUND",13,1,"HighFreq",2,5411,"Include"
"D2007_e1a","D2007_e1a_4","EXALT",14,1,"LowFreq",6,1040,"Include"
"D2007_e1a","D2007_e1a_4","ABOUND",15,1,"LowFreq",6,2349,"Include"
"D2007_e1a","D2007_e1a_4","BLATANT",16,1,"LowFreq",5,2999,"Include"
"D2007_e1a","D2007_e1a_4","SHABBY",17,1,"LowFreq",6,2360,"Include"
"D2007_e1a","D2007_e1a_4","PRESENT",18,1,"HighFreq",5,6889,"Include"
"D2007_e1a","D2007_e1a_4","FROLIC",19,0,"LowFreq",1,6260,"Include"
"D2007_e1a","D2007_e1a_4","FLURRY",20,0,"LowFreq",1,1911,"Include"
"D2007_e1a","D2007_e1a_4","LIKELY",21,0,"HighFreq",3,5707,"Include"
"D2007_e1a","D2007_e1a_4","GAUCHE",22,0,"LowFreq",1,3444,"Include"
"D2007_e1a","D2007_e1a_4","ANIMATE",23,1,"LowFreq",6,2529,"Include"
"D2007_e1a","D2007_e1a_4","EITHER",24,0,"HighFreq",2,3432,"Include"
"D2007_e1a","D2007_e1a_4","PLACE",25,1,"HighFreq",4,6483,"Include"
"D2007_e1a","D2007_e1a_4","COMMON",26,1,"HighFreq",3,4811,"Include"
"D2007_e1a","D2007_e1a_4","SHREWD",27,0,"LowFreq",2,1515,"Include"
"D2007_e1a","D2007_e1a_4","CLICK",28,0,"LowFreq",2,1367,"Include"
"D2007_e1a","D2007_e1a_4","SCOOP",29,0,"LowFreq",1,1861,"Include"
"D2007_e1a","D2007_e1a_4","ANOMALY",30,0,"LowFreq",1,1075,"Include"
"D2007_e1a","D2007_e1a_4","SINGLE",31,0,"HighFreq",1,1620,"Include"
"D2007_e1a","D2007_e1a_4","VOLUME",32,0,"HighFreq",1,1266,"Include"
"D2007_e1a","D2007_e1a_4","COMPANY",33,0,"HighFreq",1,1339,"Include"
"D2007_e1a","D2007_e1a_4","INSIPID",34,0,"LowFreq",1,1145,"Include"
"D2007_e1a","D2007_e1a_4","HEAVE",35,1,"LowFreq",6,1158,"Include"
"D2007_e1a","D2007_e1a_4","REFINE",36,0,"LowFreq",2,4738,"Include"
"D2007_e1a","D2007_e1a_4","IMPAIR",37,0,"LowFreq",1,1927,"Include"
"D2007_e1a","D2007_e1a_4","RANGE",38,1,"HighFreq",6,1523,"Include"
"D2007_e1a","D2007_e1a_4","PONDER",39,0,"LowFreq",2,2616,"Include"
"D2007_e1a","D2007_e1a_4","LOFTY",40,1,"LowFreq",6,1593,"Include"
"D2007_e1a","D2007_e1a_4","BECAUSE",41,0,"HighFreq",2,2876,"Include"
"D2007_e1a","D2007_e1a_4","BLEND",42,0,"LowFreq",1,1794,"Include"
"D2007_e1a","D2007_e1a_4","WEAVE",43,0,"LowFreq",2,4662,"Include"
"D2007_e1a","D2007_e1a_4","NORMAL",44,0,"HighFreq",2,4227,"Include"
"D2007_e1a","D2007_e1a_4","MORAL",45,0,"HighFreq",1,3922,"Include"
"D2007_e1a","D2007_e1a_4","MEDLEY",46,1,"LowFreq",6,2884,"Include"
"D2007_e1a","D2007_e1a_4","GREED",47,0,"LowFreq",2,2604,"Include"
"D2007_e1a","D2007_e1a_4","UPROAR",48,0,"LowFreq",1,1669,"Include"
"D2007_e1a","D2007_e1a_4","LAVISH",49,0,"LowFreq",2,3198,"Include"
"D2007_e1a","D2007_e1a_4","ENJOIN",50,0,"LowFreq",1,2003,"Include"
"D2007_e1a","D2007_e1a_4","DOUBT",51,1,"HighFreq",2,4688,"Include"
"D2007_e1a","D2007_e1a_4","BOGUS",52,1,"LowFreq",6,1940,"Include"
"D2007_e1a","D2007_e1a_4","SPECIAL",53,1,"HighFreq",2,1495,"Include"
"D2007_e1a","D2007_e1a_4","SUBJECT",54,1,"HighFreq",6,1897,"Include"
"D2007_e1a","D2007_e1a_4","CONVICT",55,0,"LowFreq",1,2395,"Include"
"D2007_e1a","D2007_e1a_4","SCANT",56,1,"LowFreq",6,1132,"Include"
"D2007_e1a","D2007_e1a_4","LUCID",57,0,"LowFreq",3,8246,"Include"
"D2007_e1a","D2007_e1a_4","ILLICIT",58,1,"LowFreq",3,1537,"Include"
"D2007_e1a","D2007_e1a_4","PADDLE",59,0,"LowFreq",2,1566,"Include"
"D2007_e1a","D2007_e1a_4","UNLESS",60,0,"HighFreq",1,2717,"Include"
"D2007_e1a","D2007_e1a_4","MAJOR",61,0,"HighFreq",2,2601,"Include"
"D2007_e1a","D2007_e1a_4","RECORD",62,0,"HighFreq",2,1932,"Include"
"D2007_e1a","D2007_e1a_4","PLANE",63,0,"HighFreq",2,1332,"Include"
"D2007_e1a","D2007_e1a_4","DESPISE",64,0,"LowFreq",1,1570,"Include"
"D2007_e1a","D2007_e1a_4","CLENCH",65,1,"LowFreq",5,3690,"Include"
"D2007_e1a","D2007_e1a_4","DAILY",66,1,"HighFreq",5,1742,"Include"
"D2007_e1a","D2007_e1a_4","NEVER",67,1,"HighFreq",5,2209,"Include"
"D2007_e1a","D2007_e1a_4","INFORM",68,1,"LowFreq",2,1934,"Include"
"D2007_e1a","D2007_e1a_4","SCENE",69,1,"HighFreq",4,2993,"Include"
"D2007_e1a","D2007_e1a_4","AMONG",70,0,"HighFreq",5,2651,"Include"
"D2007_e1a","D2007_e1a_4","TACTIC",71,1,"LowFreq",3,3333,"Include"
"D2007_e1a","D2007_e1a_4","CHARGE",72,0,"HighFreq",3,1081,"Include"
"D2007_e1a","D2007_e1a_4","RATHER",73,0,"HighFreq",5,2532,"Include"
"D2007_e1a","D2007_e1a_4","EXPECT",74,0,"HighFreq",3,3638,"Include"
"D2007_e1a","D2007_e1a_4","LIGHT",75,1,"HighFreq",2,1193,"Include"
"D2007_e1a","D2007_e1a_4","DEDUCE",76,0,"LowFreq",1,1093,"Include"
"D2007_e1a","D2007_e1a_4","ABOVE",77,0,"HighFreq",5,2682,"Include"
"D2007_e1a","D2007_e1a_4","CENSURE",78,1,"LowFreq",1,1718,"Include"
"D2007_e1a","D2007_e1a_4","BECAME",79,1,"HighFreq",6,1447,"Include"
"D2007_e1a","D2007_e1a_4","FARCE",80,1,"LowFreq",4,5077,"Include"
"D2007_e1a","D2007_e1a_4","BANTER",81,0,"LowFreq",2,1819,"Include"
"D2007_e1a","D2007_e1a_4","POACH",82,1,"LowFreq",6,1031,"Include"
"D2007_e1a","D2007_e1a_4","LATER",83,0,"HighFreq",4,3333,"Include"
"D2007_e1a","D2007_e1a_4","MACHINE",84,1,"HighFreq",6,2789,"Include"
"D2007_e1a","D2007_e1a_4","SEVERAL",85,0,"HighFreq",5,3282,"Include"
"D2007_e1a","D2007_e1a_4","MAYBE",86,1,"HighFreq",6,3369,"Include"
"D2007_e1a","D2007_e1a_4","FINAL",87,1,"HighFreq",5,1739,"Include"
"D2007_e1a","D2007_e1a_4","ABOUT",88,1,"HighFreq",5,2099,"Include"
"D2007_e1a","D2007_e1a_4","BORROW",89,0,"LowFreq",1,1869,"Include"
"D2007_e1a","D2007_e1a_4","FRENZY",90,1,"LowFreq",5,1987,"Include"
"D2007_e1a","D2007_e1a_4","UNISON",91,1,"LowFreq",6,3366,"Include"
"D2007_e1a","D2007_e1a_4","FLUENT",92,1,"LowFreq",6,1872,"Include"
"D2007_e1a","D2007_e1a_4","DRIVE",93,0,"HighFreq",2,2664,"Include"
"D2007_e1a","D2007_e1a_4","FATHOM",94,0,"LowFreq",2,5911,"Include"
"D2007_e1a","D2007_e1a_4","EXCEL",95,0,"LowFreq",3,2635,"Include"
"D2007_e1a","D2007_e1a_4","AGHAST",96,1,"LowFreq",6,1908,"Include"
"D2007_e1a","D2007_e1a_4","MEANING",97,0,"HighFreq",3,6751,"Include"
"D2007_e1a","D2007_e1a_4","DISPEL",98,1,"LowFreq",4,3435,"Include"
"D2007_e1a","D2007_e1a_4","UNDER",99,1,"HighFreq",4,4231,"Include"
"D2007_e1a","D2007_e1a_4","CANCEL",100,0,"LowFreq",3,7494,"Include"
"D2007_e1a","D2007_e1a_4","GROUP",101,0,"HighFreq",2,1314,"Include"
"D2007_e1a","D2007_e1a_4","PROVIDE",102,0,"HighFreq",2,2691,"Include"
"D2007_e1a","D2007_e1a_4","SUPPLY",103,0,"HighFreq",2,2062,"Include"
"D2007_e1a","D2007_e1a_4","FIRST",104,0,"HighFreq",2,3275,"Include"
"D2007_e1a","D2007_e1a_4","CONTEND",105,1,"LowFreq",2,1660,"Include"
"D2007_e1a","D2007_e1a_4","GRATE",106,1,"LowFreq",6,1068,"Include"
"D2007_e1a","D2007_e1a_4","NOTIFY",107,1,"LowFreq",3,2807,"Include"
"D2007_e1a","D2007_e1a_4","HIGHER",108,1,"HighFreq",2,3487,"Include"
"D2007_e1a","D2007_e1a_4","NUANCE",109,0,"LowFreq",3,5474,"Include"
"D2007_e1a","D2007_e1a_4","SINCE",110,1,"HighFreq",2,4690,"Include"
"D2007_e1a","D2007_e1a_4","GROUND",111,1,"HighFreq",3,2355,"Include"
"D2007_e1a","D2007_e1a_4","RECENT",112,1,"HighFreq",3,2747,"Include"
"D2007_e1a","D2007_e1a_4","EXCEPT",113,1,"HighFreq",5,2334,"Include"
"D2007_e1a","D2007_e1a_4","SERVICE",114,1,"HighFreq",5,2642,"Include"
"D2007_e1a","D2007_e1a_4","CHANGE",115,1,"HighFreq",3,2112,"Include"
"D2007_e1a","D2007_e1a_4","PRESS",116,0,"HighFreq",2,3034,"Include"
"D2007_e1a","D2007_e1a_4","BETTER",117,1,"HighFreq",2,4269,"Include"
"D2007_e1a","D2007_e1a_4","LARGE",118,1,"HighFreq",2,2094,"Include"
"D2007_e1a","D2007_e1a_4","SPRING",119,0,"HighFreq",2,1275,"Include"
"D2007_e1a","D2007_e1a_4","BETWEEN",120,0,"HighFreq",2,3218,"Include"
"D2007_e1a","D2007_e1a_4","MOMENT",121,1,"HighFreq",3,4610,"Include"
"D2007_e1a","D2007_e1a_4","BANISH",122,1,"LowFreq",3,3040,"Include"
"D2007_e1a","D2007_e1a_4","REBUFF",123,1,"LowFreq",3,1868,"Include"
"D2007_e1a","D2007_e1a_4","DEFENSE",124,0,"HighFreq",3,2220,"Include"
"D2007_e1a","D2007_e1a_4","ENDOW",125,1,"LowFreq",4,2899,"Include"
"D2007_e1a","D2007_e1a_4","INDEED",126,1,"HighFreq",3,2450,"Include"
"D2007_e1a","D2007_e1a_4","HISTORY",127,0,"HighFreq",2,1795,"Include"
"D2007_e1a","D2007_e1a_4","THOUGHT",128,1,"HighFreq",5,2012,"Include"
"D2007_e1a","D2007_e1a_4","AGILITY",129,0,"LowFreq",2,2964,"Include"
"D2007_e1a","D2007_e1a_4","CALLOUS",130,1,"LowFreq",4,2284,"Include"
"D2007_e1a","D2007_e1a_4","CERTIFY",131,0,"LowFreq",5,3444,"Include"
"D2007_e1a","D2007_e1a_4","DEPICT",132,1,"LowFreq",3,9919,"Include"
"D2007_e1a","D2007_e1a_4","PARTY",133,0,"HighFreq",2,1369,"Include"
"D2007_e1a","D2007_e1a_4","VOICE",134,1,"HighFreq",3,3303,"Include"
"D2007_e1a","D2007_e1a_4","TALLY",135,0,"LowFreq",3,2010,"Include"
"D2007_e1a","D2007_e1a_4","DISTORT",136,0,"LowFreq",4,4772,"Include"
"D2007_e1a","D2007_e1a_4","ALONE",137,1,"HighFreq",6,2250,"Include"
"D2007_e1a","D2007_e1a_4","LATHER",138,1,"LowFreq",6,958,"Include"
"D2007_e1a","D2007_e1a_4","THROUGH",139,0,"HighFreq",3,3682,"Include"
"D2007_e1a","D2007_e1a_4","ACCLAIM",140,0,"LowFreq",2,2830,"Include"
"D2007_e1a","D2007_e1a_5","MEANING",1,0,"HighFreq",3,4600,"Include"
"D2007_e1a","D2007_e1a_5","PLACE",2,1,"HighFreq",2,2784,"Include"
"D2007_e1a","D2007_e1a_5","REFINE",3,0,"LowFreq",1,2451,"Include"
"D2007_e1a","D2007_e1a_5","BANTER",4,0,"LowFreq",6,2402,"Include"
"D2007_e1a","D2007_e1a_5","FOUND",5,1,"HighFreq",2,2709,"Include"
"D2007_e1a","D2007_e1a_5","RECORD",6,0,"HighFreq",2,1634,"Include"
"D2007_e1a","D2007_e1a_5","BOGUS",7,1,"LowFreq",6,2227,"Include"
"D2007_e1a","D2007_e1a_5","SUBJECT",8,1,"HighFreq",6,986,"Include"
"D2007_e1a","D2007_e1a_5","PARTY",9,0,"HighFreq",2,2604,"Include"
"D2007_e1a","D2007_e1a_5","BLEND",10,0,"LowFreq",1,1815,"Include"
"D2007_e1a","D2007_e1a_5","RANGE",11,1,"HighFreq",4,2826,"Include"
"D2007_e1a","D2007_e1a_5","CANCEL",12,0,"LowFreq",3,1982,"Include"
"D2007_e1a","D2007_e1a_5","SEASON",13,0,"HighFreq",1,1806,"Include"
"D2007_e1a","D2007_e1a_5","RATHER",14,0,"HighFreq",3,4402,"Include"
"D2007_e1a","D2007_e1a_5","SCANT",15,1,"LowFreq",6,1869,"Include"
"D2007_e1a","D2007_e1a_5","ABOUND",16,1,"LowFreq",6,1374,"Include"
"D2007_e1a","D2007_e1a_5","COMPANY",17,0,"HighFreq",1,1822,"Include"
"D2007_e1a","D2007_e1a_5","LATER",18,0,"HighFreq",2,1437,"Include"
"D2007_e1a","D2007_e1a_5","SINGLE",19,0,"HighFreq",2,1117,"Include"
"D2007_e1a","D2007_e1a_5","COMMON",20,1,"HighFreq",2,1311,"Include"
"D2007_e1a","D2007_e1a_5","AMONG",21,0,"HighFreq",1,1371,"Include"
"D2007_e1a","D2007_e1a_5","BANISH",22,1,"LowFreq",1,1148,"Include"
"D2007_e1a","D2007_e1a_5","ABOUT",23,1,"HighFreq",6,1834,"Include"
"D2007_e1a","D2007_e1a_5","AGHAST",24,1,"LowFreq",6,829,"Include"
"D2007_e1a","D2007_e1a_5","BECAME",25,1,"HighFreq",2,1916,"Include"
"D2007_e1a","D2007_e1a_5","LARGE",26,1,"HighFreq",1,1377,"Include"
"D2007_e1a","D2007_e1a_5","PRESENT",27,1,"HighFreq",6,1409,"Include"
"D2007_e1a","D2007_e1a_5","FROLIC",28,0,"LowFreq",1,1446,"Include"
"D2007_e1a","D2007_e1a_5","UPROAR",29,0,"LowFreq",1,929,"Include"
"D2007_e1a","D2007_e1a_5","INFORM",30,1,"LowFreq",5,3557,"Include"
"D2007_e1a","D2007_e1a_5","HISTORY",31,0,"HighFreq",1,1464,"Include"
"D2007_e1a","D2007_e1a_5","PADDLE",32,0,"LowFreq",1,1229,"Include"
"D2007_e1a","D2007_e1a_5","VOLUME",33,0,"HighFreq",1,795,"Include"
"D2007_e1a","D2007_e1a_5","FLURRY",34,0,"LowFreq",1,894,"Include"
"D2007_e1a","D2007_e1a_5","CLICK",35,0,"LowFreq",1,567,"Include"
"D2007_e1a","D2007_e1a_5","LATHER",36,1,"LowFreq",6,1357,"Include"
"D2007_e1a","D2007_e1a_5","NOTIFY",37,1,"LowFreq",2,1730,"Include"
"D2007_e1a","D2007_e1a_5","FINAL",38,1,"HighFreq",2,827,"Include"
"D2007_e1a","D2007_e1a_5","DEPICT",39,1,"LowFreq",3,2177,"Include"
"D2007_e1a","D2007_e1a_5","INSIDE",40,0,"HighFreq",1,2362,"Include"
"D2007_e1a","D2007_e1a_5","PACIFY",41,1,"LowFreq",6,1275,"Include"
"D2007_e1a","D2007_e1a_5","SPRING",42,0,"HighFreq",3,1436,"Include"
"D2007_e1a","D2007_e1a_5","SERVICE",43,1,"HighFreq",5,2359,"Include"
"D2007_e1a","D2007_e1a_5","FARCE",44,1,"LowFreq",6,1503,"Include"
"D2007_e1a","D2007_e1a_5","VOICE",45,1,"HighFreq",2,1788,"Include"
"D2007_e1a","D2007_e1a_5","EITHER",46,0,"HighFreq",2,1754,"Include"
"D2007_e1a","D2007_e1a_5","GRATE",47,1,"LowFreq",4,2622,"Include"
"D2007_e1a","D2007_e1a_5","CERTIFY",48,0,"LowFreq",4,1466,"Include"
"D2007_e1a","D2007_e1a_5","LIKELY",49,0,"HighFreq",2,1676,"Include"
"D2007_e1a","D2007_e1a_5","SINCE",50,1,"HighFreq",6,1479,"Include"
"D2007_e1a","D2007_e1a_5","SCENE",51,1,"HighFreq",2,2907,"Include"
"D2007_e1a","D2007_e1a_5","PROGRAM",52,1,"HighFreq",2,1050,"Include"
"D2007_e1a","D2007_e1a_5","RECENT",53,1,"HighFreq",4,2748,"Include"
"D2007_e1a","D2007_e1a_5","DISPEL",54,1,"LowFreq",5,5230,"Include"
"D2007_e1a","D2007_e1a_5","PONDER",55,0,"LowFreq",2,2223,"Include"
"D2007_e1a","D2007_e1a_5","WEAVE",56,0,"LowFreq",1,933,"Include"
"D2007_e1a","D2007_e1a_5","NEVER",57,1,"HighFreq",6,1349,"Include"
"D2007_e1a","D2007_e1a_5","NORMAL",58,0,"HighFreq",3,1778,"Include"
"D2007_e1a","D2007_e1a_5","HIGHER",59,1,"HighFreq",6,1231,"Include"
"D2007_e1a","D2007_e1a_5","SHABBY",60,1,"LowFreq",6,809,"Include"
"D2007_e1a","D2007_e1a_5","CHANGE",61,1,"HighFreq",3,3058,"Include"
"D2007_e1a","D2007_e1a_5","UNLESS",62,0,"HighFreq",2,1682,"Include"
"D2007_e1a","D2007_e1a_5","SHREWD",63,0,"LowFreq",6,1295,"Include"
"D2007_e1a","D2007_e1a_5","ALONE",64,1,"HighFreq",3,2304,"Include"
"D2007_e1a","D2007_e1a_5","CLENCH",65,1,"LowFreq",3,1056,"Include"
"D2007_e1a","D2007_e1a_5","INDEED",66,1,"HighFreq",1,1363,"Include"
"D2007_e1a","D2007_e1a_5","ACCLAIM",67,0,"LowFreq",1,1449,"Include"
"D2007_e1a","D2007_e1a_5","PROVIDE",68,0,"HighFreq",1,1807,"Include"
"D2007_e1a","D2007_e1a_5","CONTEND",69,1,"LowFreq",5,1796,"Include"
"D2007_e1a","D2007_e1a_5","FLUENT",70,1,"LowFreq",6,1249,"Include"
"D2007_e1a","D2007_e1a_5","TACTIC",71,1,"LowFreq",6,770,"Include"
"D2007_e1a","D2007_e1a_5","BETTER",72,1,"HighFreq",6,771,"Include"
"D2007_e1a","D2007_e1a_5","HEAVE",73,1,"LowFreq",1,1215,"Include"
"D2007_e1a","D2007_e1a_5","DAILY",74,1,"HighFreq",2,2021,"Include"
"D2007_e1a","D2007_e1a_5","CENSURE",75,1,"LowFreq",6,1296,"Include"
"D2007_e1a","D2007_e1a_5","MEDLEY",76,1,"LowFreq",6,1180,"Include"
"D2007_e1a","D2007_e1a_5","UNISON",77,1,"LowFreq",5,2271,"Include"
"D2007_e1a","D2007_e1a_5","DEDUCE",78,0,"LowFreq",2,1317,"Include"
"D2007_e1a","D2007_e1a_5","LAVISH",79,0,"LowFreq",2,2674,"Include"
"D2007_e1a","D2007_e1a_5","CALLOUS",80,1,"LowFreq",2,825,"Include"
"D2007_e1a","D2007_e1a_5","ANOMALY",81,0,"LowFreq",1,946,"Include"
"D2007_e1a","D2007_e1a_5","GROUND",82,1,"HighFreq",3,2158,"Include"
"D2007_e1a","D2007_e1a_5","ENDOW",83,1,"LowFreq",3,2976,"Include"
"D2007_e1a","D2007_e1a_5","BETWEEN",84,0,"HighFreq",2,1353,"Include"
"D2007_e1a","D2007_e1a_5","GROUP",85,0,"HighFreq",2,972,"Include"
"D2007_e1a","D2007_e1a_5","DEFENSE",86,0,"HighFreq",2,1582,"Include"
"D2007_e1a","D2007_e1a_5","POACH",87,1,"LowFreq",4,3438,"Include"
"D2007_e1a","D2007_e1a_5","SEVERAL",88,0,"HighFreq",3,1561,"Include"
"D2007_e1a","D2007_e1a_5","EXCEL",89,0,"LowFreq",2,2061,"Include"
"D2007_e1a","D2007_e1a_5","LOFTY",90,1,"LowFreq",6,1929,"Include"
"D2007_e1a","D2007_e1a_5","MACHINE",91,1,"HighFreq",6,833,"Include"
"D2007_e1a","D2007_e1a_5","WAGER",92,1,"LowFreq",6,701,"Include"
"D2007_e1a","D2007_e1a_5","MOMENT",93,1,"HighFreq",3,2109,"Include"
"D2007_e1a","D2007_e1a_5","PLANE",94,0,"HighFreq",2,993,"Include"
"D2007_e1a","D2007_e1a_5","MAJOR",95,0,"HighFreq",2,1083,"Include"
"D2007_e1a","D2007_e1a_5","OUTSIDE",96,1,"HighFreq",6,1394,"Include"
"D2007_e1a","D2007_e1a_5","EXCEPT",97,1,"HighFreq",6,979,"Include"
"D2007_e1a","D2007_e1a_5","AGILITY",98,0,"LowFreq",2,1695,"Include"
"D2007_e1a","D2007_e1a_5","EXPECT",99,0,"HighFreq",2,3451,"Include"
"D2007_e1a","D2007_e1a_5","EXALT",100,1,"LowFreq",6,1054,"Include"
"D2007_e1a","D2007_e1a_5","GREED",101,0,"LowFreq",6,1444,"Include"
"D2007_e1a","D2007_e1a_5","THOUGHT",102,1,"HighFreq",6,576,"Include"
"D2007_e1a","D2007_e1a_5","HECTIC",103,0,"LowFreq",2,1041,"Include"
"D2007_e1a","D2007_e1a_5","ABOVE",104,0,"HighFreq",2,2647,"Include"
"D2007_e1a","D2007_e1a_5","DESPISE",105,0,"LowFreq",3,3982,"Include"
"D2007_e1a","D2007_e1a_5","FRENZY",106,1,"LowFreq",6,1939,"Include"
"D2007_e1a","D2007_e1a_5","FURTHER",107,0,"HighFreq",1,1270,"Include"
"D2007_e1a","D2007_e1a_5","ILLICIT",108,1,"LowFreq",6,1467,"Include"
"D2007_e1a","D2007_e1a_5","REBUFF",109,1,"LowFreq",6,854,"Include"
"D2007_e1a","D2007_e1a_5","THROUGH",110,0,"HighFreq",3,1582,"Include"
"D2007_e1a","D2007_e1a_5","PRESS",111,0,"HighFreq",1,1258,"Include"
"D2007_e1a","D2007_e1a_5","SUPPLY",112,0,"HighFreq",2,1220,"Include"
"D2007_e1a","D2007_e1a_5","DECREE",113,1,"LowFreq",2,2015,"Include"
"D2007_e1a","D2007_e1a_5","SPECIAL",114,1,"HighFreq",6,1380,"Include"
"D2007_e1a","D2007_e1a_5","SCOOP",115,0,"LowFreq",1,969,"Include"
"D2007_e1a","D2007_e1a_5","BLATANT",116,1,"LowFreq",2,2180,"Include"
"D2007_e1a","D2007_e1a_5","BORROW",117,0,"LowFreq",2,1043,"Include"
"D2007_e1a","D2007_e1a_5","GARNER",118,1,"LowFreq",6,1286,"Include"
"D2007_e1a","D2007_e1a_5","BECAUSE",119,0,"HighFreq",2,2304,"Include"
"D2007_e1a","D2007_e1a_5","CHARGE",120,0,"HighFreq",4,2556,"Include"
"D2007_e1a","D2007_e1a_5","TALLY",121,0,"LowFreq",1,1241,"Include"
"D2007_e1a","D2007_e1a_5","MAYBE",122,1,"HighFreq",3,2312,"Include"
"D2007_e1a","D2007_e1a_5","CONVICT",123,0,"LowFreq",3,1177,"Include"
"D2007_e1a","D2007_e1a_5","LUCID",124,0,"LowFreq",1,1262,"Include"
"D2007_e1a","D2007_e1a_5","IMPAIR",125,0,"LowFreq",1,850,"Include"
"D2007_e1a","D2007_e1a_5","ENJOIN",126,0,"LowFreq",1,837,"Include"
"D2007_e1a","D2007_e1a_5","EFFORT",127,1,"HighFreq",1,852,"Include"
"D2007_e1a","D2007_e1a_5","MORAL",128,0,"HighFreq",1,1582,"Include"
"D2007_e1a","D2007_e1a_5","DRIVE",129,0,"HighFreq",2,2833,"Include"
"D2007_e1a","D2007_e1a_5","INSIPID",130,0,"LowFreq",1,1945,"Include"
"D2007_e1a","D2007_e1a_5","NUANCE",131,0,"LowFreq",1,788,"Include"
"D2007_e1a","D2007_e1a_5","DOUBT",132,1,"HighFreq",6,1455,"Include"
"D2007_e1a","D2007_e1a_5","LIGHT",133,1,"HighFreq",3,1400,"Include"
"D2007_e1a","D2007_e1a_5","ANIMATE",134,1,"LowFreq",6,1222,"Include"
"D2007_e1a","D2007_e1a_5","DISTORT",135,0,"LowFreq",2,1150,"Include"
"D2007_e1a","D2007_e1a_5","FIRST",136,0,"HighFreq",2,1998,"Include"
"D2007_e1a","D2007_e1a_5","UNDER",137,1,"HighFreq",2,912,"Include"
"D2007_e1a","D2007_e1a_5","GAUCHE",138,0,"LowFreq",1,1450,"Include"
"D2007_e1a","D2007_e1a_5","MELLOW",139,0,"LowFreq",1,1400,"Include"
"D2007_e1a","D2007_e1a_5","FATHOM",140,0,"LowFreq",5,1728,"Include"
"D2007_e1a","D2007_e1a_5","BRINK",1,1,"LowFreq",3,3796,"Include"
"D2007_e1a","D2007_e1a_5","PERSON",2,0,"HighFreq",2,1514,"Include"
"D2007_e1a","D2007_e1a_5","HOUND",3,1,"LowFreq",4,1881,"Include"
"D2007_e1a","D2007_e1a_5","EARLY",4,1,"HighFreq",4,1820,"Include"
"D2007_e1a","D2007_e1a_5","AMEND",5,1,"LowFreq",3,2657,"Include"
"D2007_e1a","D2007_e1a_5","DIGEST",6,0,"LowFreq",1,1713,"Include"
"D2007_e1a","D2007_e1a_5","SEDATE",7,1,"LowFreq",6,1339,"Include"
"D2007_e1a","D2007_e1a_5","HARDLY",8,1,"HighFreq",6,696,"Include"
"D2007_e1a","D2007_e1a_5","ISLAND",9,1,"HighFreq",6,613,"Include"
"D2007_e1a","D2007_e1a_5","RESPECT",10,1,"HighFreq",5,2642,"Include"
"D2007_e1a","D2007_e1a_5","FIELD",11,0,"HighFreq",2,2464,"Include"
"D2007_e1a","D2007_e1a_5","PARODY",12,0,"LowFreq",1,3074,"Include"
"D2007_e1a","D2007_e1a_5","VARIANT",13,0,"LowFreq",1,720,"Include"
"D2007_e1a","D2007_e1a_5","PURPOSE",14,1,"HighFreq",2,1032,"Include"
"D2007_e1a","D2007_e1a_5","ISSUE",15,0,"HighFreq",1,906,"Include"
"D2007_e1a","D2007_e1a_5","CONCISE",16,0,"LowFreq",5,2149,"Include"
"D2007_e1a","D2007_e1a_5","JARGON",17,1,"LowFreq",6,897,"Include"
"D2007_e1a","D2007_e1a_5","OBLIGE",18,1,"LowFreq",6,935,"Include"
"D2007_e1a","D2007_e1a_5","AGAIN",19,0,"HighFreq",4,1511,"Include"
"D2007_e1a","D2007_e1a_5","GALLANT",20,1,"LowFreq",6,1475,"Include"
"D2007_e1a","D2007_e1a_5","STOCK",21,0,"HighFreq",1,1089,"Include"
"D2007_e1a","D2007_e1a_5","CASCADE",22,0,"LowFreq",2,882,"Include"
"D2007_e1a","D2007_e1a_5","INCLINE",23,1,"LowFreq",6,1281,"Include"
"D2007_e1a","D2007_e1a_5","LOCAL",24,0,"HighFreq",2,2196,"Include"
"D2007_e1a","D2007_e1a_5","ABIDE",25,0,"LowFreq",4,3494,"Include"
"D2007_e1a","D2007_e1a_5","NATURAL",26,1,"HighFreq",6,2261,"Include"
"D2007_e1a","D2007_e1a_5","BROIL",27,0,"LowFreq",1,1476,"Include"
"D2007_e1a","D2007_e1a_5","WHETHER",28,0,"HighFreq",1,1140,"Include"
"D2007_e1a","D2007_e1a_5","MANDATE",29,1,"LowFreq",2,1621,"Include"
"D2007_e1a","D2007_e1a_5","MARCH",30,1,"HighFreq",4,4780,"Include"
"D2007_e1a","D2007_e1a_5","SECTION",31,1,"HighFreq",6,1331,"Include"
"D2007_e1a","D2007_e1a_5","FODDER",32,1,"LowFreq",6,1156,"Include"
"D2007_e1a","D2007_e1a_5","ENTAIL",33,1,"LowFreq",6,1408,"Include"
"D2007_e1a","D2007_e1a_5","START",34,1,"HighFreq",2,1586,"Include"
"D2007_e1a","D2007_e1a_5","NIBBLE",35,0,"LowFreq",1,1059,"Include"
"D2007_e1a","D2007_e1a_5","GLIDE",36,0,"LowFreq",1,1495,"Include"
"D2007_e1a","D2007_e1a_5","READY",37,1,"HighFreq",5,2031,"Include"
"D2007_e1a","D2007_e1a_5","BLOAT",38,0,"LowFreq",1,1139,"Include"
"D2007_e1a","D2007_e1a_5","FORAY",39,0,"LowFreq",1,2379,"Include"
"D2007_e1a","D2007_e1a_5","FACILE",40,1,"LowFreq",6,1249,"Include"
"D2007_e1a","D2007_e1a_5","ADAMANT",41,1,"LowFreq",6,1065,"Include"
"D2007_e1a","D2007_e1a_5","ROGUE",42,1,"LowFreq",6,557,"Include"
"D2007_e1a","D2007_e1a_5","HOVER",43,0,"LowFreq",2,1749,"Include"
"D2007_e1a","D2007_e1a_5","HAGGARD",44,1,"LowFreq",6,1095,"Include"
"D2007_e1a","D2007_e1a_5","POLICY",45,0,"HighFreq",4,2733,"Include"
"D2007_e1a","D2007_e1a_5","JEALOUS",46,0,"LowFreq",1,1122,"Include"
"D2007_e1a","D2007_e1a_5","IMAGE",47,1,"HighFreq",6,1405,"Include"
"D2007_e1a","D2007_e1a_5","FORCE",48,1,"HighFreq",6,820,"Include"
"D2007_e1a","D2007_e1a_5","MIGHT",49,0,"HighFreq",2,1061,"Include"
"D2007_e1a","D2007_e1a_5","LIVING",50,1,"HighFreq",1,1145,"Include"
"D2007_e1a","D2007_e1a_5","COMPILE",51,1,"LowFreq",6,1178,"Include"
"D2007_e1a","D2007_e1a_5","FLAIL",52,1,"LowFreq",6,948,"Include"
"D2007_e1a","D2007_e1a_5","PROBLEM",53,0,"HighFreq",1,2417,"Include"
"D2007_e1a","D2007_e1a_5","DAPPER",54,0,"LowFreq",1,1267,"Include"
"D2007_e1a","D2007_e1a_5","ORDER",55,0,"HighFreq",2,1990,"Include"
"D2007_e1a","D2007_e1a_5","CERTAIN",56,0,"HighFreq",1,1342,"Include"
"D2007_e1a","D2007_e1a_5","ROOST",57,0,"LowFreq",1,780,"Include"
"D2007_e1a","D2007_e1a_5","PERIOD",58,1,"HighFreq",6,1234,"Include"
"D2007_e1a","D2007_e1a_5","EVERY",59,0,"HighFreq",2,2874,"Include"
"D2007_e1a","D2007_e1a_5","INCLUDE",60,0,"HighFreq",2,1605,"Include"
"D2007_e1a","D2007_e1a_5","BLISTER",61,1,"LowFreq",6,1225,"Include"
"D2007_e1a","D2007_e1a_5","ARDUOUS",62,1,"LowFreq",3,3186,"Include"
"D2007_e1a","D2007_e1a_5","ASTUTE",63,0,"LowFreq",1,1410,"Include"
"D2007_e1a","D2007_e1a_5","NEMESIS",64,1,"LowFreq",6,1169,"Include"
"D2007_e1a","D2007_e1a_5","MIDDLE",65,1,"HighFreq",4,2244,"Include"
"D2007_e1a","D2007_e1a_5","AFTER",66,1,"HighFreq",2,1724,"Include"
"D2007_e1a","D2007_e1a_5","REALLY",67,0,"HighFreq",2,1872,"Include"
"D2007_e1a","D2007_e1a_5","CLEAR",68,0,"HighFreq",2,724,"Include"
"D2007_e1a","D2007_e1a_5","DESPITE",69,0,"HighFreq",3,2248,"Include"
"D2007_e1a","D2007_e1a_5","ATTACK",70,0,"HighFreq",1,1626,"Include"
"D2007_e1a","D2007_e1a_5","DESIGN",71,1,"HighFreq",2,1558,"Include"
"D2007_e1a","D2007_e1a_5","BELIEVE",72,0,"HighFreq",1,1835,"Include"
"D2007_e1a","D2007_e1a_5","GIVEN",73,0,"HighFreq",3,1845,"Include"
"D2007_e1a","D2007_e1a_5","HAMPER",74,0,"LowFreq",3,759,"Include"
"D2007_e1a","D2007_e1a_5","TERSE",75,0,"LowFreq",1,1281,"Include"
"D2007_e1a","D2007_e1a_5","HEARD",76,0,"HighFreq",1,793,"Include"
"D2007_e1a","D2007_e1a_5","SLANT",77,1,"LowFreq",6,1213,"Include"
"D2007_e1a","D2007_e1a_5","CORNER",78,1,"HighFreq",2,1532,"Include"
"D2007_e1a","D2007_e1a_5","SPACE",79,0,"HighFreq",3,2891,"Include"
"D2007_e1a","D2007_e1a_5","BESTOW",80,0,"LowFreq",1,1396,"Include"
"D2007_e1a","D2007_e1a_5","ENTIRE",81,1,"HighFreq",6,1234,"Include"
"D2007_e1a","D2007_e1a_5","RAMPANT",82,0,"LowFreq",2,1481,"Include"
"D2007_e1a","D2007_e1a_5","BEREFT",83,1,"LowFreq",1,1408,"Include"
"D2007_e1a","D2007_e1a_5","THING",84,0,"HighFreq",1,1009,"Include"
"D2007_e1a","D2007_e1a_5","FLANK",85,0,"LowFreq",5,1763,"Include"
"D2007_e1a","D2007_e1a_5","CHEAT",86,0,"LowFreq",3,1668,"Include"
"D2007_e1a","D2007_e1a_5","TEMPT",87,1,"LowFreq",5,2596,"Include"
"D2007_e1a","D2007_e1a_5","CLASS",88,1,"HighFreq",5,2187,"Include"
"D2007_e1a","D2007_e1a_5","ADEPT",89,0,"LowFreq",2,1406,"Include"
"D2007_e1a","D2007_e1a_5","EMINENT",90,0,"LowFreq",2,2549,"Include"
"D2007_e1a","D2007_e1a_5","TRIAL",91,0,"HighFreq",1,1536,"Include"
"D2007_e1a","D2007_e1a_5","SIMILAR",92,0,"HighFreq",2,2504,"Include"
"D2007_e1a","D2007_e1a_5","PARCEL",93,1,"LowFreq",5,1679,"Include"
"D2007_e1a","D2007_e1a_5","TRADE",94,1,"HighFreq",5,2126,"Include"
"D2007_e1a","D2007_e1a_5","SHOWN",95,1,"HighFreq",2,1377,"Include"
"D2007_e1a","D2007_e1a_5","DEFUNCT",96,1,"LowFreq",5,2638,"Include"
"D2007_e1a","D2007_e1a_5","SURFACE",97,1,"HighFreq",1,1126,"Include"
"D2007_e1a","D2007_e1a_5","LENGTH",98,0,"HighFreq",1,1207,"Include"
"D2007_e1a","D2007_e1a_5","INDUCE",99,0,"LowFreq",2,2180,"Include"
"D2007_e1a","D2007_e1a_5","VALUE",100,1,"HighFreq",1,1498,"Include"
"D2007_e1a","D2007_e1a_5","EMBARK",101,1,"LowFreq",4,1408,"Include"
"D2007_e1a","D2007_e1a_5","CHANT",102,1,"LowFreq",6,1203,"Include"
"D2007_e1a","D2007_e1a_5","GALLOP",103,0,"LowFreq",1,2131,"Include"
"D2007_e1a","D2007_e1a_5","LEAVE",104,1,"HighFreq",4,2591,"Include"
"D2007_e1a","D2007_e1a_5","LIABLE",105,0,"LowFreq",1,1853,"Include"
"D2007_e1a","D2007_e1a_5","PRIVATE",106,1,"HighFreq",5,1736,"Include"
"D2007_e1a","D2007_e1a_5","GENERAL",107,1,"HighFreq",5,1573,"Include"
"D2007_e1a","D2007_e1a_5","SOUND",108,1,"HighFreq",2,1327,"Include"
"D2007_e1a","D2007_e1a_5","OFTEN",109,1,"HighFreq",2,2608,"Include"
"D2007_e1a","D2007_e1a_5","BEHIND",110,1,"HighFreq",3,2422,"Include"
"D2007_e1a","D2007_e1a_5","ABACK",111,1,"LowFreq",1,1673,"Include"
"D2007_e1a","D2007_e1a_5","FEDERAL",112,1,"HighFreq",1,1574,"Include"
"D2007_e1a","D2007_e1a_5","COURSE",113,0,"HighFreq",1,1616,"Include"
"D2007_e1a","D2007_e1a_5","FORMER",114,0,"HighFreq",2,1531,"Include"
"D2007_e1a","D2007_e1a_5","POINT",115,1,"HighFreq",6,1238,"Include"
"D2007_e1a","D2007_e1a_5","RADIANT",116,1,"LowFreq",3,1839,"Include"
"D2007_e1a","D2007_e1a_5","NEARLY",117,0,"HighFreq",2,1307,"Include"
"D2007_e1a","D2007_e1a_5","ONWARD",118,0,"LowFreq",1,1069,"Include"
"D2007_e1a","D2007_e1a_5","SLEEK",119,0,"LowFreq",1,623,"Include"
"D2007_e1a","D2007_e1a_5","AMIDST",120,0,"LowFreq",1,726,"Include"
"D2007_e1a","D2007_e1a_5","DIFFUSE",121,1,"LowFreq",6,1577,"Include"
"D2007_e1a","D2007_e1a_5","WITHIN",122,1,"HighFreq",4,1426,"Include"
"D2007_e1a","D2007_e1a_5","SENSE",123,0,"HighFreq",2,1734,"Include"
"D2007_e1a","D2007_e1a_5","MANUAL",124,0,"LowFreq",1,2642,"Include"
"D2007_e1a","D2007_e1a_5","CAPTIVE",125,1,"LowFreq",1,529,"Include"
"D2007_e1a","D2007_e1a_5","VARIOUS",126,0,"HighFreq",2,1580,"Include"
"D2007_e1a","D2007_e1a_5","RESULT",127,0,"HighFreq",2,1220,"Include"
"D2007_e1a","D2007_e1a_5","QUALITY",128,0,"HighFreq",1,1059,"Include"
"D2007_e1a","D2007_e1a_5","DEGRADE",129,0,"LowFreq",2,1542,"Include"
"D2007_e1a","D2007_e1a_5","AROUND",130,1,"HighFreq",2,1585,"Include"
"D2007_e1a","D2007_e1a_5","CENTER",131,1,"HighFreq",3,1202,"Include"
"D2007_e1a","D2007_e1a_5","SENILE",132,0,"LowFreq",1,2637,"Include"
"D2007_e1a","D2007_e1a_5","LENIENT",133,1,"LowFreq",5,2060,"Include"
"D2007_e1a","D2007_e1a_5","EASILY",134,0,"HighFreq",2,1941,"Include"
"D2007_e1a","D2007_e1a_5","GLARE",135,1,"LowFreq",2,916,"Include"
"D2007_e1a","D2007_e1a_5","MARKET",136,0,"HighFreq",3,1673,"Include"
"D2007_e1a","D2007_e1a_5","ERRATIC",137,0,"LowFreq",1,1063,"Include"
"D2007_e1a","D2007_e1a_5","VANISH",138,1,"LowFreq",6,1206,"Include"
"D2007_e1a","D2007_e1a_5","DAINTY",139,1,"LowFreq",6,1044,"Include"
"D2007_e1a","D2007_e1a_5","FALLOW",140,0,"LowFreq",6,711,"Include"
"D2007_e1a","D2007_e1a_6","CONCISE",1,0,"LowFreq",1,3420,"Include"
"D2007_e1a","D2007_e1a_6","FACILE",2,1,"LowFreq",1,2431,"Include"
"D2007_e1a","D2007_e1a_6","AMEND",3,1,"LowFreq",6,3681,"Include"
"D2007_e1a","D2007_e1a_6","MANUAL",4,0,"LowFreq",1,2275,"Include"
"D2007_e1a","D2007_e1a_6","MARCH",5,1,"HighFreq",6,2388,"Include"
"D2007_e1a","D2007_e1a_6","FORAY",6,0,"LowFreq",1,6483,"Include"
"D2007_e1a","D2007_e1a_6","NEMESIS",7,1,"LowFreq",6,1575,"Include"
"D2007_e1a","D2007_e1a_6","VANISH",8,1,"LowFreq",6,1728,"Include"
"D2007_e1a","D2007_e1a_6","HARDLY",9,1,"HighFreq",6,1412,"Include"
"D2007_e1a","D2007_e1a_6","CERTAIN",10,0,"HighFreq",2,4694,"Include"
"D2007_e1a","D2007_e1a_6","ENTAIL",11,1,"LowFreq",6,1315,"Include"
"D2007_e1a","D2007_e1a_6","BROIL",12,0,"LowFreq",1,1424,"Include"
"D2007_e1a","D2007_e1a_6","GLIDE",13,0,"LowFreq",1,1255,"Include"
"D2007_e1a","D2007_e1a_6","ARDUOUS",14,1,"LowFreq",6,1292,"Include"
"D2007_e1a","D2007_e1a_6","NATURAL",15,1,"HighFreq",4,5021,"Include"
"D2007_e1a","D2007_e1a_6","JEALOUS",16,0,"LowFreq",1,2076,"Include"
"D2007_e1a","D2007_e1a_6","ISLAND",17,1,"HighFreq",6,1118,"Include"
"D2007_e1a","D2007_e1a_6","FIELD",18,0,"HighFreq",1,1157,"Include"
"D2007_e1a","D2007_e1a_6","CLASS",19,1,"HighFreq",6,1639,"Include"
"D2007_e1a","D2007_e1a_6","HEARD",20,0,"HighFreq",4,4834,"Include"
"D2007_e1a","D2007_e1a_6","DAINTY",21,1,"LowFreq",6,1055,"Include"
"D2007_e1a","D2007_e1a_6","VARIOUS",22,0,"HighFreq",3,6345,"Include"
"D2007_e1a","D2007_e1a_6","ABIDE",23,0,"LowFreq",3,2575,"Include"
"D2007_e1a","D2007_e1a_6","RADIANT",24,1,"LowFreq",6,1138,"Include"
"D2007_e1a","D2007_e1a_6","MIDDLE",25,1,"HighFreq",1,1888,"Include"
"D2007_e1a","D2007_e1a_6","ROGUE",26,1,"LowFreq",6,1050,"Include"
"D2007_e1a","D2007_e1a_6","SENSE",27,0,"HighFreq",3,2457,"Include"
"D2007_e1a","D2007_e1a_6","FORMER",28,0,"HighFreq",1,1816,"Include"
"D2007_e1a","D2007_e1a_6","MIGHT",29,0,"HighFreq",1,1087,"Include"
"D2007_e1a","D2007_e1a_6","DEGRADE",30,0,"LowFreq",1,680,"Include"
"D2007_e1a","D2007_e1a_6","FODDER",31,1,"LowFreq",6,1516,"Include"
"D2007_e1a","D2007_e1a_6","SECTION",32,1,"HighFreq",6,1233,"Include"
"D2007_e1a","D2007_e1a_6","ORDER",33,0,"HighFreq",3,7229,"Include"
"D2007_e1a","D2007_e1a_6","GALLOP",34,0,"LowFreq",1,2776,"Include"
"D2007_e1a","D2007_e1a_6","EVERY",35,0,"HighFreq",1,1323,"Include"
"D2007_e1a","D2007_e1a_6","BLOAT",36,0,"LowFreq",3,4310,"Include"
"D2007_e1a","D2007_e1a_6","ABACK",37,1,"LowFreq",6,1255,"Include"
"D2007_e1a","D2007_e1a_6","SURFACE",38,1,"HighFreq",6,3993,"Include"
"D2007_e1a","D2007_e1a_6","HOUND",39,1,"LowFreq",6,871,"Include"
"D2007_e1a","D2007_e1a_6","DESIGN",40,1,"HighFreq",6,714,"Include"
"D2007_e1a","D2007_e1a_6","EASILY",41,0,"HighFreq",1,2749,"Include"
"D2007_e1a","D2007_e1a_6","VARIANT",42,0,"LowFreq",4,5903,"Include"
"D2007_e1a","D2007_e1a_6","ASTUTE",43,0,"LowFreq",1,2497,"Include"
"D2007_e1a","D2007_e1a_6","COMPILE",44,1,"LowFreq",6,1315,"Include"
"D2007_e1a","D2007_e1a_6","WITHIN",45,1,"HighFreq",4,3603,"Include"
"D2007_e1a","D2007_e1a_6","REALLY",46,0,"HighFreq",3,2208,"Include"
"D2007_e1a","D2007_e1a_6","TRIAL",47,0,"HighFreq",3,2735,"Include"
"D2007_e1a","D2007_e1a_6","EMBARK",48,1,"LowFreq",6,1174,"Include"
"D2007_e1a","D2007_e1a_6","BESTOW",49,0,"LowFreq",1,2273,"Include"
"D2007_e1a","D2007_e1a_6","CHANT",50,1,"LowFreq",6,1165,"Include"
"D2007_e1a","D2007_e1a_6","RESULT",51,0,"HighFreq",2,3732,"Include"
"D2007_e1a","D2007_e1a_6","ENTIRE",52,1,"HighFreq",4,5001,"Include"
"D2007_e1a","D2007_e1a_6","SLEEK",53,0,"LowFreq",1,1694,"Include"
"D2007_e1a","D2007_e1a_6","BEHIND",54,1,"HighFreq",4,3600,"Include"
"D2007_e1a","D2007_e1a_6","ADEPT",55,0,"LowFreq",6,2279,"Include"
"D2007_e1a","D2007_e1a_6","LIVING",56,1,"HighFreq",6,1564,"Include"
"D2007_e1a","D2007_e1a_6","HAMPER",57,0,"LowFreq",3,2048,"Include"
"D2007_e1a","D2007_e1a_6","SIMILAR",58,0,"HighFreq",3,1328,"Include"
"D2007_e1a","D2007_e1a_6","DEFUNCT",59,1,"LowFreq",2,4817,"Include"
"D2007_e1a","D2007_e1a_6","BEREFT",60,1,"LowFreq",1,2092,"Include"
"D2007_e1a","D2007_e1a_6","CASCADE",61,0,"LowFreq",1,1604,"Include"
"D2007_e1a","D2007_e1a_6","SEDATE",62,1,"LowFreq",6,1317,"Include"
"D2007_e1a","D2007_e1a_6","ADAMANT",63,1,"LowFreq",6,880,"Include"
"D2007_e1a","D2007_e1a_6","INCLUDE",64,0,"HighFreq",4,2727,"Include"
"D2007_e1a","D2007_e1a_6","FORCE",65,1,"HighFreq",6,1337,"Include"
"D2007_e1a","D2007_e1a_6","PARCEL",66,1,"LowFreq",6,1072,"Include"
"D2007_e1a","D2007_e1a_6","OFTEN",67,1,"HighFreq",6,919,"Include"
"D2007_e1a","D2007_e1a_6","WHETHER",68,0,"HighFreq",1,4472,"Include"
"D2007_e1a","D2007_e1a_6","DAPPER",69,0,"LowFreq",2,1951,"Include"
"D2007_e1a","D2007_e1a_6","PURPOSE",70,1,"HighFreq",6,1268,"Include"
"D2007_e1a","D2007_e1a_6","ISSUE",71,0,"HighFreq",1,1890,"Include"
"D2007_e1a","D2007_e1a_6","EMINENT",72,0,"LowFreq",6,1217,"Include"
"D2007_e1a","D2007_e1a_6","HOVER",73,0,"LowFreq",3,4122,"Include"
"D2007_e1a","D2007_e1a_6","FEDERAL",74,1,"HighFreq",6,1304,"Include"
"D2007_e1a","D2007_e1a_6","NEARLY",75,0,"HighFreq",4,3804,"Include"
"D2007_e1a","D2007_e1a_6","POINT",76,1,"HighFreq",6,1837,"Include"
"D2007_e1a","D2007_e1a_6","STOCK",77,0,"HighFreq",1,1709,"Include"
"D2007_e1a","D2007_e1a_6","DIGEST",78,0,"LowFreq",1,1876,"Include"
"D2007_e1a","D2007_e1a_6","AGAIN",79,0,"HighFreq",1,1095,"Include"
"D2007_e1a","D2007_e1a_6","FALLOW",80,0,"LowFreq",1,1781,"Include"
"D2007_e1a","D2007_e1a_6","LEAVE",81,1,"HighFreq",6,2508,"Include"
"D2007_e1a","D2007_e1a_6","FLANK",82,0,"LowFreq",1,1703,"Include"
"D2007_e1a","D2007_e1a_6","READY",83,1,"HighFreq",4,2582,"Include"
"D2007_e1a","D2007_e1a_6","GLARE",84,1,"LowFreq",3,2094,"Include"
"D2007_e1a","D2007_e1a_6","RAMPANT",85,0,"LowFreq",6,1471,"Include"
"D2007_e1a","D2007_e1a_6","CORNER",86,1,"HighFreq",3,3627,"Include"
"D2007_e1a","D2007_e1a_6","INCLINE",87,1,"LowFreq",3,2644,"Include"
"D2007_e1a","D2007_e1a_6","JARGON",88,1,"LowFreq",6,1124,"Include"
"D2007_e1a","D2007_e1a_6","ATTACK",89,0,"HighFreq",1,4158,"Include"
"D2007_e1a","D2007_e1a_6","MARKET",90,0,"HighFreq",1,1412,"Include"
"D2007_e1a","D2007_e1a_6","SPACE",91,0,"HighFreq",1,745,"Include"
"D2007_e1a","D2007_e1a_6","CLEAR",92,0,"HighFreq",1,1528,"Include"
"D2007_e1a","D2007_e1a_6","ERRATIC",93,0,"LowFreq",1,827,"Include"
"D2007_e1a","D2007_e1a_6","START",94,1,"HighFreq",6,4297,"Include"
"D2007_e1a","D2007_e1a_6","SLANT",95,1,"LowFreq",5,1236,"Include"
"D2007_e1a","D2007_e1a_6","IMAGE",96,1,"HighFreq",6,1567,"Include"
"D2007_e1a","D2007_e1a_6","EARLY",97,1,"HighFreq",6,2370,"Include"
"D2007_e1a","D2007_e1a_6","CHEAT",98,0,"LowFreq",6,1327,"Include"
"D2007_e1a","D2007_e1a_6","GIVEN",99,0,"HighFreq",3,1701,"Include"
"D2007_e1a","D2007_e1a_6","SENILE",100,0,"LowFreq",3,3196,"Include"
"D2007_e1a","D2007_e1a_6","DIFFUSE",101,1,"LowFreq",5,1709,"Include"
"D2007_e1a","D2007_e1a_6","LENIENT",102,1,"LowFreq",6,1729,"Include"
"D2007_e1a","D2007_e1a_6","ONWARD",103,0,"LowFreq",1,1803,"Include"
"D2007_e1a","D2007_e1a_6","LOCAL",104,0,"HighFreq",5,3753,"Include"
"D2007_e1a","D2007_e1a_6","RESPECT",105,1,"HighFreq",6,1709,"Include"
"D2007_e1a","D2007_e1a_6","BELIEVE",106,0,"HighFreq",6,895,"Include"
"D2007_e1a","D2007_e1a_6","QUALITY",107,0,"HighFreq",2,5104,"Include"
"D2007_e1a","D2007_e1a_6","NIBBLE",108,0,"LowFreq",1,1245,"Include"
"D2007_e1a","D2007_e1a_6","THING",109,0,"HighFreq",1,1235,"Include"
"D2007_e1a","D2007_e1a_6","TRADE",110,1,"HighFreq",4,4895,"Include"
"D2007_e1a","D2007_e1a_6","VALUE",111,1,"HighFreq",6,1646,"Include"
"D2007_e1a","D2007_e1a_6","SOUND",112,1,"HighFreq",6,1089,"Include"
"D2007_e1a","D2007_e1a_6","BLISTER",113,1,"LowFreq",4,3207,"Include"
"D2007_e1a","D2007_e1a_6","OBLIGE",114,1,"LowFreq",5,4112,"Include"
"D2007_e1a","D2007_e1a_6","MANDATE",115,1,"LowFreq",6,1227,"Include"
"D2007_e1a","D2007_e1a_6","AFTER",116,1,"HighFreq",6,1403,"Include"
"D2007_e1a","D2007_e1a_6","FLAIL",117,1,"LowFreq",6,1245,"Include"
"D2007_e1a","D2007_e1a_6","AROUND",118,1,"HighFreq",3,2393,"Include"
"D2007_e1a","D2007_e1a_6","DESPITE",119,0,"HighFreq",3,1876,"Include"
"D2007_e1a","D2007_e1a_6","TERSE",120,0,"LowFreq",1,1755,"Include"
"D2007_e1a","D2007_e1a_6","PROBLEM",121,0,"HighFreq",5,2961,"Include"
"D2007_e1a","D2007_e1a_6","CAPTIVE",122,1,"LowFreq",5,1220,"Include"
"D2007_e1a","D2007_e1a_6","BRINK",123,1,"LowFreq",6,1083,"Include"
"D2007_e1a","D2007_e1a_6","GENERAL",124,1,"HighFreq",6,3401,"Include"
"D2007_e1a","D2007_e1a_6","PERIOD",125,1,"HighFreq",6,863,"Include"
"D2007_e1a","D2007_e1a_6","POLICY",126,0,"HighFreq",5,1725,"Include"
"D2007_e1a","D2007_e1a_6","PARODY",127,0,"LowFreq",3,1576,"Include"
"D2007_e1a","D2007_e1a_6","PERSON",128,0,"HighFreq",2,3492,"Include"
"D2007_e1a","D2007_e1a_6","HAGGARD",129,1,"LowFreq",6,1661,"Include"
"D2007_e1a","D2007_e1a_6","LIABLE",130,0,"LowFreq",3,2385,"Include"
"D2007_e1a","D2007_e1a_6","LENGTH",131,0,"HighFreq",2,1725,"Include"
"D2007_e1a","D2007_e1a_6","GALLANT",132,1,"LowFreq",6,1194,"Include"
"D2007_e1a","D2007_e1a_6","COURSE",133,0,"HighFreq",6,1113,"Include"
"D2007_e1a","D2007_e1a_6","INDUCE",134,0,"LowFreq",3,2491,"Include"
"D2007_e1a","D2007_e1a_6","ROOST",135,0,"LowFreq",2,3195,"Include"
"D2007_e1a","D2007_e1a_6","CENTER",136,1,"HighFreq",3,5508,"Include"
"D2007_e1a","D2007_e1a_6","PRIVATE",137,1,"HighFreq",6,1769,"Include"
"D2007_e1a","D2007_e1a_6","SHOWN",138,1,"HighFreq",3,1667,"Include"
"D2007_e1a","D2007_e1a_6","TEMPT",139,1,"LowFreq",2,3256,"Include"
"D2007_e1a","D2007_e1a_6","AMIDST",140,0,"LowFreq",1,1755,"Include"
"D2007_e1a","D2007_e1a_6","PROVIDE",1,0,"HighFreq",1,6630,"Include"
"D2007_e1a","D2007_e1a_6","GARNER",2,1,"LowFreq",6,1366,"Include"
"D2007_e1a","D2007_e1a_6","CENSURE",3,1,"LowFreq",6,2972,"Include"
"D2007_e1a","D2007_e1a_6","MORAL",4,0,"HighFreq",1,1958,"Include"
"D2007_e1a","D2007_e1a_6","SERVICE",5,1,"HighFreq",5,2577,"Include"
"D2007_e1a","D2007_e1a_6","EXPECT",6,0,"HighFreq",3,1432,"Include"
"D2007_e1a","D2007_e1a_6","PLANE",7,0,"HighFreq",3,1051,"Include"
"D2007_e1a","D2007_e1a_6","BECAUSE",8,0,"HighFreq",3,1680,"Include"
"D2007_e1a","D2007_e1a_6","MAJOR",9,0,"HighFreq",2,3488,"Include"
"D2007_e1a","D2007_e1a_6","AGILITY",10,0,"LowFreq",1,2192,"Include"
"D2007_e1a","D2007_e1a_6","SPECIAL",11,1,"HighFreq",6,1681,"Include"
"D2007_e1a","D2007_e1a_6","COMPANY",12,0,"HighFreq",4,2638,"Include"
"D2007_e1a","D2007_e1a_6","EFFORT",13,1,"HighFreq",6,1225,"Include"
"D2007_e1a","D2007_e1a_6","IMPAIR",14,0,"LowFreq",3,1785,"Include"
"D2007_e1a","D2007_e1a_6","BORROW",15,0,"LowFreq",1,1955,"Include"
"D2007_e1a","D2007_e1a_6","THOUGHT",16,1,"HighFreq",1,1760,"Include"
"D2007_e1a","D2007_e1a_6","NORMAL",17,0,"HighFreq",1,1441,"Include"
"D2007_e1a","D2007_e1a_6","DISPEL",18,1,"LowFreq",6,1805,"Include"
"D2007_e1a","D2007_e1a_6","MEDLEY",19,1,"LowFreq",6,1105,"Include"
"D2007_e1a","D2007_e1a_6","FATHOM",20,0,"LowFreq",3,3107,"Include"
"D2007_e1a","D2007_e1a_6","MOMENT",21,1,"HighFreq",3,3542,"Include"
"D2007_e1a","D2007_e1a_6","ABOUND",22,1,"LowFreq",6,1068,"Include"
"D2007_e1a","D2007_e1a_6","SUPPLY",23,0,"HighFreq",1,2953,"Include"
"D2007_e1a","D2007_e1a_6","FOUND",24,1,"HighFreq",1,3212,"Include"
"D2007_e1a","D2007_e1a_6","PONDER",25,0,"LowFreq",1,1544,"Include"
"D2007_e1a","D2007_e1a_6","DISTORT",26,0,"LowFreq",1,1068,"Include"
"D2007_e1a","D2007_e1a_6","DEFENSE",27,0,"HighFreq",5,1627,"Include"
"D2007_e1a","D2007_e1a_6","NOTIFY",28,1,"LowFreq",6,980,"Include"
"D2007_e1a","D2007_e1a_6","HEAVE",29,1,"LowFreq",6,846,"Include"
"D2007_e1a","D2007_e1a_6","FLUENT",30,1,"LowFreq",1,4713,"Include"
"D2007_e1a","D2007_e1a_6","PROGRAM",31,1,"HighFreq",2,2101,"Include"
"D2007_e1a","D2007_e1a_6","RANGE",32,1,"HighFreq",2,3516,"Include"
"D2007_e1a","D2007_e1a_6","BANTER",33,0,"LowFreq",1,1404,"Include"
"D2007_e1a","D2007_e1a_6","LARGE",34,1,"HighFreq",6,997,"Include"
"D2007_e1a","D2007_e1a_6","BLATANT",35,1,"LowFreq",6,1238,"Include"
"D2007_e1a","D2007_e1a_6","TALLY",36,0,"LowFreq",1,1706,"Include"
"D2007_e1a","D2007_e1a_6","DEDUCE",37,0,"LowFreq",1,1454,"Include"
"D2007_e1a","D2007_e1a_6","PARTY",38,0,"HighFreq",1,1125,"Include"
"D2007_e1a","D2007_e1a_6","PRESS",39,0,"HighFreq",1,1522,"Include"
"D2007_e1a","D2007_e1a_6","CERTIFY",40,0,"LowFreq",5,3070,"Include"
"D2007_e1a","D2007_e1a_6","TACTIC",41,1,"LowFreq",6,981,"Include"
"D2007_e1a","D2007_e1a_6","SPRING",42,0,"HighFreq",2,4347,"Include"
"D2007_e1a","D2007_e1a_6","ENDOW",43,1,"LowFreq",6,1162,"Include"
"D2007_e1a","D2007_e1a_6","HIGHER",44,1,"HighFreq",6,852,"Include"
"D2007_e1a","D2007_e1a_6","CONVICT",45,0,"LowFreq",6,852,"Include"
"D2007_e1a","D2007_e1a_6","CHARGE",46,0,"HighFreq",3,2933,"Include"
"D2007_e1a","D2007_e1a_6","FURTHER",47,0,"HighFreq",5,1870,"Include"
"D2007_e1a","D2007_e1a_6","GROUND",48,1,"HighFreq",4,2134,"Include"
"D2007_e1a","D2007_e1a_6","FLURRY",49,0,"LowFreq",2,4696,"Include"
"D2007_e1a","D2007_e1a_6","SCANT",50,1,"LowFreq",6,1541,"Include"
"D2007_e1a","D2007_e1a_6","ILLICIT",51,1,"LowFreq",6,781,"Include"
"D2007_e1a","D2007_e1a_6","COMMON",52,1,"HighFreq",3,2825,"Include"
"D2007_e1a","D2007_e1a_6","SCENE",53,1,"HighFreq",6,1161,"Include"
"D2007_e1a","D2007_e1a_6","SCOOP",54,0,"LowFreq",1,1761,"Include"
"D2007_e1a","D2007_e1a_6","INSIDE",55,0,"HighFreq",1,2357,"Include"
"D2007_e1a","D2007_e1a_6","DOUBT",56,1,"HighFreq",6,1024,"Include"
"D2007_e1a","D2007_e1a_6","NUANCE",57,0,"LowFreq",1,3152,"Include"
"D2007_e1a","D2007_e1a_6","LIGHT",58,1,"HighFreq",1,1321,"Include"
"D2007_e1a","D2007_e1a_6","VOICE",59,1,"HighFreq",6,1134,"Include"
"D2007_e1a","D2007_e1a_6","GREED",60,0,"LowFreq",4,5565,"Include"
"D2007_e1a","D2007_e1a_6","UNDER",61,1,"HighFreq",2,3350,"Include"
"D2007_e1a","D2007_e1a_6","FRENZY",62,1,"LowFreq",6,1229,"Include"
"D2007_e1a","D2007_e1a_6","LUCID",63,0,"LowFreq",1,2426,"Include"
"D2007_e1a","D2007_e1a_6","UNLESS",64,0,"HighFreq",1,1216,"Include"
"D2007_e1a","D2007_e1a_6","CANCEL",65,0,"LowFreq",3,4142,"Include"
"D2007_e1a","D2007_e1a_6","OUTSIDE",66,1,"HighFreq",6,1201,"Include"
"D2007_e1a","D2007_e1a_6","ENJOIN",67,0,"LowFreq",1,1361,"Include"
"D2007_e1a","D2007_e1a_6","SHABBY",68,1,"LowFreq",2,3946,"Include"
"D2007_e1a","D2007_e1a_6","WAGER",69,1,"LowFreq",6,1217,"Include"
"D2007_e1a","D2007_e1a_6","LATER",70,0,"HighFreq",3,4137,"Include"
"D2007_e1a","D2007_e1a_6","POACH",71,1,"LowFreq",1,2460,"Include"
"D2007_e1a","D2007_e1a_6","ANIMATE",72,1,"LowFreq",6,5141,"Include"
"D2007_e1a","D2007_e1a_6","LATHER",73,1,"LowFreq",5,1648,"Include"
"D2007_e1a","D2007_e1a_6","PRESENT",74,1,"HighFreq",5,2514,"Include"
"D2007_e1a","D2007_e1a_6","HISTORY",75,0,"HighFreq",4,1738,"Include"
"D2007_e1a","D2007_e1a_6","ALONE",76,1,"HighFreq",6,1188,"Include"
"D2007_e1a","D2007_e1a_6","REBUFF",77,1,"LowFreq",6,963,"Include"
"D2007_e1a","D2007_e1a_6","CONTEND",78,1,"LowFreq",4,3417,"Include"
"D2007_e1a","D2007_e1a_6","UNISON",79,1,"LowFreq",4,2020,"Include"
"D2007_e1a","D2007_e1a_6","BETWEEN",80,0,"HighFreq",3,1849,"Include"
"D2007_e1a","D2007_e1a_6","PLACE",81,1,"HighFreq",3,2686,"Include"
"D2007_e1a","D2007_e1a_6","NEVER",82,1,"HighFreq",3,1262,"Include"
"D2007_e1a","D2007_e1a_6","FROLIC",83,0,"LowFreq",2,1733,"Include"
"D2007_e1a","D2007_e1a_6","ACCLAIM",84,0,"LowFreq",1,1345,"Include"
"D2007_e1a","D2007_e1a_6","FIRST",85,0,"HighFreq",2,3042,"Include"
"D2007_e1a","D2007_e1a_6","CALLOUS",86,1,"LowFreq",6,1309,"Include"
"D2007_e1a","D2007_e1a_6","DESPISE",87,0,"LowFreq",6,1351,"Include"
"D2007_e1a","D2007_e1a_6","LIKELY",88,0,"HighFreq",2,2112,"Include"
"D2007_e1a","D2007_e1a_6","LOFTY",89,1,"LowFreq",5,1222,"Include"
"D2007_e1a","D2007_e1a_6","PADDLE",90,0,"LowFreq",2,1641,"Include"
"D2007_e1a","D2007_e1a_6","GROUP",91,0,"HighFreq",3,4191,"Include"
"D2007_e1a","D2007_e1a_6","INSIPID",92,0,"LowFreq",1,1488,"Include"
"D2007_e1a","D2007_e1a_6","ABOVE",93,0,"HighFreq",5,1403,"Include"
"D2007_e1a","D2007_e1a_6","HECTIC",94,0,"LowFreq",3,1328,"Include"
"D2007_e1a","D2007_e1a_6","SUBJECT",95,1,"HighFreq",2,2054,"Include"
"D2007_e1a","D2007_e1a_6","CLENCH",96,1,"LowFreq",2,4970,"Include"
"D2007_e1a","D2007_e1a_6","DEPICT",97,1,"LowFreq",5,1261,"Include"
"D2007_e1a","D2007_e1a_6","RECENT",98,1,"HighFreq",4,3154,"Include"
"D2007_e1a","D2007_e1a_6","EITHER",99,0,"HighFreq",3,4227,"Include"
"D2007_e1a","D2007_e1a_6","GAUCHE",100,0,"LowFreq",2,1418,"Include"
"D2007_e1a","D2007_e1a_6","DECREE",101,1,"LowFreq",5,1072,"Include"
"D2007_e1a","D2007_e1a_6","FINAL",102,1,"HighFreq",6,849,"Include"
"D2007_e1a","D2007_e1a_6","GRATE",103,1,"LowFreq",4,1483,"Include"
"D2007_e1a","D2007_e1a_6","BANISH",104,1,"LowFreq",3,1384,"Include"
"D2007_e1a","D2007_e1a_6","RATHER",105,0,"HighFreq",1,2300,"Include"
"D2007_e1a","D2007_e1a_6","PACIFY",106,1,"LowFreq",6,1065,"Include"
"D2007_e1a","D2007_e1a_6","INDEED",107,1,"HighFreq",6,850,"Include"
"D2007_e1a","D2007_e1a_6","REFINE",108,0,"LowFreq",2,2043,"Include"
"D2007_e1a","D2007_e1a_6","MELLOW",109,0,"LowFreq",1,1009,"Include"
"D2007_e1a","D2007_e1a_6","EXCEPT",110,1,"HighFreq",5,1144,"Include"
"D2007_e1a","D2007_e1a_6","DAILY",111,1,"HighFreq",1,1205,"Include"
"D2007_e1a","D2007_e1a_6","MEANING",112,0,"HighFreq",4,2487,"Include"
"D2007_e1a","D2007_e1a_6","SHREWD",113,0,"LowFreq",1,1770,"Include"
"D2007_e1a","D2007_e1a_6","MACHINE",114,1,"HighFreq",4,1356,"Include"
"D2007_e1a","D2007_e1a_6","MAYBE",115,1,"HighFreq",2,1782,"Include"
"D2007_e1a","D2007_e1a_6","INFORM",116,1,"LowFreq",4,4662,"Include"
"D2007_e1a","D2007_e1a_6","VOLUME",117,0,"HighFreq",4,1101,"Include"
"D2007_e1a","D2007_e1a_6","DRIVE",118,0,"HighFreq",2,1501,"Include"
"D2007_e1a","D2007_e1a_6","FARCE",119,1,"LowFreq",6,1212,"Include"
"D2007_e1a","D2007_e1a_6","BOGUS",120,1,"LowFreq",6,703,"Include"
"D2007_e1a","D2007_e1a_6","BECAME",121,1,"HighFreq",3,2289,"Include"
"D2007_e1a","D2007_e1a_6","THROUGH",122,0,"HighFreq",2,1260,"Include"
"D2007_e1a","D2007_e1a_6","SEVERAL",123,0,"HighFreq",2,1615,"Include"
"D2007_e1a","D2007_e1a_6","SINGLE",124,0,"HighFreq",1,1154,"Include"
"D2007_e1a","D2007_e1a_6","ABOUT",125,1,"HighFreq",6,936,"Include"
"D2007_e1a","D2007_e1a_6","UPROAR",126,0,"LowFreq",3,1334,"Include"
"D2007_e1a","D2007_e1a_6","AMONG",127,0,"HighFreq",2,4716,"Include"
"D2007_e1a","D2007_e1a_6","BETTER",128,1,"HighFreq",1,1424,"Include"
"D2007_e1a","D2007_e1a_6","AGHAST",129,1,"LowFreq",6,1254,"Include"
"D2007_e1a","D2007_e1a_6","CHANGE",130,1,"HighFreq",2,2222,"Include"
"D2007_e1a","D2007_e1a_6","LAVISH",131,0,"LowFreq",5,1194,"Include"
"D2007_e1a","D2007_e1a_6","EXALT",132,1,"LowFreq",4,3277,"Include"
"D2007_e1a","D2007_e1a_6","EXCEL",133,0,"LowFreq",2,1541,"Include"
"D2007_e1a","D2007_e1a_6","CLICK",134,0,"LowFreq",4,3235,"Include"
"D2007_e1a","D2007_e1a_6","SEASON",135,0,"HighFreq",2,2084,"Include"
"D2007_e1a","D2007_e1a_6","SINCE",136,1,"HighFreq",1,1468,"Include"
"D2007_e1a","D2007_e1a_6","RECORD",137,0,"HighFreq",1,900,"Include"
"D2007_e1a","D2007_e1a_6","BLEND",138,0,"LowFreq",1,822,"Include"
"D2007_e1a","D2007_e1a_6","ANOMALY",139,0,"LowFreq",1,712,"Include"
"D2007_e1a","D2007_e1a_6","WEAVE",140,0,"LowFreq",1,1080,"Include"
"D2007_e1a","D2007_e1a_7","CHARGE",1,0,"HighFreq",2,5438,"Include"
"D2007_e1a","D2007_e1a_7","NOTIFY",2,1,"LowFreq",2,3211,"Include"
"D2007_e1a","D2007_e1a_7","TALLY",3,0,"LowFreq",5,3295,"Include"
"D2007_e1a","D2007_e1a_7","ALONE",4,1,"HighFreq",6,3702,"Include"
"D2007_e1a","D2007_e1a_7","CERTIFY",5,0,"LowFreq",4,1754,"Include"
"D2007_e1a","D2007_e1a_7","ANIMATE",6,1,"LowFreq",5,3402,"Include"
"D2007_e1a","D2007_e1a_7","CHANGE",7,1,"HighFreq",3,2087,"Include"
"D2007_e1a","D2007_e1a_7","MELLOW",8,0,"LowFreq",1,2295,"Include"
"D2007_e1a","D2007_e1a_7","NORMAL",9,0,"HighFreq",2,1215,"Include"
"D2007_e1a","D2007_e1a_7","DAILY",10,1,"HighFreq",3,1025,"Include"
"D2007_e1a","D2007_e1a_7","SINGLE",11,0,"HighFreq",3,1390,"Include"
"D2007_e1a","D2007_e1a_7","FIRST",12,0,"HighFreq",3,806,"Include"
"D2007_e1a","D2007_e1a_7","EXCEL",13,0,"LowFreq",5,1704,"Include"
"D2007_e1a","D2007_e1a_7","NUANCE",14,0,"LowFreq",3,1569,"Include"
"D2007_e1a","D2007_e1a_7","UPROAR",15,0,"LowFreq",3,823,"Include"
"D2007_e1a","D2007_e1a_7","FLUENT",16,1,"LowFreq",4,1320,"Include"
"D2007_e1a","D2007_e1a_7","MAJOR",17,0,"HighFreq",3,1229,"Include"
"D2007_e1a","D2007_e1a_7","ABOUT",18,1,"HighFreq",5,1521,"Include"
"D2007_e1a","D2007_e1a_7","FLURRY",19,0,"LowFreq",3,1481,"Include"
"D2007_e1a","D2007_e1a_7","ACCLAIM",20,0,"LowFreq",6,1352,"Include"
"D2007_e1a","D2007_e1a_7","BORROW",21,0,"LowFreq",4,1708,"Include"
"D2007_e1a","D2007_e1a_7","FINAL",22,1,"HighFreq",4,1062,"Include"
"D2007_e1a","D2007_e1a_7","GRATE",23,1,"LowFreq",5,1082,"Include"
"D2007_e1a","D2007_e1a_7","PACIFY",24,1,"LowFreq",3,1490,"Include"
"D2007_e1a","D2007_e1a_7","REBUFF",25,1,"LowFreq",5,1114,"Include"
"D2007_e1a","D2007_e1a_7","SEASON",26,0,"HighFreq",3,4204,"Include"
"D2007_e1a","D2007_e1a_7","DECREE",27,1,"LowFreq",6,1213,"Include"
"D2007_e1a","D2007_e1a_7","NEVER",28,1,"HighFreq",3,1335,"Include"
"D2007_e1a","D2007_e1a_7","VOLUME",29,0,"HighFreq",4,1402,"Include"
"D2007_e1a","D2007_e1a_7","BECAME",30,1,"HighFreq",6,1264,"Include"
"D2007_e1a","D2007_e1a_7","RECENT",31,1,"HighFreq",6,996,"Include"
"D2007_e1a","D2007_e1a_7","UNDER",32,1,"HighFreq",3,1424,"Include"
"D2007_e1a","D2007_e1a_7","EXALT",33,1,"LowFreq",6,1257,"Include"
"D2007_e1a","D2007_e1a_7","GARNER",34,1,"LowFreq",6,975,"Include"
"D2007_e1a","D2007_e1a_7","WEAVE",35,0,"LowFreq",3,1139,"Include"
"D2007_e1a","D2007_e1a_7","HECTIC",36,0,"LowFreq",5,1340,"Include"
"D2007_e1a","D2007_e1a_7","FOUND",37,1,"HighFreq",5,905,"Include"
"D2007_e1a","D2007_e1a_7","THROUGH",38,0,"HighFreq",3,951,"Include"
"D2007_e1a","D2007_e1a_7","LATHER",39,1,"LowFreq",4,2261,"Include"
"D2007_e1a","D2007_e1a_7","SHABBY",40,1,"LowFreq",4,1055,"Include"
"D2007_e1a","D2007_e1a_7","UNISON",41,1,"LowFreq",2,2652,"Include"
"D2007_e1a","D2007_e1a_7","UNLESS",42,0,"HighFreq",2,1243,"Include"
"D2007_e1a","D2007_e1a_7","RECORD",43,0,"HighFreq",2,1044,"Include"
"D2007_e1a","D2007_e1a_7","LIKELY",44,0,"HighFreq",1,1153,"Include"
"D2007_e1a","D2007_e1a_7","FATHOM",45,0,"LowFreq",3,3061,"Include"
"D2007_e1a","D2007_e1a_7","MACHINE",46,1,"HighFreq",3,749,"Include"
"D2007_e1a","D2007_e1a_7","ABOVE",47,0,"HighFreq",6,1345,"Include"
"D2007_e1a","D2007_e1a_7","REFINE",48,0,"LowFreq",3,1753,"Include"
"D2007_e1a","D2007_e1a_7","DISPEL",49,1,"LowFreq",5,1166,"Include"
"D2007_e1a","D2007_e1a_7","BLATANT",50,1,"LowFreq",4,1519,"Include"
"D2007_e1a","D2007_e1a_7","THOUGHT",51,1,"HighFreq",3,1062,"Include"
"D2007_e1a","D2007_e1a_7","BOGUS",52,1,"LowFreq",4,913,"Include"
"D2007_e1a","D2007_e1a_7","PLACE",53,1,"HighFreq",3,1384,"Include"
"D2007_e1a","D2007_e1a_7","LAVISH",54,0,"LowFreq",4,912,"Include"
"D2007_e1a","D2007_e1a_7","EXPECT",55,0,"HighFreq",5,1674,"Include"
"D2007_e1a","D2007_e1a_7","ENJOIN",56,0,"LowFreq",3,1488,"Include"
"D2007_e1a","D2007_e1a_7","PRESENT",57,1,"HighFreq",6,1137,"Include"
"D2007_e1a","D2007_e1a_7","BECAUSE",58,0,"HighFreq",3,1924,"Include"
"D2007_e1a","D2007_e1a_7","AGHAST",59,1,"LowFreq",6,1243,"Include"
"D2007_e1a","D2007_e1a_7","SINCE",60,1,"HighFreq",3,1583,"Include"
"D2007_e1a","D2007_e1a_7","INDEED",61,1,"HighFreq",3,987,"Include"
"D2007_e1a","D2007_e1a_7","DESPISE",62,0,"LowFreq",6,1161,"Include"
"D2007_e1a","D2007_e1a_7","MEDLEY",63,1,"LowFreq",4,1363,"Include"
"D2007_e1a","D2007_e1a_7","SCENE",64,1,"HighFreq",4,1533,"Include"
"D2007_e1a","D2007_e1a_7","SCOOP",65,0,"LowFreq",3,1074,"Include"
"D2007_e1a","D2007_e1a_7","HEAVE",66,1,"LowFreq",5,1163,"Include"
"D2007_e1a","D2007_e1a_7","BLEND",67,0,"LowFreq",3,1068,"Include"
"D2007_e1a","D2007_e1a_7","WAGER",68,1,"LowFreq",6,1106,"Include"
"D2007_e1a","D2007_e1a_7","FARCE",69,1,"LowFreq",3,1025,"Include"
"D2007_e1a","D2007_e1a_7","PLANE",70,0,"HighFreq",3,905,"Include"
"D2007_e1a","D2007_e1a_7","DEDUCE",71,0,"LowFreq",5,1078,"Include"
"D2007_e1a","D2007_e1a_7","GROUND",72,1,"HighFreq",3,1048,"Include"
"D2007_e1a","D2007_e1a_7","PROGRAM",73,1,"HighFreq",5,1227,"Include"
"D2007_e1a","D2007_e1a_7","PRESS",74,0,"HighFreq",3,1449,"Include"
"D2007_e1a","D2007_e1a_7","BETTER",75,1,"HighFreq",3,1754,"Include"
"D2007_e1a","D2007_e1a_7","HISTORY",76,0,"HighFreq",3,624,"Include"
"D2007_e1a","D2007_e1a_7","INFORM",77,1,"LowFreq",5,787,"Include"
"D2007_e1a","D2007_e1a_7","CANCEL",78,0,"LowFreq",3,1398,"Include"
"D2007_e1a","D2007_e1a_7","SUPPLY",79,0,"HighFreq",2,2621,"Include"
"D2007_e1a","D2007_e1a_7","COMPANY",80,0,"HighFreq",2,1468,"Include"
"D2007_e1a","D2007_e1a_7","LARGE",81,1,"HighFreq",2,915,"Include"
"D2007_e1a","D2007_e1a_7","TACTIC",82,1,"LowFreq",4,3413,"Include"
"D2007_e1a","D2007_e1a_7","IMPAIR",83,0,"LowFreq",2,1580,"Include"
"D2007_e1a","D2007_e1a_7","RANGE",84,1,"HighFreq",2,822,"Include"
"D2007_e1a","D2007_e1a_7","MOMENT",85,1,"HighFreq",4,2032,"Include"
"D2007_e1a","D2007_e1a_7","LUCID",86,0,"LowFreq",3,1621,"Include"
"D2007_e1a","D2007_e1a_7","LATER",87,0,"HighFreq",3,1372,"Include"
"D2007_e1a","D2007_e1a_7","CLICK",88,0,"LowFreq",3,977,"Include"
"D2007_e1a","D2007_e1a_7","DEFENSE",89,0,"HighFreq",4,1235,"Include"
"D2007_e1a","D2007_e1a_7","PROVIDE",90,0,"HighFreq",3,1112,"Include"
"D2007_e1a","D2007_e1a_7","FROLIC",91,0,"LowFreq",1,1816,"Include"
"D2007_e1a","D2007_e1a_7","ANOMALY",92,0,"LowFreq",1,1116,"Include"
"D2007_e1a","D2007_e1a_7","CENSURE",93,1,"LowFreq",4,1067,"Include"
"D2007_e1a","D2007_e1a_7","MORAL",94,0,"HighFreq",3,3167,"Include"
"D2007_e1a","D2007_e1a_7","CONVICT",95,0,"LowFreq",5,2660,"Include"
"D2007_e1a","D2007_e1a_7","DRIVE",96,0,"HighFreq",2,1243,"Include"
"D2007_e1a","D2007_e1a_7","CONTEND",97,1,"LowFreq",5,1489,"Include"
"D2007_e1a","D2007_e1a_7","INSIPID",98,0,"LowFreq",1,1678,"Include"
"D2007_e1a","D2007_e1a_7","COMMON",99,1,"HighFreq",3,2510,"Include"
"D2007_e1a","D2007_e1a_7","PARTY",100,0,"HighFreq",3,947,"Include"
"D2007_e1a","D2007_e1a_7","AMONG",101,0,"HighFreq",5,1215,"Include"
"D2007_e1a","D2007_e1a_7","LOFTY",102,1,"LowFreq",3,1088,"Include"
"D2007_e1a","D2007_e1a_7","GAUCHE",103,0,"LowFreq",1,1058,"Include"
"D2007_e1a","D2007_e1a_7","BETWEEN",104,0,"HighFreq",4,2082,"Include"
"D2007_e1a","D2007_e1a_7","SERVICE",105,1,"HighFreq",4,1157,"Include"
"D2007_e1a","D2007_e1a_7","VOICE",106,1,"HighFreq",6,1533,"Include"
"D2007_e1a","D2007_e1a_7","ILLICIT",107,1,"LowFreq",1,1084,"Include"
"D2007_e1a","D2007_e1a_7","MAYBE",108,1,"HighFreq",3,2621,"Include"
"D2007_e1a","D2007_e1a_7","GREED",109,0,"LowFreq",3,927,"Include"
"D2007_e1a","D2007_e1a_7","SHREWD",110,0,"LowFreq",1,1073,"Include"
"D2007_e1a","D2007_e1a_7","EXCEPT",111,1,"HighFreq",5,2042,"Include"
"D2007_e1a","D2007_e1a_7","ABOUND",112,1,"LowFreq",1,1090,"Include"
"D2007_e1a","D2007_e1a_7","ENDOW",113,1,"LowFreq",4,1557,"Include"
"D2007_e1a","D2007_e1a_7","FRENZY",114,1,"LowFreq",4,1070,"Include"
"D2007_e1a","D2007_e1a_7","PONDER",115,0,"LowFreq",1,886,"Include"
"D2007_e1a","D2007_e1a_7","AGILITY",116,0,"LowFreq",4,1675,"Include"
"D2007_e1a","D2007_e1a_7","BANTER",117,0,"LowFreq",4,1069,"Include"
"D2007_e1a","D2007_e1a_7","RATHER",118,0,"HighFreq",1,2357,"Include"
"D2007_e1a","D2007_e1a_7","PADDLE",119,0,"LowFreq",6,2121,"Include"
"D2007_e1a","D2007_e1a_7","FURTHER",120,0,"HighFreq",6,999,"Include"
"D2007_e1a","D2007_e1a_7","DISTORT",121,0,"LowFreq",6,1153,"Include"
"D2007_e1a","D2007_e1a_7","MEANING",122,0,"HighFreq",4,3901,"Include"
"D2007_e1a","D2007_e1a_7","OUTSIDE",123,1,"HighFreq",3,1335,"Include"
"D2007_e1a","D2007_e1a_7","POACH",124,1,"LowFreq",4,957,"Include"
"D2007_e1a","D2007_e1a_7","SEVERAL",125,0,"HighFreq",3,979,"Include"
"D2007_e1a","D2007_e1a_7","SCANT",126,1,"LowFreq",3,699,"Include"
"D2007_e1a","D2007_e1a_7","SPECIAL",127,1,"HighFreq",2,1810,"Include"
"D2007_e1a","D2007_e1a_7","EITHER",128,0,"HighFreq",2,712,"Include"
"D2007_e1a","D2007_e1a_7","DOUBT",129,1,"HighFreq",3,2841,"Include"
"D2007_e1a","D2007_e1a_7","LIGHT",130,1,"HighFreq",3,819,"Include"
"D2007_e1a","D2007_e1a_7","SUBJECT",131,1,"HighFreq",3,1090,"Include"
"D2007_e1a","D2007_e1a_7","INSIDE",132,0,"HighFreq",2,1826,"Include"
"D2007_e1a","D2007_e1a_7","CLENCH",133,1,"LowFreq",1,857,"Include"
"D2007_e1a","D2007_e1a_7","DEPICT",134,1,"LowFreq",5,1174,"Include"
"D2007_e1a","D2007_e1a_7","GROUP",135,0,"HighFreq",5,1230,"Include"
"D2007_e1a","D2007_e1a_7","BANISH",136,1,"LowFreq",4,1902,"Include"
"D2007_e1a","D2007_e1a_7","CALLOUS",137,1,"LowFreq",4,1582,"Include"
"D2007_e1a","D2007_e1a_7","HIGHER",138,1,"HighFreq",1,1209,"Include"
"D2007_e1a","D2007_e1a_7","SPRING",139,0,"HighFreq",1,1047,"Include"
"D2007_e1a","D2007_e1a_7","EFFORT",140,1,"HighFreq",1,1084,"Include"
"D2007_e1a","D2007_e1a_7","PROBLEM",1,0,"HighFreq",3,5016,"Include"
"D2007_e1a","D2007_e1a_7","MANDATE",2,1,"LowFreq",2,1310,"Include"
"D2007_e1a","D2007_e1a_7","CASCADE",3,0,"LowFreq",2,2851,"Include"
"D2007_e1a","D2007_e1a_7","TRADE",4,1,"HighFreq",2,839,"Include"
"D2007_e1a","D2007_e1a_7","FORCE",5,1,"HighFreq",6,1541,"Include"
"D2007_e1a","D2007_e1a_7","CORNER",6,1,"HighFreq",3,1177,"Include"
"D2007_e1a","D2007_e1a_7","WHETHER",7,0,"HighFreq",5,1216,"Include"
"D2007_e1a","D2007_e1a_7","PERIOD",8,1,"HighFreq",6,1098,"Include"
"D2007_e1a","D2007_e1a_7","EASILY",9,0,"HighFreq",2,1617,"Include"
"D2007_e1a","D2007_e1a_7","GALLOP",10,0,"LowFreq",5,1209,"Include"
"D2007_e1a","D2007_e1a_7","POINT",11,1,"HighFreq",5,962,"Include"
"D2007_e1a","D2007_e1a_7","LOCAL",12,0,"HighFreq",3,1274,"Include"
"D2007_e1a","D2007_e1a_7","TRIAL",13,0,"HighFreq",5,858,"Include"
"D2007_e1a","D2007_e1a_7","ISSUE",14,0,"HighFreq",5,1150,"Include"
"D2007_e1a","D2007_e1a_7","PERSON",15,0,"HighFreq",3,774,"Include"
"D2007_e1a","D2007_e1a_7","ENTIRE",16,1,"HighFreq",5,1808,"Include"
"D2007_e1a","D2007_e1a_7","ADAMANT",17,1,"LowFreq",6,3242,"Include"
"D2007_e1a","D2007_e1a_7","BLOAT",18,0,"LowFreq",4,1108,"Include"
"D2007_e1a","D2007_e1a_7","SEDATE",19,1,"LowFreq",6,1329,"Include"
"D2007_e1a","D2007_e1a_7","DESPITE",20,0,"HighFreq",3,1640,"Include"
"D2007_e1a","D2007_e1a_7","INCLUDE",21,0,"HighFreq",4,1529,"Include"
"D2007_e1a","D2007_e1a_7","RADIANT",22,1,"LowFreq",4,1182,"Include"
"D2007_e1a","D2007_e1a_7","OFTEN",23,1,"HighFreq",5,1521,"Include"
"D2007_e1a","D2007_e1a_7","JARGON",24,1,"LowFreq",5,1375,"Include"
"D2007_e1a","D2007_e1a_7","GENERAL",25,1,"HighFreq",4,1083,"Include"
"D2007_e1a","D2007_e1a_7","POLICY",26,0,"HighFreq",4,1989,"Include"
"D2007_e1a","D2007_e1a_7","GALLANT",27,1,"LowFreq",6,1093,"Include"
"D2007_e1a","D2007_e1a_7","SLANT",28,1,"LowFreq",5,1077,"Include"
"D2007_e1a","D2007_e1a_7","NIBBLE",29,0,"LowFreq",1,1370,"Include"
"D2007_e1a","D2007_e1a_7","FLAIL",30,1,"LowFreq",2,1747,"Include"
"D2007_e1a","D2007_e1a_7","COMPILE",31,1,"LowFreq",5,1330,"Include"
"D2007_e1a","D2007_e1a_7","DESIGN",32,1,"HighFreq",5,1920,"Include"
"D2007_e1a","D2007_e1a_7","CONCISE",33,0,"LowFreq",1,1172,"Include"
"D2007_e1a","D2007_e1a_7","THING",34,0,"HighFreq",1,1412,"Include"
"D2007_e1a","D2007_e1a_7","NEARLY",35,0,"HighFreq",2,1989,"Include"
"D2007_e1a","D2007_e1a_7","INDUCE",36,0,"LowFreq",5,1142,"Include"
"D2007_e1a","D2007_e1a_7","TEMPT",37,1,"LowFreq",3,2329,"Include"
"D2007_e1a","D2007_e1a_7","STOCK",38,0,"HighFreq",3,1728,"Include"
"D2007_e1a","D2007_e1a_7","GIVEN",39,0,"HighFreq",5,1152,"Include"
"D2007_e1a","D2007_e1a_7","CERTAIN",40,0,"HighFreq",5,2519,"Include"
"D2007_e1a","D2007_e1a_7","VANISH",41,1,"LowFreq",6,906,"Include"
"D2007_e1a","D2007_e1a_7","TERSE",42,0,"LowFreq",1,994,"Include"
"D2007_e1a","D2007_e1a_7","ARDUOUS",43,1,"LowFreq",5,1686,"Include"
"D2007_e1a","D2007_e1a_7","SURFACE",44,1,"HighFreq",1,1257,"Include"
"D2007_e1a","D2007_e1a_7","CLASS",45,1,"HighFreq",2,1386,"Include"
"D2007_e1a","D2007_e1a_7","READY",46,1,"HighFreq",4,1476,"Include"
"D2007_e1a","D2007_e1a_7","QUALITY",47,0,"HighFreq",3,1433,"Include"
"D2007_e1a","D2007_e1a_7","MIGHT",48,0,"HighFreq",4,4335,"Include"
"D2007_e1a","D2007_e1a_7","SOUND",49,1,"HighFreq",4,1587,"Include"
"D2007_e1a","D2007_e1a_7","BROIL",50,0,"LowFreq",5,1195,"Include"
"D2007_e1a","D2007_e1a_7","PARCEL",51,1,"LowFreq",5,1318,"Include"
"D2007_e1a","D2007_e1a_7","FORAY",52,0,"LowFreq",1,1384,"Include"
"D2007_e1a","D2007_e1a_7","BESTOW",53,0,"LowFreq",2,1366,"Include"
"D2007_e1a","D2007_e1a_7","PURPOSE",54,1,"HighFreq",3,3163,"Include"
"D2007_e1a","D2007_e1a_7","DAPPER",55,0,"LowFreq",1,3070,"Include"
"D2007_e1a","D2007_e1a_7","BELIEVE",56,0,"HighFreq",4,1744,"Include"
"D2007_e1a","D2007_e1a_7","MIDDLE",57,1,"HighFreq",2,5011,"Include"
"D2007_e1a","D2007_e1a_7","DIFFUSE",58,1,"LowFreq",4,1763,"Include"
"D2007_e1a","D2007_e1a_7","DEGRADE",59,0,"LowFreq",4,808,"Include"
"D2007_e1a","D2007_e1a_7","WITHIN",60,1,"HighFreq",4,1138,"Include"
"D2007_e1a","D2007_e1a_7","SIMILAR",61,0,"HighFreq",4,945,"Include"
"D2007_e1a","D2007_e1a_7","FALLOW",62,0,"LowFreq",4,1161,"Include"
"D2007_e1a","D2007_e1a_7","BLISTER",63,1,"LowFreq",5,1044,"Include"
"D2007_e1a","D2007_e1a_7","VARIANT",64,0,"LowFreq",1,1335,"Include"
"D2007_e1a","D2007_e1a_7","REALLY",65,0,"HighFreq",2,2066,"Include"
"D2007_e1a","D2007_e1a_7","HOUND",66,1,"LowFreq",2,1646,"Include"
"D2007_e1a","D2007_e1a_7","MANUAL",67,0,"LowFreq",4,1860,"Include"
"D2007_e1a","D2007_e1a_7","FEDERAL",68,1,"HighFreq",1,1650,"Include"
"D2007_e1a","D2007_e1a_7","ABIDE",69,0,"LowFreq",4,1628,"Include"
"D2007_e1a","D2007_e1a_7","AMIDST",70,0,"LowFreq",4,5716,"Include"
"D2007_e1a","D2007_e1a_7","MARKET",71,0,"HighFreq",2,6679,"Include"
"D2007_e1a","D2007_e1a_7","ASTUTE",72,0,"LowFreq",1,1311,"Include"
"D2007_e1a","D2007_e1a_7","AROUND",73,1,"HighFreq",4,2052,"Include"
"D2007_e1a","D2007_e1a_7","RESPECT",74,1,"HighFreq",4,1485,"Include"
"D2007_e1a","D2007_e1a_7","HEARD",75,0,"HighFreq",3,2464,"Include"
"D2007_e1a","D2007_e1a_7","LENGTH",76,0,"HighFreq",3,714,"Include"
"D2007_e1a","D2007_e1a_7","ROOST",77,0,"LowFreq",3,712,"Include"
"D2007_e1a","D2007_e1a_7","ORDER",78,0,"HighFreq",4,1047,"Include"
"D2007_e1a","D2007_e1a_7","EARLY",79,1,"HighFreq",2,2308,"Include"
"D2007_e1a","D2007_e1a_7","HAMPER",80,0,"LowFreq",6,1186,"Include"
"D2007_e1a","D2007_e1a_7","START",81,1,"HighFreq",3,1383,"Include"
"D2007_e1a","D2007_e1a_7","LENIENT",82,1,"LowFreq",4,1291,"Include"
"D2007_e1a","D2007_e1a_7","OBLIGE",83,1,"LowFreq",3,1900,"Include"
"D2007_e1a","D2007_e1a_7","GLARE",84,1,"LowFreq",3,1011,"Include"
"D2007_e1a","D2007_e1a_7","ATTACK",85,0,"HighFreq",5,4950,"Include"
"D2007_e1a","D2007_e1a_7","RAMPANT",86,0,"LowFreq",5,6022,"Include"
"D2007_e1a","D2007_e1a_7","MARCH",87,1,"HighFreq",2,1350,"Include"
"D2007_e1a","D2007_e1a_7","FACILE",88,1,"LowFreq",6,1383,"Include"
"D2007_e1a","D2007_e1a_7","AMEND",89,1,"LowFreq",4,1025,"Include"
"D2007_e1a","D2007_e1a_7","SECTION",90,1,"HighFreq",3,1461,"Include"
"D2007_e1a","D2007_e1a_7","ABACK",91,1,"LowFreq",4,1025,"Include"
"D2007_e1a","D2007_e1a_7","EMINENT",92,0,"LowFreq",1,897,"Include"
"D2007_e1a","D2007_e1a_7","LEAVE",93,1,"HighFreq",4,1039,"Include"
"D2007_e1a","D2007_e1a_7","ENTAIL",94,1,"LowFreq",4,848,"Include"
"D2007_e1a","D2007_e1a_7","FIELD",95,0,"HighFreq",4,982,"Include"
"D2007_e1a","D2007_e1a_7","HOVER",96,0,"LowFreq",1,1119,"Include"
"D2007_e1a","D2007_e1a_7","CHANT",97,1,"LowFreq",5,1266,"Include"
"D2007_e1a","D2007_e1a_7","JEALOUS",98,0,"LowFreq",4,1413,"Include"
"D2007_e1a","D2007_e1a_7","ROGUE",99,1,"LowFreq",2,953,"Include"
"D2007_e1a","D2007_e1a_7","RESULT",100,0,"HighFreq",4,1004,"Include"
"D2007_e1a","D2007_e1a_7","CHEAT",101,0,"LowFreq",5,1217,"Include"
"D2007_e1a","D2007_e1a_7","ONWARD",102,0,"LowFreq",2,1129,"Include"
"D2007_e1a","D2007_e1a_7","SHOWN",103,1,"HighFreq",3,3478,"Include"
"D2007_e1a","D2007_e1a_7","ADEPT",104,0,"LowFreq",4,1763,"Include"
"D2007_e1a","D2007_e1a_7","SPACE",105,0,"HighFreq",5,1036,"Include"
"D2007_e1a","D2007_e1a_7","INCLINE",106,1,"LowFreq",5,4850,"Include"
"D2007_e1a","D2007_e1a_7","PRIVATE",107,1,"HighFreq",5,1617,"Include"
"D2007_e1a","D2007_e1a_7","BRINK",108,1,"LowFreq",3,4772,"Include"
"D2007_e1a","D2007_e1a_7","AGAIN",109,0,"HighFreq",5,1473,"Include"
"D2007_e1a","D2007_e1a_7","GLIDE",110,0,"LowFreq",1,1001,"Include"
"D2007_e1a","D2007_e1a_7","CAPTIVE",111,1,"LowFreq",4,1588,"Include"
"D2007_e1a","D2007_e1a_7","HARDLY",112,1,"HighFreq",4,766,"Include"
"D2007_e1a","D2007_e1a_7","LIVING",113,1,"HighFreq",4,851,"Include"
"D2007_e1a","D2007_e1a_7","ISLAND",114,1,"HighFreq",6,1375,"Include"
"D2007_e1a","D2007_e1a_7","HAGGARD",115,1,"LowFreq",6,808,"Include"
"D2007_e1a","D2007_e1a_7","IMAGE",116,1,"HighFreq",6,731,"Include"
"D2007_e1a","D2007_e1a_7","FLANK",117,0,"LowFreq",1,1325,"Include"
"D2007_e1a","D2007_e1a_7","CENTER",118,1,"HighFreq",3,2852,"Include"
"D2007_e1a","D2007_e1a_7","FORMER",119,0,"HighFreq",4,1798,"Include"
"D2007_e1a","D2007_e1a_7","SENSE",120,0,"HighFreq",2,4195,"Include"
"D2007_e1a","D2007_e1a_7","NATURAL",121,1,"HighFreq",2,1044,"Include"
"D2007_e1a","D2007_e1a_7","NEMESIS",122,1,"LowFreq",3,4493,"Include"
"D2007_e1a","D2007_e1a_7","EVERY",123,0,"HighFreq",4,1108,"Include"
"D2007_e1a","D2007_e1a_7","FODDER",124,1,"LowFreq",1,1120,"Include"
"D2007_e1a","D2007_e1a_7","AFTER",125,1,"HighFreq",6,1941,"Include"
"D2007_e1a","D2007_e1a_7","CLEAR",126,0,"HighFreq",4,1696,"Include"
"D2007_e1a","D2007_e1a_7","SLEEK",127,0,"LowFreq",5,851,"Include"
"D2007_e1a","D2007_e1a_7","ERRATIC",128,0,"LowFreq",5,1128,"Include"
"D2007_e1a","D2007_e1a_7","BEREFT",129,1,"LowFreq",4,1366,"Include"
"D2007_e1a","D2007_e1a_7","VALUE",130,1,"HighFreq",6,1249,"Include"
"D2007_e1a","D2007_e1a_7","VARIOUS",131,0,"HighFreq",1,1602,"Include"
"D2007_e1a","D2007_e1a_7","PARODY",132,0,"LowFreq",1,1638,"Include"
"D2007_e1a","D2007_e1a_7","BEHIND",133,1,"HighFreq",4,1139,"Include"
"D2007_e1a","D2007_e1a_7","DIGEST",134,0,"LowFreq",4,1333,"Include"
"D2007_e1a","D2007_e1a_7","DAINTY",135,1,"LowFreq",2,1023,"Include"
"D2007_e1a","D2007_e1a_7","EMBARK",136,1,"LowFreq",6,1037,"Include"
"D2007_e1a","D2007_e1a_7","LIABLE",137,0,"LowFreq",2,4325,"Include"
"D2007_e1a","D2007_e1a_7","COURSE",138,0,"HighFreq",2,743,"Include"
"D2007_e1a","D2007_e1a_7","DEFUNCT",139,1,"LowFreq",4,1249,"Include"
"D2007_e1a","D2007_e1a_7","SENILE",140,0,"LowFreq",2,1692,"Include"
"D2007_e1a","D2007_e1a_8","GLIDE",1,0,"LowFreq",1,2976,"Include"
"D2007_e1a","D2007_e1a_8","GALLANT",2,1,"LowFreq",5,2890,"Include"
"D2007_e1a","D2007_e1a_8","NEMESIS",3,1,"LowFreq",6,2005,"Include"
"D2007_e1a","D2007_e1a_8","SHOWN",4,1,"HighFreq",3,2877,"Include"
"D2007_e1a","D2007_e1a_8","QUALITY",5,0,"HighFreq",3,1310,"Include"
"D2007_e1a","D2007_e1a_8","ISSUE",6,0,"HighFreq",3,829,"Include"
"D2007_e1a","D2007_e1a_8","BELIEVE",7,0,"HighFreq",3,1713,"Include"
"D2007_e1a","D2007_e1a_8","PARODY",8,0,"LowFreq",1,1889,"Include"
"D2007_e1a","D2007_e1a_8","GENERAL",9,1,"HighFreq",4,2548,"Include"
"D2007_e1a","D2007_e1a_8","CERTAIN",10,0,"HighFreq",5,1333,"Include"
"D2007_e1a","D2007_e1a_8","DEGRADE",11,0,"LowFreq",3,2694,"Include"
"D2007_e1a","D2007_e1a_8","CLASS",12,1,"HighFreq",6,1705,"Include"
"D2007_e1a","D2007_e1a_8","VALUE",13,1,"HighFreq",1,1747,"Include"
"D2007_e1a","D2007_e1a_8","RADIANT",14,1,"LowFreq",6,1809,"Include"
"D2007_e1a","D2007_e1a_8","BEHIND",15,1,"HighFreq",3,2813,"Include"
"D2007_e1a","D2007_e1a_8","BEREFT",16,1,"LowFreq",4,2502,"Include"
"D2007_e1a","D2007_e1a_8","HARDLY",17,1,"HighFreq",3,1499,"Include"
"D2007_e1a","D2007_e1a_8","FORMER",18,0,"HighFreq",3,984,"Include"
"D2007_e1a","D2007_e1a_8","ISLAND",19,1,"HighFreq",6,1139,"Include"
"D2007_e1a","D2007_e1a_8","MARKET",20,0,"HighFreq",3,3192,"Include"
"D2007_e1a","D2007_e1a_8","RAMPANT",21,0,"LowFreq",3,2042,"Include"
"D2007_e1a","D2007_e1a_8","INDUCE",22,0,"LowFreq",3,991,"Include"
"D2007_e1a","D2007_e1a_8","TRADE",23,1,"HighFreq",4,2299,"Include"
"D2007_e1a","D2007_e1a_8","VARIANT",24,0,"LowFreq",5,1106,"Include"
"D2007_e1a","D2007_e1a_8","DIGEST",25,0,"LowFreq",1,1792,"Include"
"D2007_e1a","D2007_e1a_8","GIVEN",26,0,"HighFreq",3,1437,"Include"
"D2007_e1a","D2007_e1a_8","STOCK",27,0,"HighFreq",2,2061,"Include"
"D2007_e1a","D2007_e1a_8","PRIVATE",28,1,"HighFreq",2,1049,"Include"
"D2007_e1a","D2007_e1a_8","CHANT",29,1,"LowFreq",3,2551,"Include"
"D2007_e1a","D2007_e1a_8","PERIOD",30,1,"HighFreq",3,1909,"Include"
"D2007_e1a","D2007_e1a_8","EMINENT",31,0,"LowFreq",4,2607,"Include"
"D2007_e1a","D2007_e1a_8","RESULT",32,0,"HighFreq",4,1138,"Include"
"D2007_e1a","D2007_e1a_8","FACILE",33,1,"LowFreq",6,1227,"Include"
"D2007_e1a","D2007_e1a_8","PROBLEM",34,0,"HighFreq",3,3575,"Include"
"D2007_e1a","D2007_e1a_8","ATTACK",35,0,"HighFreq",3,1075,"Include"
"D2007_e1a","D2007_e1a_8","LENIENT",36,1,"LowFreq",6,1139,"Include"
"D2007_e1a","D2007_e1a_8","ABIDE",37,0,"LowFreq",5,2356,"Include"
"D2007_e1a","D2007_e1a_8","DESPITE",38,0,"HighFreq",3,2055,"Include"
"D2007_e1a","D2007_e1a_8","HAMPER",39,0,"LowFreq",3,2513,"Include"
"D2007_e1a","D2007_e1a_8","SPACE",40,0,"HighFreq",4,1801,"Include"
"D2007_e1a","D2007_e1a_8","PURPOSE",41,1,"HighFreq",4,1144,"Include"
"D2007_e1a","D2007_e1a_8","CENTER",42,1,"HighFreq",6,2198,"Include"
"D2007_e1a","D2007_e1a_8","SLEEK",43,0,"LowFreq",2,2349,"Include"
"D2007_e1a","D2007_e1a_8","AFTER",44,1,"HighFreq",4,1795,"Include"
"D2007_e1a","D2007_e1a_8","EASILY",45,0,"HighFreq",3,3675,"Include"
"D2007_e1a","D2007_e1a_8","HEARD",46,0,"HighFreq",3,1283,"Include"
"D2007_e1a","D2007_e1a_8","AMIDST",47,0,"LowFreq",1,1373,"Include"
"D2007_e1a","D2007_e1a_8","FEDERAL",48,1,"HighFreq",6,1329,"Include"
"D2007_e1a","D2007_e1a_8","LOCAL",49,0,"HighFreq",5,2802,"Include"
"D2007_e1a","D2007_e1a_8","SIMILAR",50,0,"HighFreq",3,2827,"Include"
"D2007_e1a","D2007_e1a_8","LENGTH",51,0,"HighFreq",1,1701,"Include"
"D2007_e1a","D2007_e1a_8","SLANT",52,1,"LowFreq",6,1305,"Include"
"D2007_e1a","D2007_e1a_8","BESTOW",53,0,"LowFreq",1,1701,"Include"
"D2007_e1a","D2007_e1a_8","COMPILE",54,1,"LowFreq",2,4570,"Include"
"D2007_e1a","D2007_e1a_8","OBLIGE",55,1,"LowFreq",5,1410,"Include"
"D2007_e1a","D2007_e1a_8","GLARE",56,1,"LowFreq",4,2901,"Include"
"D2007_e1a","D2007_e1a_8","ARDUOUS",57,1,"LowFreq",2,2066,"Include"
"D2007_e1a","D2007_e1a_8","NEARLY",58,0,"HighFreq",1,2104,"Include"
"D2007_e1a","D2007_e1a_8","SEDATE",59,1,"LowFreq",6,2538,"Include"
"D2007_e1a","D2007_e1a_8","POINT",60,1,"HighFreq",4,3979,"Include"
"D2007_e1a","D2007_e1a_8","JEALOUS",61,0,"LowFreq",2,2059,"Include"
"D2007_e1a","D2007_e1a_8","DESIGN",62,1,"HighFreq",4,1789,"Include"
"D2007_e1a","D2007_e1a_8","LEAVE",63,1,"HighFreq",3,4357,"Include"
"D2007_e1a","D2007_e1a_8","READY",64,1,"HighFreq",3,947,"Include"
"D2007_e1a","D2007_e1a_8","ADAMANT",65,1,"LowFreq",5,1628,"Include"
"D2007_e1a","D2007_e1a_8","START",66,1,"HighFreq",2,2627,"Include"
"D2007_e1a","D2007_e1a_8","INCLUDE",67,0,"HighFreq",2,1104,"Include"
"D2007_e1a","D2007_e1a_8","RESPECT",68,1,"HighFreq",2,1672,"Include"
"D2007_e1a","D2007_e1a_8","BROIL",69,0,"LowFreq",1,1095,"Include"
"D2007_e1a","D2007_e1a_8","MIGHT",70,0,"HighFreq",3,5649,"Include"
"D2007_e1a","D2007_e1a_8","CORNER",71,1,"HighFreq",4,1438,"Include"
"D2007_e1a","D2007_e1a_8","FLAIL",72,1,"LowFreq",5,1500,"Include"
"D2007_e1a","D2007_e1a_8","EVERY",73,0,"HighFreq",3,2038,"Include"
"D2007_e1a","D2007_e1a_8","HAGGARD",74,1,"LowFreq",6,1222,"Include"
"D2007_e1a","D2007_e1a_8","MARCH",75,1,"HighFreq",6,1016,"Include"
"D2007_e1a","D2007_e1a_8","OFTEN",76,1,"HighFreq",3,2085,"Include"
"D2007_e1a","D2007_e1a_8","LIVING",77,1,"HighFreq",3,949,"Include"
"D2007_e1a","D2007_e1a_8","SURFACE",78,1,"HighFreq",3,995,"Include"
"D2007_e1a","D2007_e1a_8","ENTAIL",79,1,"LowFreq",4,1478,"Include"
