"exp","id","trial","condition1","isold","rating","RT_ON","RT_CONF","excluding"
"DR2012_e1b","DR2012_e1b_1",1,"Words",0,4,"7316","6380","Include"
"DR2012_e1b","DR2012_e1b_1",2,"Words",0,2,"3764","4006","Include"
"DR2012_e1b","DR2012_e1b_1",3,"Words",0,2,"4707","1699","Include"
"DR2012_e1b","DR2012_e1b_1",4,"Words",0,2,"3832","1329","Include"
"DR2012_e1b","DR2012_e1b_1",5,"Words",0,6,"3741","2068","Include"
"DR2012_e1b","DR2012_e1b_1",6,"Words",0,1,"2179","1634","Include"
"DR2012_e1b","DR2012_e1b_1",7,"Words",1,3,"2764","2238","Include"
"DR2012_e1b","DR2012_e1b_1",8,"Words",1,3,"2824","6303","Include"
"DR2012_e1b","DR2012_e1b_1",9,"Words",0,6,"5007","1497","Include"
"DR2012_e1b","DR2012_e1b_1",10,"Words",1,6,"2734","868","Include"
"DR2012_e1b","DR2012_e1b_1",11,"Words",0,6,"1236","903","Include"
"DR2012_e1b","DR2012_e1b_1",12,"Words",0,1,"1637","856","Include"
"DR2012_e1b","DR2012_e1b_1",13,"Words",0,1,"1374","1459","Include"
"DR2012_e1b","DR2012_e1b_1",14,"Words",0,1,"2367","933","Include"
"DR2012_e1b","DR2012_e1b_1",15,"Words",0,5,"3667","1193","Include"
"DR2012_e1b","DR2012_e1b_1",16,"Words",0,1,"1843","545","Include"
"DR2012_e1b","DR2012_e1b_1",17,"Words",1,1,"1310","678","Include"
"DR2012_e1b","DR2012_e1b_1",18,"Words",1,6,"2297","502","Include"
"DR2012_e1b","DR2012_e1b_1",19,"Words",0,6,"1846","352","Include"
"DR2012_e1b","DR2012_e1b_1",20,"Words",1,6,"1000","627","Include"
"DR2012_e1b","DR2012_e1b_1",21,"Words",1,6,"906","450","Include"
"DR2012_e1b","DR2012_e1b_1",22,"Words",1,6,"975","334","Include"
"DR2012_e1b","DR2012_e1b_1",23,"Words",0,4,"1867","745","Include"
"DR2012_e1b","DR2012_e1b_1",24,"Words",1,6,"1106","962","Include"
"DR2012_e1b","DR2012_e1b_1",25,"Words",1,6,"1140","329","Include"
"DR2012_e1b","DR2012_e1b_1",26,"Words",0,3,"1943","958","Include"
"DR2012_e1b","DR2012_e1b_1",27,"Words",1,6,"1097","622","Include"
"DR2012_e1b","DR2012_e1b_1",28,"Words",1,6,"950","446","Include"
"DR2012_e1b","DR2012_e1b_1",29,"Words",1,6,"841","331","Include"
"DR2012_e1b","DR2012_e1b_1",30,"Words",1,2,"1544","474","Include"
"DR2012_e1b","DR2012_e1b_1",31,"Words",0,1,"1603","765","Include"
"DR2012_e1b","DR2012_e1b_1",32,"Words",1,6,"931","525","Include"
"DR2012_e1b","DR2012_e1b_1",33,"Words",0,6,"1112","391","Include"
"DR2012_e1b","DR2012_e1b_1",34,"Words",0,6,"1687","324","Include"
"DR2012_e1b","DR2012_e1b_1",35,"Words",0,2,"1423","510","Include"
"DR2012_e1b","DR2012_e1b_1",36,"Words",1,6,"975","477","Include"
"DR2012_e1b","DR2012_e1b_1",37,"Words",0,2,"1566","393","Include"
"DR2012_e1b","DR2012_e1b_1",38,"Words",1,5,"3321","571","Include"
"DR2012_e1b","DR2012_e1b_1",39,"Words",1,6,"824","600","Include"
"DR2012_e1b","DR2012_e1b_1",40,"Words",0,6,"1915","349","Include"
"DR2012_e1b","DR2012_e1b_1",41,"Words",0,1,"1463","525","Include"
"DR2012_e1b","DR2012_e1b_1",42,"Words",1,6,"1776","269","Include"
"DR2012_e1b","DR2012_e1b_1",43,"Words",1,2,"1828","1060","Include"
"DR2012_e1b","DR2012_e1b_1",44,"Words",1,6,"964","423","Include"
"DR2012_e1b","DR2012_e1b_1",45,"Words",1,6,"1271","399","Include"
"DR2012_e1b","DR2012_e1b_1",46,"Words",1,6,"922","324","Include"
"DR2012_e1b","DR2012_e1b_1",47,"Words",1,6,"799","329","Include"
"DR2012_e1b","DR2012_e1b_1",48,"Words",1,6,"782","278","Include"
"DR2012_e1b","DR2012_e1b_1",49,"Words",1,6,"809","277","Include"
"DR2012_e1b","DR2012_e1b_1",50,"Words",0,2,"1273","425","Include"
"DR2012_e1b","DR2012_e1b_1",51,"Words",0,5,"9095","643","Include"
"DR2012_e1b","DR2012_e1b_1",52,"Words",0,3,"1343","1055","Include"
"DR2012_e1b","DR2012_e1b_1",53,"Words",1,6,"1380","321","Include"
"DR2012_e1b","DR2012_e1b_1",54,"Words",0,1,"1211","1698","Include"
"DR2012_e1b","DR2012_e1b_1",55,"Words",0,4,"1094","811","Include"
"DR2012_e1b","DR2012_e1b_1",56,"Words",1,2,"1281","859","Include"
"DR2012_e1b","DR2012_e1b_1",57,"Words",1,5,"3976","277","Include"
"DR2012_e1b","DR2012_e1b_1",58,"Words",0,3,"1400","498","Include"
"DR2012_e1b","DR2012_e1b_1",59,"Words",1,1,"1287","653","Include"
"DR2012_e1b","DR2012_e1b_1",60,"Words",0,1,"1346","579","Include"
"DR2012_e1b","DR2012_e1b_1",61,"Words",1,6,"1303","424","Include"
"DR2012_e1b","DR2012_e1b_1",62,"Words",1,5,"1121","282","Include"
"DR2012_e1b","DR2012_e1b_1",63,"Words",1,4,"988","572","Include"
"DR2012_e1b","DR2012_e1b_1",64,"Words",0,3,"1345","489","Include"
"DR2012_e1b","DR2012_e1b_1",65,"Words",0,4,"1126","641","Include"
"DR2012_e1b","DR2012_e1b_1",66,"Words",0,3,"1299","922","Include"
"DR2012_e1b","DR2012_e1b_1",67,"Words",0,2,"1619","384","Include"
"DR2012_e1b","DR2012_e1b_1",68,"Words",0,2,"1328","381","Include"
"DR2012_e1b","DR2012_e1b_1",69,"Words",0,5,"1421","389","Include"
"DR2012_e1b","DR2012_e1b_1",70,"Words",0,2,"1421","445","Include"
"DR2012_e1b","DR2012_e1b_1",71,"Words",1,5,"968","1060","Include"
"DR2012_e1b","DR2012_e1b_1",72,"Words",1,6,"1381","277","Include"
"DR2012_e1b","DR2012_e1b_1",73,"Words",1,4,"1510","286","Include"
"DR2012_e1b","DR2012_e1b_1",74,"Words",0,2,"1561","908","Include"
"DR2012_e1b","DR2012_e1b_1",75,"Words",1,3,"1364","367","Include"
"DR2012_e1b","DR2012_e1b_1",76,"Words",1,6,"1393","393","Include"
"DR2012_e1b","DR2012_e1b_1",77,"Words",1,6,"945","264","Include"
"DR2012_e1b","DR2012_e1b_1",78,"Words",0,2,"1096","624","Include"
"DR2012_e1b","DR2012_e1b_1",79,"Words",1,6,"901","430","Include"
"DR2012_e1b","DR2012_e1b_1",80,"Words",0,3,"1718","800","Include"
"DR2012_e1b","DR2012_e1b_1",81,"Words",1,5,"1844","895","Include"
"DR2012_e1b","DR2012_e1b_1",82,"Words",1,6,"2612","377","Include"
"DR2012_e1b","DR2012_e1b_1",83,"Words",1,6,"822","295","Include"
"DR2012_e1b","DR2012_e1b_1",84,"Words",1,6,"692","264","Include"
"DR2012_e1b","DR2012_e1b_1",85,"Words",1,6,"728","270","Include"
"DR2012_e1b","DR2012_e1b_1",86,"Words",1,6,"711","246","Include"
"DR2012_e1b","DR2012_e1b_1",87,"Words",1,1,"1505","1400","Include"
"DR2012_e1b","DR2012_e1b_1",88,"Words",1,6,"898","328","Include"
"DR2012_e1b","DR2012_e1b_1",89,"Words",1,6,"1101","285","Include"
"DR2012_e1b","DR2012_e1b_1",90,"Words",1,6,"2368","229","Include"
"DR2012_e1b","DR2012_e1b_1",91,"Words",1,5,"1389","629","Include"
"DR2012_e1b","DR2012_e1b_1",92,"Words",1,6,"861","268","Include"
"DR2012_e1b","DR2012_e1b_1",93,"Words",1,2,"2532","866","Include"
"DR2012_e1b","DR2012_e1b_1",94,"Words",1,6,"817","286","Include"
"DR2012_e1b","DR2012_e1b_1",95,"Words",1,6,"796","215","Include"
"DR2012_e1b","DR2012_e1b_1",96,"Words",1,6,"732","289","Include"
"DR2012_e1b","DR2012_e1b_1",97,"Words",1,4,"1879","793","Include"
"DR2012_e1b","DR2012_e1b_1",98,"Words",1,5,"4464","296","Include"
"DR2012_e1b","DR2012_e1b_1",99,"Words",1,6,"877","288","Include"
"DR2012_e1b","DR2012_e1b_1",100,"Words",1,6,"725","231","Include"
"DR2012_e1b","DR2012_e1b_1",101,"Words",1,6,"695","229","Include"
"DR2012_e1b","DR2012_e1b_1",102,"Words",1,6,"509","189","Include"
"DR2012_e1b","DR2012_e1b_1",103,"Words",1,6,"607","191","Include"
"DR2012_e1b","DR2012_e1b_1",104,"Words",1,2,"1480","450","Include"
"DR2012_e1b","DR2012_e1b_1",105,"Words",1,2,"2023","407","Include"
"DR2012_e1b","DR2012_e1b_1",106,"Words",1,6,"1212","218","Include"
"DR2012_e1b","DR2012_e1b_1",107,"Words",1,6,"639","178","Include"
"DR2012_e1b","DR2012_e1b_1",108,"Words",1,6,"559","153","Include"
"DR2012_e1b","DR2012_e1b_1",109,"Words",1,6,"674","131","Include"
"DR2012_e1b","DR2012_e1b_1",110,"Words",1,1,"1394","977","Include"
"DR2012_e1b","DR2012_e1b_1",111,"Words",1,6,"1318","89","Include"
"DR2012_e1b","DR2012_e1b_1",112,"Words",1,3,"1021","1893","Include"
"DR2012_e1b","DR2012_e1b_1",113,"Words",1,6,"3243","213","Include"
"DR2012_e1b","DR2012_e1b_1",114,"Words",1,6,"1219","112","Include"
"DR2012_e1b","DR2012_e1b_1",115,"Words",1,1,"1440","322","Include"
"DR2012_e1b","DR2012_e1b_1",116,"Words",1,6,"894","290","Include"
"DR2012_e1b","DR2012_e1b_1",117,"Words",1,6,"927","277","Include"
"DR2012_e1b","DR2012_e1b_1",118,"Words",1,3,"1487","596","Include"
"DR2012_e1b","DR2012_e1b_1",119,"Words",1,6,"1326","289","Include"
"DR2012_e1b","DR2012_e1b_1",120,"Words",1,6,"647","193","Include"
"DR2012_e1b","DR2012_e1b_1",121,"Words",0,4,"753","1467","Include"
"DR2012_e1b","DR2012_e1b_1",122,"Words",0,2,"1147","850","Include"
"DR2012_e1b","DR2012_e1b_1",123,"Words",0,3,"2219","973","Include"
"DR2012_e1b","DR2012_e1b_1",124,"Words",0,3,"1843","389","Include"
"DR2012_e1b","DR2012_e1b_1",125,"Words",0,3,"1468","316","Include"
"DR2012_e1b","DR2012_e1b_1",126,"Words",0,1,"1215","861","Include"
"DR2012_e1b","DR2012_e1b_1",127,"Words",0,1,"1101","397","Include"
"DR2012_e1b","DR2012_e1b_1",128,"Words",0,1,"1198","346","Include"
"DR2012_e1b","DR2012_e1b_1",129,"Words",0,6,"1225","417","Include"
"DR2012_e1b","DR2012_e1b_1",130,"Words",0,2,"1230","551","Include"
"DR2012_e1b","DR2012_e1b_1",131,"Words",0,3,"1391","527","Include"
"DR2012_e1b","DR2012_e1b_1",132,"Words",0,1,"2395","438","Include"
"DR2012_e1b","DR2012_e1b_1",133,"Words",0,1,"1087","366","Include"
"DR2012_e1b","DR2012_e1b_1",134,"Words",0,5,"2145","568","Include"
"DR2012_e1b","DR2012_e1b_1",135,"Words",0,2,"2085","464","Include"
"DR2012_e1b","DR2012_e1b_1",136,"Words",0,2,"2512","428","Include"
"DR2012_e1b","DR2012_e1b_1",137,"Words",0,4,"4055","468","Include"
"DR2012_e1b","DR2012_e1b_1",138,"Words",0,3,"1875","710","Include"
"DR2012_e1b","DR2012_e1b_1",139,"Words",0,6,"2070","350","Include"
"DR2012_e1b","DR2012_e1b_1",140,"Words",0,2,"1406","674","Include"
"DR2012_e1b","DR2012_e1b_1",141,"Words",0,2,"1091","752","Include"
"DR2012_e1b","DR2012_e1b_1",142,"Words",0,2,"1287","717","Include"
"DR2012_e1b","DR2012_e1b_1",143,"Words",0,2,"1128","341","Include"
"DR2012_e1b","DR2012_e1b_1",144,"Words",0,2,"909","333","Include"
"DR2012_e1b","DR2012_e1b_1",145,"Words",0,3,"1570","327","Include"
"DR2012_e1b","DR2012_e1b_1",146,"Words",0,1,"1797","479","Include"
"DR2012_e1b","DR2012_e1b_1",147,"Words",0,6,"970","230","Include"
"DR2012_e1b","DR2012_e1b_1",148,"Words",0,1,"1566","545","Include"
"DR2012_e1b","DR2012_e1b_1",149,"Words",0,1,"1050","511","Include"
"DR2012_e1b","DR2012_e1b_1",150,"Words",0,2,"1581","653","Include"
"DR2012_e1b","DR2012_e1b_1",151,"Words",0,3,"1380","760","Include"
"DR2012_e1b","DR2012_e1b_1",152,"Words",0,3,"1315","470","Include"
"DR2012_e1b","DR2012_e1b_1",153,"Words",0,2,"1342","461","Include"
"DR2012_e1b","DR2012_e1b_1",154,"Words",0,3,"1110","373","Include"
"DR2012_e1b","DR2012_e1b_1",155,"Words",0,6,"1149","372","Include"
"DR2012_e1b","DR2012_e1b_1",156,"Words",0,3,"1167","388","Include"
"DR2012_e1b","DR2012_e1b_1",157,"Words",0,1,"3517","479","Include"
"DR2012_e1b","DR2012_e1b_1",158,"Words",0,5,"2665","467","Include"
"DR2012_e1b","DR2012_e1b_1",159,"Words",0,1,"1137","414","Include"
"DR2012_e1b","DR2012_e1b_1",160,"Words",0,1,"1330","377","Include"
"DR2012_e1b","DR2012_e1b_1",161,"Words",0,1,"1580","568","Include"
"DR2012_e1b","DR2012_e1b_1",162,"Words",0,1,"1038","344","Include"
"DR2012_e1b","DR2012_e1b_1",163,"Words",1,6,"928","270","Include"
"DR2012_e1b","DR2012_e1b_1",164,"Words",0,2,"1158","336","Include"
"DR2012_e1b","DR2012_e1b_1",165,"Words",0,3,"1213","522","Include"
"DR2012_e1b","DR2012_e1b_1",166,"Words",0,6,"1421","254","Include"
"DR2012_e1b","DR2012_e1b_1",167,"Words",1,6,"738","225","Include"
"DR2012_e1b","DR2012_e1b_1",168,"Words",0,1,"1144","432","Include"
"DR2012_e1b","DR2012_e1b_1",169,"Words",1,6,"776","277","Include"
"DR2012_e1b","DR2012_e1b_1",170,"Words",1,5,"903","423","Include"
"DR2012_e1b","DR2012_e1b_1",171,"Words",1,6,"808","276","Include"
"DR2012_e1b","DR2012_e1b_1",172,"Words",0,4,"1464","543","Include"
"DR2012_e1b","DR2012_e1b_1",173,"Words",1,6,"855","275","Include"
"DR2012_e1b","DR2012_e1b_1",174,"Words",0,6,"2206","249","Include"
"DR2012_e1b","DR2012_e1b_1",175,"Words",0,1,"989","598","Include"
"DR2012_e1b","DR2012_e1b_1",176,"Words",1,5,"3984","217","Include"
"DR2012_e1b","DR2012_e1b_1",177,"Words",0,1,"974","386","Include"
"DR2012_e1b","DR2012_e1b_1",178,"Words",0,1,"1291","495","Include"
"DR2012_e1b","DR2012_e1b_1",179,"Words",1,5,"5325","295","Include"
"DR2012_e1b","DR2012_e1b_1",180,"Words",1,6,"796","351","Include"
"DR2012_e1b","DR2012_e1b_1",181,"Words",1,4,"1024","447","Include"
"DR2012_e1b","DR2012_e1b_1",182,"Words",1,6,"1835","542","Include"
"DR2012_e1b","DR2012_e1b_1",183,"Words",1,5,"766","289","Include"
"DR2012_e1b","DR2012_e1b_1",184,"Words",0,1,"1078","313","Include"
"DR2012_e1b","DR2012_e1b_1",185,"Words",0,6,"2441","306","Include"
"DR2012_e1b","DR2012_e1b_1",186,"Words",1,6,"763","285","Include"
"DR2012_e1b","DR2012_e1b_1",187,"Words",1,6,"697","254","Include"
"DR2012_e1b","DR2012_e1b_1",188,"Words",1,6,"579","175","Include"
"DR2012_e1b","DR2012_e1b_1",189,"Words",0,6,"645","176","Include"
"DR2012_e1b","DR2012_e1b_1",190,"Words",0,2,"1293","419","Include"
"DR2012_e1b","DR2012_e1b_1",191,"Words",1,6,"808","276","Include"
"DR2012_e1b","DR2012_e1b_1",192,"Words",0,1,"2294","572","Include"
"DR2012_e1b","DR2012_e1b_1",193,"Words",1,6,"929","295","Include"
"DR2012_e1b","DR2012_e1b_1",194,"Words",0,3,"1333","425","Include"
"DR2012_e1b","DR2012_e1b_1",195,"Words",0,1,"4145","320","Include"
"DR2012_e1b","DR2012_e1b_1",196,"Words",0,1,"2947","1661","Include"
"DR2012_e1b","DR2012_e1b_1",197,"Words",0,5,"2833","388","Include"
"DR2012_e1b","DR2012_e1b_1",198,"Words",0,6,"1605","474","Include"
"DR2012_e1b","DR2012_e1b_1",199,"Words",0,2,"1146","668","Include"
"DR2012_e1b","DR2012_e1b_1",200,"Words",0,3,"1050","1799","Include"
"DR2012_e1b","DR2012_e1b_1",201,"Words",0,4,"1329","310","Include"
"DR2012_e1b","DR2012_e1b_1",202,"Words",0,4,"1431","3773","Include"
"DR2012_e1b","DR2012_e1b_1",203,"Words",1,5,"4275","638","Include"
"DR2012_e1b","DR2012_e1b_1",204,"Words",1,1,"1297","574","Include"
"DR2012_e1b","DR2012_e1b_1",205,"Words",1,6,"978","639","Include"
"DR2012_e1b","DR2012_e1b_1",206,"Words",1,6,"875","405","Include"
"DR2012_e1b","DR2012_e1b_1",207,"Words",1,6,"728","429","Include"
"DR2012_e1b","DR2012_e1b_1",208,"Words",1,3,"1629","868","Include"
"DR2012_e1b","DR2012_e1b_1",209,"Words",1,6,"788","421","Include"
"DR2012_e1b","DR2012_e1b_1",210,"Words",1,6,"851","345","Include"
"DR2012_e1b","DR2012_e1b_1",211,"Words",1,6,"786","345","Include"
"DR2012_e1b","DR2012_e1b_1",212,"Words",0,1,"1208","734","Include"
"DR2012_e1b","DR2012_e1b_1",213,"Words",1,6,"892","312","Include"
"DR2012_e1b","DR2012_e1b_1",214,"Words",0,5,"2128","710","Include"
"DR2012_e1b","DR2012_e1b_1",215,"Words",0,2,"988","542","Include"
"DR2012_e1b","DR2012_e1b_1",216,"Words",1,6,"1046","303","Include"
"DR2012_e1b","DR2012_e1b_1",217,"Words",1,6,"2143","343","Include"
"DR2012_e1b","DR2012_e1b_1",218,"Words",0,1,"903","624","Include"
"DR2012_e1b","DR2012_e1b_1",219,"Words",1,6,"912","384","Include"
"DR2012_e1b","DR2012_e1b_1",220,"Words",1,2,"1647","785","Include"
"DR2012_e1b","DR2012_e1b_1",221,"Words",1,6,"1225","329","Include"
"DR2012_e1b","DR2012_e1b_1",222,"Words",1,1,"1206","473","Include"
"DR2012_e1b","DR2012_e1b_1",223,"Words",0,1,"1393","498","Include"
"DR2012_e1b","DR2012_e1b_1",224,"Words",1,6,"1102","365","Include"
"DR2012_e1b","DR2012_e1b_1",225,"Words",0,1,"1161","387","Include"
"DR2012_e1b","DR2012_e1b_1",226,"Words",1,1,"1235","421","Include"
"DR2012_e1b","DR2012_e1b_1",227,"Words",0,2,"1685","704","Include"
"DR2012_e1b","DR2012_e1b_1",228,"Words",0,3,"1256","396","Include"
"DR2012_e1b","DR2012_e1b_1",229,"Words",0,6,"999","707","Include"
"DR2012_e1b","DR2012_e1b_1",230,"Words",0,3,"1186","721","Include"
"DR2012_e1b","DR2012_e1b_1",231,"Words",1,2,"2428","380","Include"
"DR2012_e1b","DR2012_e1b_1",232,"Words",0,1,"1225","474","Include"
"DR2012_e1b","DR2012_e1b_1",233,"Words",0,3,"1164","423","Include"
"DR2012_e1b","DR2012_e1b_1",234,"Words",0,5,"1447","497","Include"
"DR2012_e1b","DR2012_e1b_1",235,"Words",1,3,"1294","723","Include"
"DR2012_e1b","DR2012_e1b_1",236,"Words",0,6,"1030","414","Include"
"DR2012_e1b","DR2012_e1b_1",237,"Words",0,2,"1139","424","Include"
"DR2012_e1b","DR2012_e1b_1",238,"Words",1,6,"1288","327","Include"
"DR2012_e1b","DR2012_e1b_1",239,"Words",1,6,"738","239","Include"
"DR2012_e1b","DR2012_e1b_1",240,"Words",1,6,"1883","308","Include"
"DR2012_e1b","DR2012_e1b_1",241,"Words",0,1,"2941","228","Include"
"DR2012_e1b","DR2012_e1b_1",242,"Words",1,5,"948","389","Include"
"DR2012_e1b","DR2012_e1b_1",243,"Words",1,6,"908","644","Include"
"DR2012_e1b","DR2012_e1b_1",244,"Words",1,1,"895","636","Include"
"DR2012_e1b","DR2012_e1b_1",245,"Words",0,1,"1070","239","Include"
"DR2012_e1b","DR2012_e1b_1",246,"Words",1,1,"1065","289","Include"
"DR2012_e1b","DR2012_e1b_1",247,"Words",1,6,"918","489","Include"
"DR2012_e1b","DR2012_e1b_1",248,"Words",0,1,"1080","201","Include"
"DR2012_e1b","DR2012_e1b_1",249,"Words",1,6,"890","209","Include"
"DR2012_e1b","DR2012_e1b_1",250,"Words",1,6,"782","167","Include"
"DR2012_e1b","DR2012_e1b_1",251,"Words",0,1,"944","153","Include"
"DR2012_e1b","DR2012_e1b_1",252,"Words",1,6,"704","99","Include"
"DR2012_e1b","DR2012_e1b_1",253,"Words",1,6,"877","96","Include"
"DR2012_e1b","DR2012_e1b_1",254,"Words",0,1,"797","111","Include"
"DR2012_e1b","DR2012_e1b_1",255,"Words",0,4,"1207","933","Include"
"DR2012_e1b","DR2012_e1b_1",256,"Words",0,1,"890","711","Include"
"DR2012_e1b","DR2012_e1b_1",257,"Words",0,1,"918","202","Include"
"DR2012_e1b","DR2012_e1b_1",258,"Words",0,1,"701","237","Include"
"DR2012_e1b","DR2012_e1b_1",259,"Words",1,6,"878","409","Include"
"DR2012_e1b","DR2012_e1b_1",260,"Words",1,6,"974","164","Include"
"DR2012_e1b","DR2012_e1b_1",261,"Words",1,1,"1422","407","Include"
"DR2012_e1b","DR2012_e1b_1",262,"Words",1,6,"617","199","Include"
"DR2012_e1b","DR2012_e1b_1",263,"Words",1,6,"833","169","Include"
"DR2012_e1b","DR2012_e1b_1",264,"Words",1,6,"551","174","Include"
"DR2012_e1b","DR2012_e1b_1",265,"Words",1,2,"1995","254","Include"
"DR2012_e1b","DR2012_e1b_1",266,"Words",0,3,"955","1078","Include"
"DR2012_e1b","DR2012_e1b_1",267,"Words",0,2,"3216","549","Include"
"DR2012_e1b","DR2012_e1b_1",268,"Words",0,6,"1108","1893","Include"
"DR2012_e1b","DR2012_e1b_1",269,"Words",1,6,"754","158","Include"
"DR2012_e1b","DR2012_e1b_1",270,"Words",1,6,"640","89","Include"
"DR2012_e1b","DR2012_e1b_1",271,"Words",1,6,"727","52","Include"
"DR2012_e1b","DR2012_e1b_1",272,"Words",0,6,"594","76","Include"
"DR2012_e1b","DR2012_e1b_1",273,"Words",1,1,"1343","479","Include"
"DR2012_e1b","DR2012_e1b_1",274,"Words",1,6,"722","76","Include"
"DR2012_e1b","DR2012_e1b_1",275,"Words",0,1,"790","469","Include"
"DR2012_e1b","DR2012_e1b_1",276,"Words",0,1,"1485","91","Include"
"DR2012_e1b","DR2012_e1b_1",277,"Words",0,1,"1078","464","Include"
"DR2012_e1b","DR2012_e1b_1",278,"Words",0,6,"2623","73","Include"
"DR2012_e1b","DR2012_e1b_1",279,"Words",0,1,"1498","176","Include"
"DR2012_e1b","DR2012_e1b_1",280,"Words",0,6,"1309","104","Include"
"DR2012_e1b","DR2012_e1b_1",281,"Words",1,6,"2925","72","Include"
"DR2012_e1b","DR2012_e1b_1",282,"Words",1,6,"872","87","Include"
"DR2012_e1b","DR2012_e1b_1",283,"Words",1,6,"828","92","Include"
"DR2012_e1b","DR2012_e1b_1",284,"Words",0,1,"1026","98","Include"
"DR2012_e1b","DR2012_e1b_1",285,"Words",1,6,"750","71","Include"
"DR2012_e1b","DR2012_e1b_1",286,"Words",1,1,"1055","78","Include"
"DR2012_e1b","DR2012_e1b_1",287,"Words",0,1,"895","84","Include"
"DR2012_e1b","DR2012_e1b_1",288,"Words",0,6,"886","66","Include"
"DR2012_e1b","DR2012_e1b_1",289,"Words",0,1,"1250","30","Include"
"DR2012_e1b","DR2012_e1b_1",290,"Words",1,6,"709","70","Include"
"DR2012_e1b","DR2012_e1b_1",291,"Words",0,1,"1830","53","Include"
"DR2012_e1b","DR2012_e1b_1",292,"Words",0,1,"603","102","Include"
"DR2012_e1b","DR2012_e1b_1",293,"Words",0,1,"670","94","Include"
"DR2012_e1b","DR2012_e1b_1",294,"Words",1,1,"611","48","Include"
"DR2012_e1b","DR2012_e1b_1",295,"Words",1,6,"893","82","Include"
"DR2012_e1b","DR2012_e1b_1",296,"Words",0,1,"1894","77","Include"
"DR2012_e1b","DR2012_e1b_1",297,"Words",1,1,"717","119","Include"
"DR2012_e1b","DR2012_e1b_1",298,"Words",0,1,"1050","48","Include"
"DR2012_e1b","DR2012_e1b_1",299,"Words",0,1,"845","76","Include"
"DR2012_e1b","DR2012_e1b_1",300,"Words",0,6,"1650","24","Include"
"DR2012_e1b","DR2012_e1b_1",301,"Words",1,6,"951","48","Include"
"DR2012_e1b","DR2012_e1b_1",302,"Words",0,6,"1244","47","Include"
"DR2012_e1b","DR2012_e1b_1",303,"Words",0,1,"941","31","Include"
"DR2012_e1b","DR2012_e1b_1",304,"Words",1,1,"1140","49","Include"
"DR2012_e1b","DR2012_e1b_1",305,"Words",1,1,"1279","90","Include"
"DR2012_e1b","DR2012_e1b_1",306,"Words",1,6,"622","23","Include"
"DR2012_e1b","DR2012_e1b_1",307,"Words",0,6,"958","35","Include"
"DR2012_e1b","DR2012_e1b_1",308,"Words",0,6,"1140","57","Include"
"DR2012_e1b","DR2012_e1b_1",309,"Words",1,6,"902","38","Include"
"DR2012_e1b","DR2012_e1b_1",310,"Words",0,1,"1081","90","Include"
"DR2012_e1b","DR2012_e1b_1",311,"Words",1,1,"1409","73","Include"
"DR2012_e1b","DR2012_e1b_1",312,"Words",1,1,"2501","71","Include"
"DR2012_e1b","DR2012_e1b_1",313,"Words",0,6,"3364","39","Include"
"DR2012_e1b","DR2012_e1b_1",314,"Words",1,6,"907","18","Include"
"DR2012_e1b","DR2012_e1b_1",315,"Words",1,6,"888","45","Include"
"DR2012_e1b","DR2012_e1b_1",316,"Words",1,6,"751","55","Include"
"DR2012_e1b","DR2012_e1b_1",317,"Words",0,1,"869","79","Include"
"DR2012_e1b","DR2012_e1b_1",318,"Words",0,1,"887","106","Include"
"DR2012_e1b","DR2012_e1b_1",319,"Words",0,6,"634","61","Include"
"DR2012_e1b","DR2012_e1b_1",320,"Words",0,6,"837","47","Include"
"DR2012_e1b","DR2012_e1b_1",321,"Words",1,6,"1727","164","Include"
"DR2012_e1b","DR2012_e1b_1",322,"Words",1,1,"733","146","Include"
"DR2012_e1b","DR2012_e1b_1",323,"Words",1,6,"985","49","Include"
"DR2012_e1b","DR2012_e1b_1",324,"Words",0,6,"1007","138","Include"
"DR2012_e1b","DR2012_e1b_1",325,"Words",0,1,"862","81","Include"
"DR2012_e1b","DR2012_e1b_1",326,"Words",0,1,"1017","105","Include"
"DR2012_e1b","DR2012_e1b_1",327,"Words",0,6,"966","65","Include"
"DR2012_e1b","DR2012_e1b_1",328,"Words",1,6,"865","65","Include"
"DR2012_e1b","DR2012_e1b_1",329,"Words",1,1,"761","51","Include"
"DR2012_e1b","DR2012_e1b_1",330,"Words",0,6,"961","52","Include"
"DR2012_e1b","DR2012_e1b_1",331,"Words",1,5,"1865","192","Include"
"DR2012_e1b","DR2012_e1b_1",332,"Words",0,1,"712","91","Include"
"DR2012_e1b","DR2012_e1b_1",333,"Words",0,6,"1077","65","Include"
"DR2012_e1b","DR2012_e1b_1",334,"Words",0,1,"976","48","Include"
"DR2012_e1b","DR2012_e1b_1",335,"Words",0,1,"770","72","Include"
"DR2012_e1b","DR2012_e1b_1",336,"Words",1,6,"872","88","Include"
"DR2012_e1b","DR2012_e1b_1",337,"Words",0,6,"1197","64","Include"
"DR2012_e1b","DR2012_e1b_1",338,"Words",0,1,"1199","68","Include"
"DR2012_e1b","DR2012_e1b_1",339,"Words",0,1,"714","73","Include"
"DR2012_e1b","DR2012_e1b_1",340,"Words",1,6,"733","49","Include"
"DR2012_e1b","DR2012_e1b_1",341,"Words",0,1,"2263","39","Include"
"DR2012_e1b","DR2012_e1b_1",342,"Words",1,6,"865","49","Include"
"DR2012_e1b","DR2012_e1b_1",343,"Words",0,6,"1295","44","Include"
"DR2012_e1b","DR2012_e1b_1",344,"Words",0,6,"903","71","Include"
"DR2012_e1b","DR2012_e1b_1",345,"Words",1,6,"799","49","Include"
"DR2012_e1b","DR2012_e1b_1",346,"Words",0,1,"735","71","Include"
"DR2012_e1b","DR2012_e1b_1",347,"Words",1,1,"2083","37","Include"
"DR2012_e1b","DR2012_e1b_1",348,"Words",1,6,"1481","58","Include"
"DR2012_e1b","DR2012_e1b_1",349,"Words",0,1,"1281","93","Include"
"DR2012_e1b","DR2012_e1b_1",350,"Words",1,6,"616","77","Include"
"DR2012_e1b","DR2012_e1b_1",351,"Words",1,6,"1496","29","Include"
"DR2012_e1b","DR2012_e1b_1",352,"Words",1,6,"693","67","Include"
"DR2012_e1b","DR2012_e1b_1",353,"Words",1,6,"1051","39","Include"
"DR2012_e1b","DR2012_e1b_1",354,"Words",0,1,"827","75","Include"
"DR2012_e1b","DR2012_e1b_1",355,"Words",1,1,"1380","52","Include"
"DR2012_e1b","DR2012_e1b_1",356,"Words",1,1,"1234","112","Include"
"DR2012_e1b","DR2012_e1b_1",357,"Words",0,6,"669","44","Include"
"DR2012_e1b","DR2012_e1b_1",358,"Words",1,6,"2023","54","Include"
"DR2012_e1b","DR2012_e1b_1",359,"Words",1,1,"845","105","Include"
"DR2012_e1b","DR2012_e1b_1",360,"Words",0,6,"687","92","Include"
"DR2012_e1b","DR2012_e1b_1",361,"Words",1,6,"1809","63","Include"
"DR2012_e1b","DR2012_e1b_1",362,"Words",0,6,"830","70","Include"
"DR2012_e1b","DR2012_e1b_1",363,"Words",1,6,"759","72","Include"
"DR2012_e1b","DR2012_e1b_1",364,"Words",0,1,"616","89","Include"
"DR2012_e1b","DR2012_e1b_1",365,"Words",1,6,"1091","65","Include"
"DR2012_e1b","DR2012_e1b_1",366,"Words",1,6,"954","75","Include"
"DR2012_e1b","DR2012_e1b_1",367,"Words",0,1,"901","46","Include"
"DR2012_e1b","DR2012_e1b_1",368,"Words",0,6,"864","32","Include"
"DR2012_e1b","DR2012_e1b_1",369,"Words",0,6,"896","46","Include"
"DR2012_e1b","DR2012_e1b_1",370,"Words",0,1,"608","61","Include"
"DR2012_e1b","DR2012_e1b_1",371,"Words",0,1,"701","61","Include"
"DR2012_e1b","DR2012_e1b_1",372,"Words",0,1,"565","64","Include"
"DR2012_e1b","DR2012_e1b_1",373,"Words",1,6,"762","58","Include"
"DR2012_e1b","DR2012_e1b_1",374,"Words",0,1,"967","66","Include"
"DR2012_e1b","DR2012_e1b_1",375,"Words",1,1,"802","95","Include"
"DR2012_e1b","DR2012_e1b_1",376,"Words",1,1,"1130","23","Include"
"DR2012_e1b","DR2012_e1b_1",377,"Words",1,1,"1415","68","Include"
"DR2012_e1b","DR2012_e1b_1",378,"Words",1,1,"804","88","Include"
"DR2012_e1b","DR2012_e1b_1",379,"Words",0,6,"675","15","Include"
"DR2012_e1b","DR2012_e1b_1",380,"Words",1,1,"1133","57","Include"
"DR2012_e1b","DR2012_e1b_1",381,"Words",1,1,"790","79","Include"
"DR2012_e1b","DR2012_e1b_1",382,"Words",0,6,"1257","70","Include"
"DR2012_e1b","DR2012_e1b_1",383,"Words",1,6,"2173","35","Include"
"DR2012_e1b","DR2012_e1b_1",384,"Words",1,6,"949","22","Include"
"DR2012_e1b","DR2012_e1b_1",385,"Words",1,1,"743","87","Include"
"DR2012_e1b","DR2012_e1b_1",386,"Words",0,1,"609","73","Include"
"DR2012_e1b","DR2012_e1b_1",387,"Words",1,6,"2430","70","Include"
"DR2012_e1b","DR2012_e1b_1",388,"Words",0,1,"909","69","Include"
"DR2012_e1b","DR2012_e1b_1",389,"Words",1,6,"710","86","Include"
"DR2012_e1b","DR2012_e1b_1",390,"Words",1,6,"792","24","Include"
"DR2012_e1b","DR2012_e1b_1",391,"Words",1,1,"896","104","Include"
"DR2012_e1b","DR2012_e1b_1",392,"Words",0,1,"1109","101","Include"
"DR2012_e1b","DR2012_e1b_1",393,"Words",0,1,"757","72","Include"
"DR2012_e1b","DR2012_e1b_1",394,"Words",1,6,"616","60","Include"
"DR2012_e1b","DR2012_e1b_1",395,"Words",0,1,"849","66","Include"
"DR2012_e1b","DR2012_e1b_1",396,"Words",0,1,"1487","1218","Include"
"DR2012_e1b","DR2012_e1b_1",397,"Words",0,1,"1071","39","Include"
"DR2012_e1b","DR2012_e1b_1",398,"Words",0,1,"674","91","Include"
"DR2012_e1b","DR2012_e1b_1",399,"Words",1,6,"766","89","Include"
"DR2012_e1b","DR2012_e1b_1",400,"Words",0,1,"1038","97","Include"
"DR2012_e1b","DR2012_e1b_8",1,"Words",1,5,"4022","2833","Include"
"DR2012_e1b","DR2012_e1b_8",2,"Words",0,1,"2909","1269","Include"
"DR2012_e1b","DR2012_e1b_8",3,"Words",0,2,"1073","948","Include"
"DR2012_e1b","DR2012_e1b_8",4,"Words",1,5,"1453","1873","Include"
"DR2012_e1b","DR2012_e1b_8",5,"Words",1,3,"3444","1847","Include"
"DR2012_e1b","DR2012_e1b_8",6,"Words",1,6,"2123","516","Include"
"DR2012_e1b","DR2012_e1b_8",7,"Words",1,5,"2078","1241","Include"
"DR2012_e1b","DR2012_e1b_8",8,"Words",0,2,"1062","586","Include"
"DR2012_e1b","DR2012_e1b_8",9,"Words",1,2,"1090","453","Include"
"DR2012_e1b","DR2012_e1b_8",10,"Words",0,1,"801","816","Include"
"DR2012_e1b","DR2012_e1b_8",11,"Words",1,6,"1342","839","Include"
"DR2012_e1b","DR2012_e1b_8",12,"Words",1,4,"2756","1539","Include"
"DR2012_e1b","DR2012_e1b_8",13,"Words",1,6,"1156","996","Include"
"DR2012_e1b","DR2012_e1b_8",14,"Words",0,2,"1291","805","Include"
"DR2012_e1b","DR2012_e1b_8",15,"Words",1,2,"1476","455","Include"
"DR2012_e1b","DR2012_e1b_8",16,"Words",0,2,"836","769","Include"
"DR2012_e1b","DR2012_e1b_8",17,"Words",0,1,"865","1182","Include"
"DR2012_e1b","DR2012_e1b_8",18,"Words",1,6,"2189","707","Include"
"DR2012_e1b","DR2012_e1b_8",19,"Words",0,1,"806","708","Include"
"DR2012_e1b","DR2012_e1b_8",20,"Words",1,5,"791","1062","Include"
"DR2012_e1b","DR2012_e1b_8",21,"Words",0,2,"874","1270","Include"
"DR2012_e1b","DR2012_e1b_8",22,"Words",1,1,"1186","433","Include"
"DR2012_e1b","DR2012_e1b_8",23,"Words",1,6,"703","1249","Include"
"DR2012_e1b","DR2012_e1b_8",24,"Words",1,6,"894","745","Include"
"DR2012_e1b","DR2012_e1b_8",25,"Words",1,6,"683","639","Include"
"DR2012_e1b","DR2012_e1b_8",26,"Words",0,2,"964","684","Include"
"DR2012_e1b","DR2012_e1b_8",27,"Words",0,2,"1856","435","Include"
"DR2012_e1b","DR2012_e1b_8",28,"Words",0,2,"1601","367","Include"
"DR2012_e1b","DR2012_e1b_8",29,"Words",0,2,"1567","350","Include"
"DR2012_e1b","DR2012_e1b_8",30,"Words",0,2,"736","561","Include"
"DR2012_e1b","DR2012_e1b_8",31,"Words",0,2,"778","602","Include"
"DR2012_e1b","DR2012_e1b_8",32,"Words",1,3,"3585","2702","Include"
"DR2012_e1b","DR2012_e1b_8",33,"Words",0,2,"958","728","Include"
"DR2012_e1b","DR2012_e1b_8",34,"Words",1,3,"1834","1054","Include"
"DR2012_e1b","DR2012_e1b_8",35,"Words",0,5,"1635","686","Include"
"DR2012_e1b","DR2012_e1b_8",36,"Words",0,2,"947","428","Include"
"DR2012_e1b","DR2012_e1b_8",37,"Words",0,2,"874","390","Include"
"DR2012_e1b","DR2012_e1b_8",38,"Words",0,1,"742","887","Include"
"DR2012_e1b","DR2012_e1b_8",39,"Words",1,5,"3218","383","Include"
"DR2012_e1b","DR2012_e1b_8",40,"Words",0,3,"1886","1121","Include"
"DR2012_e1b","DR2012_e1b_8",41,"Words",1,6,"1059","1255","Include"
"DR2012_e1b","DR2012_e1b_8",42,"Words",1,6,"627","377","Include"
"DR2012_e1b","DR2012_e1b_8",43,"Words",0,4,"1017","1231","Include"
"DR2012_e1b","DR2012_e1b_8",44,"Words",1,5,"1341","342","Include"
"DR2012_e1b","DR2012_e1b_8",45,"Words",1,5,"1703","273","Include"
"DR2012_e1b","DR2012_e1b_8",46,"Words",1,6,"2006","307","Include"
"DR2012_e1b","DR2012_e1b_8",47,"Words",1,2,"1238","467","Include"
"DR2012_e1b","DR2012_e1b_8",48,"Words",0,2,"622","422","Include"
"DR2012_e1b","DR2012_e1b_8",49,"Words",1,2,"724","406","Include"
"DR2012_e1b","DR2012_e1b_8",50,"Words",0,2,"565","446","Include"
"DR2012_e1b","DR2012_e1b_8",51,"Words",0,3,"2043","615","Include"
"DR2012_e1b","DR2012_e1b_8",52,"Words",0,3,"1006","1108","Include"
"DR2012_e1b","DR2012_e1b_8",53,"Words",1,4,"1958","1958","Include"
"DR2012_e1b","DR2012_e1b_8",54,"Words",1,6,"1301","303","Include"
"DR2012_e1b","DR2012_e1b_8",55,"Words",0,2,"2003","432","Include"
"DR2012_e1b","DR2012_e1b_8",56,"Words",0,2,"943","424","Include"
"DR2012_e1b","DR2012_e1b_8",57,"Words",1,6,"902","448","Include"
"DR2012_e1b","DR2012_e1b_8",58,"Words",0,5,"1086","849","Include"
"DR2012_e1b","DR2012_e1b_8",59,"Words",1,6,"1502","384","Include"
"DR2012_e1b","DR2012_e1b_8",60,"Words",1,6,"736","321","Include"
"DR2012_e1b","DR2012_e1b_8",61,"Words",0,2,"2691","357","Include"
"DR2012_e1b","DR2012_e1b_8",62,"Words",0,2,"790","261","Include"
"DR2012_e1b","DR2012_e1b_8",63,"Words",0,2,"954","258","Include"
"DR2012_e1b","DR2012_e1b_8",64,"Words",0,2,"695","315","Include"
"DR2012_e1b","DR2012_e1b_8",65,"Words",1,6,"750","543","Include"
"DR2012_e1b","DR2012_e1b_8",66,"Words",0,2,"2392","390","Include"
"DR2012_e1b","DR2012_e1b_8",67,"Words",1,5,"837","546","Include"
"DR2012_e1b","DR2012_e1b_8",68,"Words",1,3,"2251","334","Include"
"DR2012_e1b","DR2012_e1b_8",69,"Words",1,4,"1953","992","Include"
"DR2012_e1b","DR2012_e1b_8",70,"Words",0,3,"2599","1069","Include"
"DR2012_e1b","DR2012_e1b_8",71,"Words",1,2,"1248","1389","Include"
"DR2012_e1b","DR2012_e1b_8",72,"Words",1,6,"916","1502","Include"
"DR2012_e1b","DR2012_e1b_8",73,"Words",0,1,"1200","463","Include"
"DR2012_e1b","DR2012_e1b_8",74,"Words",1,1,"844","233","Include"
"DR2012_e1b","DR2012_e1b_8",75,"Words",1,2,"766","911","Include"
"DR2012_e1b","DR2012_e1b_8",76,"Words",0,5,"1898","748","Include"
"DR2012_e1b","DR2012_e1b_8",77,"Words",1,6,"813","332","Include"
"DR2012_e1b","DR2012_e1b_8",78,"Words",0,2,"1070","1202","Include"
"DR2012_e1b","DR2012_e1b_8",79,"Words",0,2,"896","235","Include"
"DR2012_e1b","DR2012_e1b_8",80,"Words",0,2,"689","260","Include"
"DR2012_e1b","DR2012_e1b_8",81,"Words",1,2,"7950","681","Include"
"DR2012_e1b","DR2012_e1b_8",82,"Words",1,1,"893","824","Include"
"DR2012_e1b","DR2012_e1b_8",83,"Words",1,6,"1222","323","Include"
"DR2012_e1b","DR2012_e1b_8",84,"Words",1,6,"598","333","Include"
"DR2012_e1b","DR2012_e1b_8",85,"Words",1,6,"654","372","Include"
"DR2012_e1b","DR2012_e1b_8",86,"Words",1,1,"2340","596","Include"
"DR2012_e1b","DR2012_e1b_8",87,"Words",1,6,"939","293","Include"
"DR2012_e1b","DR2012_e1b_8",88,"Words",1,6,"664","349","Include"
"DR2012_e1b","DR2012_e1b_8",89,"Words",1,6,"766","303","Include"
"DR2012_e1b","DR2012_e1b_8",90,"Words",1,6,"1106","292","Include"
"DR2012_e1b","DR2012_e1b_8",91,"Words",1,6,"792","263","Include"
"DR2012_e1b","DR2012_e1b_8",92,"Words",1,6,"716","303","Include"
"DR2012_e1b","DR2012_e1b_8",93,"Words",1,2,"1330","540","Include"
"DR2012_e1b","DR2012_e1b_8",94,"Words",1,6,"917","559","Include"
"DR2012_e1b","DR2012_e1b_8",95,"Words",1,6,"888","243","Include"
"DR2012_e1b","DR2012_e1b_8",96,"Words",1,6,"745","234","Include"
"DR2012_e1b","DR2012_e1b_8",97,"Words",1,6,"608","263","Include"
"DR2012_e1b","DR2012_e1b_8",98,"Words",1,6,"908","214","Include"
"DR2012_e1b","DR2012_e1b_8",99,"Words",1,6,"781","253","Include"
"DR2012_e1b","DR2012_e1b_8",100,"Words",1,6,"658","375","Include"
"DR2012_e1b","DR2012_e1b_8",101,"Words",1,6,"1575","295","Include"
"DR2012_e1b","DR2012_e1b_8",102,"Words",1,6,"650","255","Include"
"DR2012_e1b","DR2012_e1b_8",103,"Words",1,6,"757","293","Include"
"DR2012_e1b","DR2012_e1b_8",104,"Words",1,6,"617","1039","Include"
"DR2012_e1b","DR2012_e1b_8",105,"Words",1,6,"1669","239","Include"
"DR2012_e1b","DR2012_e1b_8",106,"Words",1,2,"1318","1199","Include"
"DR2012_e1b","DR2012_e1b_8",107,"Words",1,2,"1055","227","Include"
"DR2012_e1b","DR2012_e1b_8",108,"Words",1,6,"1210","312","Include"
"DR2012_e1b","DR2012_e1b_8",109,"Words",1,2,"619","257","Include"
"DR2012_e1b","DR2012_e1b_8",110,"Words",1,6,"1142","263","Include"
"DR2012_e1b","DR2012_e1b_8",111,"Words",1,2,"1052","688","Include"
"DR2012_e1b","DR2012_e1b_8",112,"Words",1,6,"756","244","Include"
"DR2012_e1b","DR2012_e1b_8",113,"Words",1,6,"762","203","Include"
"DR2012_e1b","DR2012_e1b_8",114,"Words",1,5,"2130","1033","Include"
"DR2012_e1b","DR2012_e1b_8",115,"Words",1,6,"782","318","Include"
"DR2012_e1b","DR2012_e1b_8",116,"Words",1,6,"705","276","Include"
"DR2012_e1b","DR2012_e1b_8",117,"Words",1,6,"616","302","Include"
"DR2012_e1b","DR2012_e1b_8",118,"Words",1,6,"578","250","Include"
"DR2012_e1b","DR2012_e1b_8",119,"Words",1,2,"927","393","Include"
"DR2012_e1b","DR2012_e1b_8",120,"Words",1,6,"617","606","Include"
"DR2012_e1b","DR2012_e1b_8",121,"Words",0,2,"2086","592","Include"
"DR2012_e1b","DR2012_e1b_8",122,"Words",0,2,"743","313","Include"
"DR2012_e1b","DR2012_e1b_8",123,"Words",0,2,"716","190","Include"
"DR2012_e1b","DR2012_e1b_8",124,"Words",0,6,"694","314","Include"
"DR2012_e1b","DR2012_e1b_8",125,"Words",0,5,"2333","429","Include"
"DR2012_e1b","DR2012_e1b_8",126,"Words",0,1,"859","616","Include"
"DR2012_e1b","DR2012_e1b_8",127,"Words",0,6,"878","250","Include"
"DR2012_e1b","DR2012_e1b_8",128,"Words",0,1,"847","365","Include"
"DR2012_e1b","DR2012_e1b_8",129,"Words",0,1,"941","279","Include"
"DR2012_e1b","DR2012_e1b_8",130,"Words",0,1,"843","632","Include"
"DR2012_e1b","DR2012_e1b_8",131,"Words",0,2,"3278","536","Include"
"DR2012_e1b","DR2012_e1b_8",132,"Words",0,1,"993","312","Include"
"DR2012_e1b","DR2012_e1b_8",133,"Words",0,6,"2091","341","Include"
"DR2012_e1b","DR2012_e1b_8",134,"Words",0,2,"1271","466","Include"
"DR2012_e1b","DR2012_e1b_8",135,"Words",0,1,"814","270","Include"
"DR2012_e1b","DR2012_e1b_8",136,"Words",0,2,"930","268","Include"
"DR2012_e1b","DR2012_e1b_8",137,"Words",0,2,"944","345","Include"
"DR2012_e1b","DR2012_e1b_8",138,"Words",0,2,"715","350","Include"
"DR2012_e1b","DR2012_e1b_8",139,"Words",0,2,"1214","189","Include"
"DR2012_e1b","DR2012_e1b_8",140,"Words",0,5,"1877","344","Include"
"DR2012_e1b","DR2012_e1b_8",141,"Words",0,2,"794","329","Include"
"DR2012_e1b","DR2012_e1b_8",142,"Words",0,5,"1099","270","Include"
"DR2012_e1b","DR2012_e1b_8",143,"Words",0,1,"1059","807","Include"
"DR2012_e1b","DR2012_e1b_8",144,"Words",0,1,"965","1070","Include"
"DR2012_e1b","DR2012_e1b_8",145,"Words",0,1,"2593","487","Include"
"DR2012_e1b","DR2012_e1b_8",146,"Words",0,1,"610","185","Include"
"DR2012_e1b","DR2012_e1b_8",147,"Words",0,2,"1457","245","Include"
"DR2012_e1b","DR2012_e1b_8",148,"Words",0,2,"667","319","Include"
"DR2012_e1b","DR2012_e1b_8",149,"Words",0,2,"1810","151","Include"
"DR2012_e1b","DR2012_e1b_8",150,"Words",0,2,"672","116","Include"
"DR2012_e1b","DR2012_e1b_8",151,"Words",0,6,"1199","286","Include"
"DR2012_e1b","DR2012_e1b_8",152,"Words",0,1,"962","395","Include"
"DR2012_e1b","DR2012_e1b_8",153,"Words",0,5,"1322","1204","Include"
"DR2012_e1b","DR2012_e1b_8",154,"Words",0,1,"914","396","Include"
"DR2012_e1b","DR2012_e1b_8",155,"Words",0,5,"1292","342","Include"
"DR2012_e1b","DR2012_e1b_8",156,"Words",0,1,"1016","494","Include"
"DR2012_e1b","DR2012_e1b_8",157,"Words",0,2,"1818","559","Include"
"DR2012_e1b","DR2012_e1b_8",158,"Words",0,5,"1176","360","Include"
"DR2012_e1b","DR2012_e1b_8",159,"Words",0,2,"1001","687","Include"
"DR2012_e1b","DR2012_e1b_8",160,"Words",0,2,"787","322","Include"
"DR2012_e1b","DR2012_e1b_8",161,"Words",1,5,"5228","293","Include"
"DR2012_e1b","DR2012_e1b_8",162,"Words",1,6,"777","249","Include"
"DR2012_e1b","DR2012_e1b_8",163,"Words",0,2,"927","361","Include"
"DR2012_e1b","DR2012_e1b_8",164,"Words",1,3,"890","5093","Include"
"DR2012_e1b","DR2012_e1b_8",165,"Words",0,2,"2116","909","Include"
"DR2012_e1b","DR2012_e1b_8",166,"Words",1,6,"919","305","Include"
"DR2012_e1b","DR2012_e1b_8",167,"Words",0,5,"1108","342","Include"
"DR2012_e1b","DR2012_e1b_8",168,"Words",1,6,"536","290","Include"
"DR2012_e1b","DR2012_e1b_8",169,"Words",1,6,"581","605","Include"
"DR2012_e1b","DR2012_e1b_8",170,"Words",1,6,"1044","313","Include"
"DR2012_e1b","DR2012_e1b_8",171,"Words",0,2,"812","363","Include"
"DR2012_e1b","DR2012_e1b_8",172,"Words",0,5,"1612","312","Include"
"DR2012_e1b","DR2012_e1b_8",173,"Words",0,1,"715","446","Include"
"DR2012_e1b","DR2012_e1b_8",174,"Words",0,1,"764","252","Include"
"DR2012_e1b","DR2012_e1b_8",175,"Words",0,1,"721","435","Include"
"DR2012_e1b","DR2012_e1b_8",176,"Words",1,1,"641","726","Include"
"DR2012_e1b","DR2012_e1b_8",177,"Words",1,2,"2744","199","Include"
"DR2012_e1b","DR2012_e1b_8",178,"Words",0,1,"910","186","Include"
"DR2012_e1b","DR2012_e1b_8",179,"Words",0,5,"1186","432","Include"
"DR2012_e1b","DR2012_e1b_8",180,"Words",1,6,"910","329","Include"
"DR2012_e1b","DR2012_e1b_8",181,"Words",1,6,"539","213","Include"
"DR2012_e1b","DR2012_e1b_8",182,"Words",1,6,"508","231","Include"
"DR2012_e1b","DR2012_e1b_8",183,"Words",0,2,"845","394","Include"
"DR2012_e1b","DR2012_e1b_8",184,"Words",0,2,"890","165","Include"
"DR2012_e1b","DR2012_e1b_8",185,"Words",0,2,"862","299","Include"
"DR2012_e1b","DR2012_e1b_8",186,"Words",1,5,"1566","478","Include"
"DR2012_e1b","DR2012_e1b_8",187,"Words",1,5,"971","338","Include"
"DR2012_e1b","DR2012_e1b_8",188,"Words",1,6,"724","326","Include"
"DR2012_e1b","DR2012_e1b_8",189,"Words",1,6,"600","255","Include"
"DR2012_e1b","DR2012_e1b_8",190,"Words",1,5,"1285","271","Include"
"DR2012_e1b","DR2012_e1b_8",191,"Words",1,2,"852","448","Include"
"DR2012_e1b","DR2012_e1b_8",192,"Words",1,1,"1742","310","Include"
"DR2012_e1b","DR2012_e1b_8",193,"Words",1,3,"681","2221","Include"
"DR2012_e1b","DR2012_e1b_8",194,"Words",0,5,"4226","244","Include"
"DR2012_e1b","DR2012_e1b_8",195,"Words",0,1,"826","376","Include"
"DR2012_e1b","DR2012_e1b_8",196,"Words",0,2,"776","728","Include"
"DR2012_e1b","DR2012_e1b_8",197,"Words",1,2,"1114","332","Include"
"DR2012_e1b","DR2012_e1b_8",198,"Words",0,5,"910","345","Include"
"DR2012_e1b","DR2012_e1b_8",199,"Words",1,6,"795","330","Include"
"DR2012_e1b","DR2012_e1b_8",200,"Words",0,2,"908","327","Include"
"DR2012_e1b","DR2012_e1b_8",201,"Words",0,2,"937","466","Include"
"DR2012_e1b","DR2012_e1b_8",202,"Words",1,2,"1134","256","Include"
"DR2012_e1b","DR2012_e1b_8",203,"Words",1,6,"997","396","Include"
"DR2012_e1b","DR2012_e1b_8",204,"Words",1,6,"748","237","Include"
"DR2012_e1b","DR2012_e1b_8",205,"Words",1,6,"771","243","Include"
"DR2012_e1b","DR2012_e1b_8",206,"Words",0,1,"776","424","Include"
"DR2012_e1b","DR2012_e1b_8",207,"Words",1,6,"615","237","Include"
"DR2012_e1b","DR2012_e1b_8",208,"Words",0,1,"1043","344","Include"
"DR2012_e1b","DR2012_e1b_8",209,"Words",0,2,"1674","325","Include"
"DR2012_e1b","DR2012_e1b_8",210,"Words",0,2,"919","257","Include"
"DR2012_e1b","DR2012_e1b_8",211,"Words",1,5,"2102","207","Include"
"DR2012_e1b","DR2012_e1b_8",212,"Words",0,5,"1847","315","Include"
"DR2012_e1b","DR2012_e1b_8",213,"Words",0,2,"718","272","Include"
"DR2012_e1b","DR2012_e1b_8",214,"Words",0,2,"821","290","Include"
"DR2012_e1b","DR2012_e1b_8",215,"Words",0,2,"934","303","Include"
"DR2012_e1b","DR2012_e1b_8",216,"Words",0,2,"1587","129","Include"
"DR2012_e1b","DR2012_e1b_8",217,"Words",0,2,"780","204","Include"
"DR2012_e1b","DR2012_e1b_8",218,"Words",0,2,"771","227","Include"
"DR2012_e1b","DR2012_e1b_8",219,"Words",0,5,"1321","243","Include"
"DR2012_e1b","DR2012_e1b_8",220,"Words",0,2,"808","183","Include"
"DR2012_e1b","DR2012_e1b_8",221,"Words",0,5,"719","369","Include"
"DR2012_e1b","DR2012_e1b_8",222,"Words",1,4,"2578","648","Include"
"DR2012_e1b","DR2012_e1b_8",223,"Words",1,6,"3244","375","Include"
"DR2012_e1b","DR2012_e1b_8",224,"Words",1,5,"1095","298","Include"
"DR2012_e1b","DR2012_e1b_8",225,"Words",1,6,"638","355","Include"
"DR2012_e1b","DR2012_e1b_8",226,"Words",1,6,"868","240","Include"
"DR2012_e1b","DR2012_e1b_8",227,"Words",1,2,"934","174","Include"
"DR2012_e1b","DR2012_e1b_8",228,"Words",1,2,"840","197","Include"
"DR2012_e1b","DR2012_e1b_8",229,"Words",0,2,"717","174","Include"
"DR2012_e1b","DR2012_e1b_8",230,"Words",0,5,"2280","187","Include"
"DR2012_e1b","DR2012_e1b_8",231,"Words",0,5,"3970","655","Include"
"DR2012_e1b","DR2012_e1b_8",232,"Words",0,4,"1557","468","Include"
"DR2012_e1b","DR2012_e1b_8",233,"Words",1,5,"977","408","Include"
"DR2012_e1b","DR2012_e1b_8",234,"Words",1,5,"791","183","Include"
"DR2012_e1b","DR2012_e1b_8",235,"Words",1,5,"718","305","Include"
"DR2012_e1b","DR2012_e1b_8",236,"Words",0,2,"1044","249","Include"
"DR2012_e1b","DR2012_e1b_8",237,"Words",1,3,"846","1628","Include"
"DR2012_e1b","DR2012_e1b_8",238,"Words",0,5,"3465","1835","Include"
"DR2012_e1b","DR2012_e1b_8",239,"Words",1,6,"735","272","Include"
"DR2012_e1b","DR2012_e1b_8",240,"Words",0,2,"885","272","Include"
"DR2012_e1b","DR2012_e1b_8",241,"Words",0,1,"1555","626","Include"
"DR2012_e1b","DR2012_e1b_8",242,"Words",0,5,"3272","194","Include"
"DR2012_e1b","DR2012_e1b_8",243,"Words",0,5,"1834","223","Include"
"DR2012_e1b","DR2012_e1b_8",244,"Words",1,6,"709","264","Include"
"DR2012_e1b","DR2012_e1b_8",245,"Words",1,2,"1709","374","Include"
"DR2012_e1b","DR2012_e1b_8",246,"Words",1,6,"551","224","Include"
"DR2012_e1b","DR2012_e1b_8",247,"Words",1,6,"1030","380","Include"
"DR2012_e1b","DR2012_e1b_8",248,"Words",0,1,"732","414","Include"
"DR2012_e1b","DR2012_e1b_8",249,"Words",1,5,"1181","364","Include"
"DR2012_e1b","DR2012_e1b_8",250,"Words",0,4,"1213","1371","Include"
"DR2012_e1b","DR2012_e1b_8",251,"Words",0,5,"1155","195","Include"
"DR2012_e1b","DR2012_e1b_8",252,"Words",1,6,"699","254","Include"
"DR2012_e1b","DR2012_e1b_8",253,"Words",0,6,"739","180","Include"
"DR2012_e1b","DR2012_e1b_8",254,"Words",0,2,"909","519","Include"
"DR2012_e1b","DR2012_e1b_8",255,"Words",0,2,"658","310","Include"
"DR2012_e1b","DR2012_e1b_8",256,"Words",0,2,"841","166","Include"
"DR2012_e1b","DR2012_e1b_8",257,"Words",1,5,"1006","278","Include"
"DR2012_e1b","DR2012_e1b_8",258,"Words",0,2,"634","384","Include"
"DR2012_e1b","DR2012_e1b_8",259,"Words",0,5,"1103","226","Include"
"DR2012_e1b","DR2012_e1b_8",260,"Words",1,5,"1128","266","Include"
"DR2012_e1b","DR2012_e1b_8",261,"Words",0,2,"1870","162","Include"
"DR2012_e1b","DR2012_e1b_8",262,"Words",1,2,"1035","223","Include"
"DR2012_e1b","DR2012_e1b_8",263,"Words",0,2,"759","167","Include"
"DR2012_e1b","DR2012_e1b_8",264,"Words",1,6,"1248","637","Include"
"DR2012_e1b","DR2012_e1b_8",265,"Words",1,2,"1218","367","Include"
"DR2012_e1b","DR2012_e1b_8",266,"Words",0,6,"592","264","Include"
"DR2012_e1b","DR2012_e1b_8",267,"Words",0,2,"685","240","Include"
"DR2012_e1b","DR2012_e1b_8",268,"Words",0,2,"1766","142","Include"
"DR2012_e1b","DR2012_e1b_8",269,"Words",1,2,"791","183","Include"
"DR2012_e1b","DR2012_e1b_8",270,"Words",1,6,"719","241","Include"
"DR2012_e1b","DR2012_e1b_8",271,"Words",0,2,"2631","555","Include"
"DR2012_e1b","DR2012_e1b_8",272,"Words",0,5,"1540","276","Include"
"DR2012_e1b","DR2012_e1b_8",273,"Words",0,2,"3833","140","Include"
"DR2012_e1b","DR2012_e1b_8",274,"Words",0,3,"2102","367","Include"
"DR2012_e1b","DR2012_e1b_8",275,"Words",1,5,"1904","545","Include"
"DR2012_e1b","DR2012_e1b_8",276,"Words",1,5,"731","333","Include"
"DR2012_e1b","DR2012_e1b_8",277,"Words",1,5,"1231","252","Include"
"DR2012_e1b","DR2012_e1b_8",278,"Words",0,2,"1170","305","Include"
"DR2012_e1b","DR2012_e1b_8",279,"Words",0,6,"628","602","Include"
"DR2012_e1b","DR2012_e1b_8",280,"Words",1,5,"1216","335","Include"
"DR2012_e1b","DR2012_e1b_8",281,"Words",0,5,"881","283","Include"
"DR2012_e1b","DR2012_e1b_8",282,"Words",1,6,"703","226","Include"
"DR2012_e1b","DR2012_e1b_8",283,"Words",1,6,"584","240","Include"
"DR2012_e1b","DR2012_e1b_8",284,"Words",1,6,"789","309","Include"
"DR2012_e1b","DR2012_e1b_8",285,"Words",1,6,"696","235","Include"
"DR2012_e1b","DR2012_e1b_8",286,"Words",0,5,"1345","249","Include"
"DR2012_e1b","DR2012_e1b_8",287,"Words",0,2,"1918","448","Include"
"DR2012_e1b","DR2012_e1b_8",288,"Words",1,5,"1886","144","Include"
"DR2012_e1b","DR2012_e1b_8",289,"Words",0,2,"1194","312","Include"
"DR2012_e1b","DR2012_e1b_8",290,"Words",0,1,"795","315","Include"
"DR2012_e1b","DR2012_e1b_8",291,"Words",0,5,"1214","332","Include"
"DR2012_e1b","DR2012_e1b_8",292,"Words",1,5,"1182","238","Include"
"DR2012_e1b","DR2012_e1b_8",293,"Words",1,5,"787","227","Include"
"DR2012_e1b","DR2012_e1b_8",294,"Words",1,2,"2153","192","Include"
"DR2012_e1b","DR2012_e1b_8",295,"Words",1,5,"1320","898","Include"
"DR2012_e1b","DR2012_e1b_8",296,"Words",0,2,"3661","854","Include"
"DR2012_e1b","DR2012_e1b_8",297,"Words",1,2,"1443","296","Include"
"DR2012_e1b","DR2012_e1b_8",298,"Words",1,6,"1211","425","Include"
"DR2012_e1b","DR2012_e1b_8",299,"Words",0,2,"1640","340","Include"
"DR2012_e1b","DR2012_e1b_8",300,"Words",0,5,"1734","207","Include"
"DR2012_e1b","DR2012_e1b_8",301,"Words",1,2,"870","242","Include"
"DR2012_e1b","DR2012_e1b_8",302,"Words",0,2,"2711","216","Include"
"DR2012_e1b","DR2012_e1b_8",303,"Words",1,2,"942","152","Include"
"DR2012_e1b","DR2012_e1b_8",304,"Words",1,6,"1073","357","Include"
"DR2012_e1b","DR2012_e1b_8",305,"Words",0,6,"774","214","Include"
"DR2012_e1b","DR2012_e1b_8",306,"Words",0,2,"1197","156","Include"
"DR2012_e1b","DR2012_e1b_8",307,"Words",1,2,"709","152","Include"
"DR2012_e1b","DR2012_e1b_8",308,"Words",0,2,"881","333","Include"
"DR2012_e1b","DR2012_e1b_8",309,"Words",1,5,"1198","334","Include"
"DR2012_e1b","DR2012_e1b_8",310,"Words",1,6,"800","1135","Include"
"DR2012_e1b","DR2012_e1b_8",311,"Words",0,5,"816","894","Include"
"DR2012_e1b","DR2012_e1b_8",312,"Words",0,2,"969","449","Include"
"DR2012_e1b","DR2012_e1b_8",313,"Words",1,2,"799","286","Include"
"DR2012_e1b","DR2012_e1b_8",314,"Words",0,2,"882","285","Include"
"DR2012_e1b","DR2012_e1b_8",315,"Words",1,6,"801","431","Include"
"DR2012_e1b","DR2012_e1b_8",316,"Words",1,2,"990","326","Include"
"DR2012_e1b","DR2012_e1b_8",317,"Words",1,4,"1976","407","Include"
"DR2012_e1b","DR2012_e1b_8",318,"Words",0,2,"1030","1083","Include"
"DR2012_e1b","DR2012_e1b_8",319,"Words",1,2,"847","252","Include"
"DR2012_e1b","DR2012_e1b_8",320,"Words",1,6,"1585","287","Include"
"DR2012_e1b","DR2012_e1b_8",321,"Words",1,6,"4322","736","Include"
"DR2012_e1b","DR2012_e1b_8",322,"Words",1,5,"930","283","Include"
"DR2012_e1b","DR2012_e1b_8",323,"Words",0,5,"894","203","Include"
"DR2012_e1b","DR2012_e1b_8",324,"Words",1,5,"642","487","Include"
"DR2012_e1b","DR2012_e1b_8",325,"Words",0,2,"1043","248","Include"
"DR2012_e1b","DR2012_e1b_8",326,"Words",0,1,"1278","377","Include"
"DR2012_e1b","DR2012_e1b_8",327,"Words",1,2,"729","395","Include"
"DR2012_e1b","DR2012_e1b_8",328,"Words",0,2,"699","286","Include"
"DR2012_e1b","DR2012_e1b_8",329,"Words",0,2,"610","297","Include"
"DR2012_e1b","DR2012_e1b_8",330,"Words",1,6,"780","268","Include"
"DR2012_e1b","DR2012_e1b_8",331,"Words",0,2,"1041","310","Include"
"DR2012_e1b","DR2012_e1b_8",332,"Words",0,2,"825","567","Include"
"DR2012_e1b","DR2012_e1b_8",333,"Words",0,2,"719","129","Include"
"DR2012_e1b","DR2012_e1b_8",334,"Words",1,2,"844","489","Include"
"DR2012_e1b","DR2012_e1b_8",335,"Words",0,2,"741","358","Include"
"DR2012_e1b","DR2012_e1b_8",336,"Words",0,2,"1399","1070","Include"
"DR2012_e1b","DR2012_e1b_8",337,"Words",0,1,"2961","296","Include"
"DR2012_e1b","DR2012_e1b_8",338,"Words",1,2,"699","415","Include"
"DR2012_e1b","DR2012_e1b_8",339,"Words",0,2,"766","270","Include"
"DR2012_e1b","DR2012_e1b_8",340,"Words",0,5,"2227","295","Include"
"DR2012_e1b","DR2012_e1b_8",341,"Words",0,2,"891","310","Include"
"DR2012_e1b","DR2012_e1b_8",342,"Words",1,5,"633","222","Include"
"DR2012_e1b","DR2012_e1b_8",343,"Words",1,6,"1077","295","Include"
"DR2012_e1b","DR2012_e1b_8",344,"Words",0,2,"939","324","Include"
"DR2012_e1b","DR2012_e1b_8",345,"Words",0,2,"806","197","Include"
"DR2012_e1b","DR2012_e1b_8",346,"Words",0,2,"829","443","Include"
"DR2012_e1b","DR2012_e1b_8",347,"Words",1,5,"776","328","Include"
"DR2012_e1b","DR2012_e1b_8",348,"Words",1,5,"1482","222","Include"
"DR2012_e1b","DR2012_e1b_8",349,"Words",0,4,"660","1529","Include"
"DR2012_e1b","DR2012_e1b_8",350,"Words",0,3,"2186","688","Include"
"DR2012_e1b","DR2012_e1b_8",351,"Words",1,5,"947","252","Include"
"DR2012_e1b","DR2012_e1b_8",352,"Words",1,6,"753","306","Include"
"DR2012_e1b","DR2012_e1b_8",353,"Words",1,6,"949","270","Include"
"DR2012_e1b","DR2012_e1b_8",354,"Words",1,6,"962","219","Include"
"DR2012_e1b","DR2012_e1b_8",355,"Words",0,5,"1665","205","Include"
"DR2012_e1b","DR2012_e1b_8",356,"Words",1,6,"740","261","Include"
"DR2012_e1b","DR2012_e1b_8",357,"Words",0,2,"1066","383","Include"
"DR2012_e1b","DR2012_e1b_8",358,"Words",1,6,"830","333","Include"
"DR2012_e1b","DR2012_e1b_8",359,"Words",0,2,"846","284","Include"
"DR2012_e1b","DR2012_e1b_8",360,"Words",0,2,"1408","214","Include"
"DR2012_e1b","DR2012_e1b_8",361,"Words",0,2,"1341","198","Include"
"DR2012_e1b","DR2012_e1b_8",362,"Words",1,6,"718","240","Include"
"DR2012_e1b","DR2012_e1b_8",363,"Words",1,5,"949","414","Include"
"DR2012_e1b","DR2012_e1b_8",364,"Words",1,6,"653","226","Include"
"DR2012_e1b","DR2012_e1b_8",365,"Words",1,6,"633","175","Include"
"DR2012_e1b","DR2012_e1b_8",366,"Words",0,2,"807","182","Include"
"DR2012_e1b","DR2012_e1b_8",367,"Words",1,6,"958","422","Include"
"DR2012_e1b","DR2012_e1b_8",368,"Words",0,2,"661","281","Include"
"DR2012_e1b","DR2012_e1b_8",369,"Words",1,6,"670","258","Include"
"DR2012_e1b","DR2012_e1b_8",370,"Words",1,3,"679","6219","Include"
"DR2012_e1b","DR2012_e1b_8",371,"Words",0,1,"2028","281","Include"
"DR2012_e1b","DR2012_e1b_8",372,"Words",0,5,"1821","354","Include"
"DR2012_e1b","DR2012_e1b_8",373,"Words",0,3,"3651","766","Include"
"DR2012_e1b","DR2012_e1b_8",374,"Words",0,1,"1278","970","Include"
"DR2012_e1b","DR2012_e1b_8",375,"Words",0,2,"721","595","Include"
"DR2012_e1b","DR2012_e1b_8",376,"Words",0,2,"2283","1405","Include"
"DR2012_e1b","DR2012_e1b_8",377,"Words",1,5,"1603","481","Include"
"DR2012_e1b","DR2012_e1b_8",378,"Words",1,2,"717","271","Include"
"DR2012_e1b","DR2012_e1b_8",379,"Words",1,5,"676","248","Include"
"DR2012_e1b","DR2012_e1b_8",380,"Words",1,6,"686","241","Include"
"DR2012_e1b","DR2012_e1b_8",381,"Words",1,6,"791","294","Include"
"DR2012_e1b","DR2012_e1b_8",382,"Words",1,6,"730","220","Include"
"DR2012_e1b","DR2012_e1b_8",383,"Words",1,6,"706","181","Include"
"DR2012_e1b","DR2012_e1b_8",384,"Words",0,2,"1517","271","Include"
"DR2012_e1b","DR2012_e1b_8",385,"Words",0,6,"1268","431","Include"
"DR2012_e1b","DR2012_e1b_8",386,"Words",0,2,"686","225","Include"
"DR2012_e1b","DR2012_e1b_8",387,"Words",1,6,"664","284","Include"
"DR2012_e1b","DR2012_e1b_8",388,"Words",0,2,"960","393","Include"
"DR2012_e1b","DR2012_e1b_8",389,"Words",0,2,"808","151","Include"
"DR2012_e1b","DR2012_e1b_8",390,"Words",0,5,"655","389","Include"
"DR2012_e1b","DR2012_e1b_8",391,"Words",1,5,"1507","149","Include"
"DR2012_e1b","DR2012_e1b_8",392,"Words",1,6,"974","279","Include"
"DR2012_e1b","DR2012_e1b_8",393,"Words",1,4,"2171","450","Include"
"DR2012_e1b","DR2012_e1b_8",394,"Words",0,2,"1214","349","Include"
"DR2012_e1b","DR2012_e1b_8",395,"Words",1,6,"878","251","Include"
"DR2012_e1b","DR2012_e1b_8",396,"Words",1,6,"768","176","Include"
"DR2012_e1b","DR2012_e1b_8",397,"Words",1,6,"568","144","Include"
"DR2012_e1b","DR2012_e1b_8",398,"Words",0,2,"794","1161","Include"
"DR2012_e1b","DR2012_e1b_8",399,"Words",1,6,"650","415","Include"
"DR2012_e1b","DR2012_e1b_8",400,"Words",1,5,"1118","383","Include"
"DR2012_e1b","DR2012_e1b_18",1,"Words",1,6,"4678","1445","Include"
"DR2012_e1b","DR2012_e1b_18",2,"Words",0,3,"3161","1494","Include"
"DR2012_e1b","DR2012_e1b_18",3,"Words",1,6,"2057","752","Include"
"DR2012_e1b","DR2012_e1b_18",4,"Words",1,6,"3166","1255","Include"
"DR2012_e1b","DR2012_e1b_18",5,"Words",1,6,"908","810","Include"
"DR2012_e1b","DR2012_e1b_18",6,"Words",0,1,"2475","589","Include"
"DR2012_e1b","DR2012_e1b_18",7,"Words",1,6,"1382","369","Include"
"DR2012_e1b","DR2012_e1b_18",8,"Words",0,2,"1843","634","Include"
"DR2012_e1b","DR2012_e1b_18",9,"Words",0,2,"1509","585","Include"
"DR2012_e1b","DR2012_e1b_18",10,"Words",1,6,"1077","953","Include"
"DR2012_e1b","DR2012_e1b_18",11,"Words",1,6,"810","379","Include"
"DR2012_e1b","DR2012_e1b_18",12,"Words",0,3,"2253","279","Include"
"DR2012_e1b","DR2012_e1b_18",13,"Words",0,3,"1753","250","Include"
"DR2012_e1b","DR2012_e1b_18",14,"Words",0,3,"944","557","Include"
"DR2012_e1b","DR2012_e1b_18",15,"Words",0,2,"1623","282","Include"
"DR2012_e1b","DR2012_e1b_18",16,"Words",0,2,"1291","158","Include"
"DR2012_e1b","DR2012_e1b_18",17,"Words",0,2,"1176","347","Include"
"DR2012_e1b","DR2012_e1b_18",18,"Words",0,2,"877","269","Include"
"DR2012_e1b","DR2012_e1b_18",19,"Words",0,2,"926","351","Include"
"DR2012_e1b","DR2012_e1b_18",20,"Words",0,2,"893","175","Include"
"DR2012_e1b","DR2012_e1b_18",21,"Words",0,1,"712","381","Include"
"DR2012_e1b","DR2012_e1b_18",22,"Words",1,4,"1758","440","Include"
"DR2012_e1b","DR2012_e1b_18",23,"Words",0,1,"2743","1060","Include"
"DR2012_e1b","DR2012_e1b_18",24,"Words",1,6,"3512","1911","Include"
"DR2012_e1b","DR2012_e1b_18",25,"Words",0,2,"1674","406","Include"
"DR2012_e1b","DR2012_e1b_18",26,"Words",1,6,"1422","441","Include"
"DR2012_e1b","DR2012_e1b_18",27,"Words",1,6,"792","346","Include"
"DR2012_e1b","DR2012_e1b_18",28,"Words",1,6,"680","275","Include"
"DR2012_e1b","DR2012_e1b_18",29,"Words",0,6,"740","204","Include"
"DR2012_e1b","DR2012_e1b_18",30,"Words",1,6,"580","187","Include"
"DR2012_e1b","DR2012_e1b_18",31,"Words",1,6,"659","234","Include"
"DR2012_e1b","DR2012_e1b_18",32,"Words",1,6,"593","186","Include"
"DR2012_e1b","DR2012_e1b_18",33,"Words",1,6,"895","177","Include"
"DR2012_e1b","DR2012_e1b_18",34,"Words",1,6,"1226","236","Include"
"DR2012_e1b","DR2012_e1b_18",35,"Words",0,3,"1774","63","Include"
"DR2012_e1b","DR2012_e1b_18",36,"Words",1,6,"1213","302","Include"
"DR2012_e1b","DR2012_e1b_18",37,"Words",0,6,"1299","241","Include"
"DR2012_e1b","DR2012_e1b_18",38,"Words",1,6,"772","171","Include"
"DR2012_e1b","DR2012_e1b_18",39,"Words",0,3,"948","239","Include"
"DR2012_e1b","DR2012_e1b_18",40,"Words",1,6,"694","268","Include"
"DR2012_e1b","DR2012_e1b_18",41,"Words",1,6,"817","226","Include"
"DR2012_e1b","DR2012_e1b_18",42,"Words",0,6,"633","241","Include"
"DR2012_e1b","DR2012_e1b_18",43,"Words",1,6,"631","330","Include"
"DR2012_e1b","DR2012_e1b_18",44,"Words",1,6,"643","266","Include"
"DR2012_e1b","DR2012_e1b_18",45,"Words",0,2,"1071","615","Include"
"DR2012_e1b","DR2012_e1b_18",46,"Words",1,6,"1406","406","Include"
"DR2012_e1b","DR2012_e1b_18",47,"Words",0,2,"1209","236","Include"
"DR2012_e1b","DR2012_e1b_18",48,"Words",1,6,"882","272","Include"
"DR2012_e1b","DR2012_e1b_18",49,"Words",0,2,"1142","426","Include"
"DR2012_e1b","DR2012_e1b_18",50,"Words",1,3,"1559","271","Include"
"DR2012_e1b","DR2012_e1b_18",51,"Words",1,3,"757","216","Include"
"DR2012_e1b","DR2012_e1b_18",52,"Words",0,3,"940","395","Include"
"DR2012_e1b","DR2012_e1b_18",53,"Words",1,6,"1004","262","Include"
"DR2012_e1b","DR2012_e1b_18",54,"Words",0,2,"2636","216","Include"
"DR2012_e1b","DR2012_e1b_18",55,"Words",0,3,"1168","291","Include"
"DR2012_e1b","DR2012_e1b_18",56,"Words",0,3,"1064","239","Include"
"DR2012_e1b","DR2012_e1b_18",57,"Words",0,6,"787","200","Include"
"DR2012_e1b","DR2012_e1b_18",58,"Words",1,3,"800","417","Include"
"DR2012_e1b","DR2012_e1b_18",59,"Words",1,6,"769","275","Include"
"DR2012_e1b","DR2012_e1b_18",60,"Words",0,3,"6262","281","Include"
"DR2012_e1b","DR2012_e1b_18",61,"Words",0,2,"834","994","Include"
"DR2012_e1b","DR2012_e1b_18",62,"Words",1,6,"1849","198","Include"
"DR2012_e1b","DR2012_e1b_18",63,"Words",1,6,"714","228","Include"
"DR2012_e1b","DR2012_e1b_18",64,"Words",0,3,"827","427","Include"
"DR2012_e1b","DR2012_e1b_18",65,"Words",1,2,"2955","236","Include"
"DR2012_e1b","DR2012_e1b_18",66,"Words",0,2,"1218","244","Include"
"DR2012_e1b","DR2012_e1b_18",67,"Words",1,2,"747","254","Include"
"DR2012_e1b","DR2012_e1b_18",68,"Words",1,2,"817","228","Include"
"DR2012_e1b","DR2012_e1b_18",69,"Words",1,2,"874","828","Include"
"DR2012_e1b","DR2012_e1b_18",70,"Words",0,2,"1404","247","Include"
"DR2012_e1b","DR2012_e1b_18",71,"Words",0,3,"3261","290","Include"
"DR2012_e1b","DR2012_e1b_18",72,"Words",1,3,"3782","313","Include"
"DR2012_e1b","DR2012_e1b_18",73,"Words",1,3,"1366","243","Include"
"DR2012_e1b","DR2012_e1b_18",74,"Words",0,3,"523","231","Include"
"DR2012_e1b","DR2012_e1b_18",75,"Words",1,5,"1614","304","Include"
"DR2012_e1b","DR2012_e1b_18",76,"Words",0,3,"917","273","Include"
"DR2012_e1b","DR2012_e1b_18",77,"Words",0,3,"887","229","Include"
"DR2012_e1b","DR2012_e1b_18",78,"Words",1,3,"1306","267","Include"
"DR2012_e1b","DR2012_e1b_18",79,"Words",0,3,"704","229","Include"
"DR2012_e1b","DR2012_e1b_18",80,"Words",0,5,"1244","493","Include"
"DR2012_e1b","DR2012_e1b_18",81,"Words",1,5,"4240","1423","Include"
"DR2012_e1b","DR2012_e1b_18",82,"Words",1,3,"1753","311","Include"
"DR2012_e1b","DR2012_e1b_18",83,"Words",1,6,"1131","400","Include"
"DR2012_e1b","DR2012_e1b_18",84,"Words",1,6,"656","311","Include"
"DR2012_e1b","DR2012_e1b_18",85,"Words",1,6,"1003","309","Include"
"DR2012_e1b","DR2012_e1b_18",86,"Words",1,2,"1257","249","Include"
"DR2012_e1b","DR2012_e1b_18",87,"Words",1,2,"1311","238","Include"
"DR2012_e1b","DR2012_e1b_18",88,"Words",1,3,"1092","139","Include"
"DR2012_e1b","DR2012_e1b_18",89,"Words",1,3,"1109","283","Include"
"DR2012_e1b","DR2012_e1b_18",90,"Words",1,3,"1456","268","Include"
"DR2012_e1b","DR2012_e1b_18",91,"Words",1,6,"1617","388","Include"
"DR2012_e1b","DR2012_e1b_18",92,"Words",1,6,"661","252","Include"
"DR2012_e1b","DR2012_e1b_18",93,"Words",1,5,"738","406","Include"
"DR2012_e1b","DR2012_e1b_18",94,"Words",1,3,"982","289","Include"
"DR2012_e1b","DR2012_e1b_18",95,"Words",1,3,"981","240","Include"
"DR2012_e1b","DR2012_e1b_18",96,"Words",1,3,"582","240","Include"
"DR2012_e1b","DR2012_e1b_18",97,"Words",1,3,"598","3488","Include"
"DR2012_e1b","DR2012_e1b_18",98,"Words",1,3,"1100","241","Include"
"DR2012_e1b","DR2012_e1b_18",99,"Words",1,6,"793","987","Include"
"DR2012_e1b","DR2012_e1b_18",100,"Words",1,6,"614","334","Include"
"DR2012_e1b","DR2012_e1b_18",101,"Words",1,3,"641","4297","Include"
"DR2012_e1b","DR2012_e1b_18",102,"Words",1,3,"1143","538","Include"
"DR2012_e1b","DR2012_e1b_18",103,"Words",1,3,"710","315","Include"
"DR2012_e1b","DR2012_e1b_18",104,"Words",1,3,"654","357","Include"
"DR2012_e1b","DR2012_e1b_18",105,"Words",1,3,"935","388","Include"
"DR2012_e1b","DR2012_e1b_18",106,"Words",1,6,"1349","321","Include"
"DR2012_e1b","DR2012_e1b_18",107,"Words",1,2,"1078","572","Include"
"DR2012_e1b","DR2012_e1b_18",108,"Words",1,6,"1318","276","Include"
"DR2012_e1b","DR2012_e1b_18",109,"Words",1,6,"841","250","Include"
"DR2012_e1b","DR2012_e1b_18",110,"Words",1,6,"543","267","Include"
"DR2012_e1b","DR2012_e1b_18",111,"Words",1,6,"561","155","Include"
"DR2012_e1b","DR2012_e1b_18",112,"Words",1,6,"741","232","Include"
"DR2012_e1b","DR2012_e1b_18",113,"Words",1,6,"831","303","Include"
"DR2012_e1b","DR2012_e1b_18",114,"Words",1,6,"595","253","Include"
"DR2012_e1b","DR2012_e1b_18",115,"Words",1,6,"707","232","Include"
"DR2012_e1b","DR2012_e1b_18",116,"Words",1,6,"462","253","Include"
"DR2012_e1b","DR2012_e1b_18",117,"Words",1,6,"531","270","Include"
"DR2012_e1b","DR2012_e1b_18",118,"Words",1,6,"564","382","Include"
"DR2012_e1b","DR2012_e1b_18",119,"Words",1,6,"752","275","Include"
"DR2012_e1b","DR2012_e1b_18",120,"Words",1,6,"569","178","Include"
"DR2012_e1b","DR2012_e1b_18",121,"Words",0,6,"635","227","Include"
"DR2012_e1b","DR2012_e1b_18",122,"Words",0,6,"650","337","Include"
"DR2012_e1b","DR2012_e1b_18",123,"Words",0,6,"613","189","Include"
"DR2012_e1b","DR2012_e1b_18",124,"Words",0,3,"869","1140","Include"
"DR2012_e1b","DR2012_e1b_18",125,"Words",0,3,"937","229","Include"
"DR2012_e1b","DR2012_e1b_18",126,"Words",0,3,"988","424","Include"
"DR2012_e1b","DR2012_e1b_18",127,"Words",0,3,"775","233","Include"
"DR2012_e1b","DR2012_e1b_18",128,"Words",0,3,"656","247","Include"
"DR2012_e1b","DR2012_e1b_18",129,"Words",0,2,"621","245","Include"
"DR2012_e1b","DR2012_e1b_18",130,"Words",0,2,"1917","259","Include"
"DR2012_e1b","DR2012_e1b_18",131,"Words",0,2,"761","221","Include"
"DR2012_e1b","DR2012_e1b_18",132,"Words",0,2,"644","219","Include"
"DR2012_e1b","DR2012_e1b_18",133,"Words",0,1,"931","1327","Include"
"DR2012_e1b","DR2012_e1b_18",134,"Words",0,1,"941","410","Include"
"DR2012_e1b","DR2012_e1b_18",135,"Words",0,2,"698","398","Include"
"DR2012_e1b","DR2012_e1b_18",136,"Words",0,2,"721","373","Include"
"DR2012_e1b","DR2012_e1b_18",137,"Words",0,2,"534","305","Include"
"DR2012_e1b","DR2012_e1b_18",138,"Words",0,2,"388","277","Include"
"DR2012_e1b","DR2012_e1b_18",139,"Words",0,2,"347","269","Include"
"DR2012_e1b","DR2012_e1b_18",140,"Words",0,2,"243","266","Include"
"DR2012_e1b","DR2012_e1b_18",141,"Words",0,2,"223","278","Include"
"DR2012_e1b","DR2012_e1b_18",142,"Words",0,2,"236","274","Include"
"DR2012_e1b","DR2012_e1b_18",143,"Words",0,4,"2072","537","Include"
"DR2012_e1b","DR2012_e1b_18",144,"Words",0,3,"1157","329","Include"
"DR2012_e1b","DR2012_e1b_18",145,"Words",0,6,"975","599","Include"
"DR2012_e1b","DR2012_e1b_18",146,"Words",0,2,"1504","1114","Include"
"DR2012_e1b","DR2012_e1b_18",147,"Words",0,2,"1133","354","Include"
"DR2012_e1b","DR2012_e1b_18",148,"Words",0,5,"900","418","Include"
"DR2012_e1b","DR2012_e1b_18",149,"Words",0,2,"801","534","Include"
"DR2012_e1b","DR2012_e1b_18",150,"Words",0,2,"910","367","Include"
"DR2012_e1b","DR2012_e1b_18",151,"Words",0,2,"670","277","Include"
"DR2012_e1b","DR2012_e1b_18",152,"Words",0,2,"490","311","Include"
"DR2012_e1b","DR2012_e1b_18",153,"Words",0,2,"395","284","Include"
"DR2012_e1b","DR2012_e1b_18",154,"Words",0,2,"353","275","Include"
"DR2012_e1b","DR2012_e1b_18",155,"Words",0,2,"329","268","Include"
"DR2012_e1b","DR2012_e1b_18",156,"Words",0,2,"289","310","Include"
"DR2012_e1b","DR2012_e1b_18",157,"Words",0,2,"298","481","Include"
"DR2012_e1b","DR2012_e1b_18",158,"Words",0,2,"1709","367","Include"
"DR2012_e1b","DR2012_e1b_18",159,"Words",0,2,"558","249","Include"
"DR2012_e1b","DR2012_e1b_18",160,"Words",0,2,"495","252","Include"
"DR2012_e1b","DR2012_e1b_18",161,"Words",0,1,"4673","1024","Include"
"DR2012_e1b","DR2012_e1b_18",162,"Words",0,1,"813","235","Include"
"DR2012_e1b","DR2012_e1b_18",163,"Words",1,6,"721","598","Include"
"DR2012_e1b","DR2012_e1b_18",164,"Words",1,1,"899","416","Include"
"DR2012_e1b","DR2012_e1b_18",165,"Words",1,6,"1036","342","Include"
"DR2012_e1b","DR2012_e1b_18",166,"Words",0,1,"809","282","Include"
"DR2012_e1b","DR2012_e1b_18",167,"Words",1,1,"559","265","Include"
"DR2012_e1b","DR2012_e1b_18",168,"Words",0,1,"575","265","Include"
"DR2012_e1b","DR2012_e1b_18",169,"Words",1,5,"1041","455","Include"
"DR2012_e1b","DR2012_e1b_18",170,"Words",0,2,"726","718","Include"
"DR2012_e1b","DR2012_e1b_18",171,"Words",0,1,"751","530","Include"
"DR2012_e1b","DR2012_e1b_18",172,"Words",1,3,"1148","1473","Include"
"DR2012_e1b","DR2012_e1b_18",173,"Words",1,2,"1193","444","Include"
"DR2012_e1b","DR2012_e1b_18",174,"Words",1,2,"731","335","Include"
"DR2012_e1b","DR2012_e1b_18",175,"Words",0,2,"616","385","Include"
"DR2012_e1b","DR2012_e1b_18",176,"Words",1,6,"753","351","Include"
"DR2012_e1b","DR2012_e1b_18",177,"Words",0,2,"753","965","Include"
"DR2012_e1b","DR2012_e1b_18",178,"Words",0,2,"640","327","Include"
"DR2012_e1b","DR2012_e1b_18",179,"Words",0,2,"811","348","Include"
"DR2012_e1b","DR2012_e1b_18",180,"Words",0,6,"1550","339","Include"
"DR2012_e1b","DR2012_e1b_18",181,"Words",1,5,"966","401","Include"
"DR2012_e1b","DR2012_e1b_18",182,"Words",1,6,"840","258","Include"
"DR2012_e1b","DR2012_e1b_18",183,"Words",1,6,"616","304","Include"
"DR2012_e1b","DR2012_e1b_18",184,"Words",0,4,"612","1469","Include"
"DR2012_e1b","DR2012_e1b_18",185,"Words",1,6,"1477","333","Include"
"DR2012_e1b","DR2012_e1b_18",186,"Words",0,3,"1120","326","Include"
"DR2012_e1b","DR2012_e1b_18",187,"Words",0,3,"697","340","Include"
"DR2012_e1b","DR2012_e1b_18",188,"Words",0,6,"1106","312","Include"
"DR2012_e1b","DR2012_e1b_18",189,"Words",1,6,"1068","291","Include"
"DR2012_e1b","DR2012_e1b_18",190,"Words",0,3,"974","195","Include"
"DR2012_e1b","DR2012_e1b_18",191,"Words",0,3,"1745","351","Include"
"DR2012_e1b","DR2012_e1b_18",192,"Words",0,3,"667","259","Include"
"DR2012_e1b","DR2012_e1b_18",193,"Words",1,3,"1337","374","Include"
"DR2012_e1b","DR2012_e1b_18",194,"Words",1,5,"1031","480","Include"
"DR2012_e1b","DR2012_e1b_18",195,"Words",1,3,"1053","246","Include"
"DR2012_e1b","DR2012_e1b_18",196,"Words",1,3,"700","593","Include"
"DR2012_e1b","DR2012_e1b_18",197,"Words",1,6,"1441","164","Include"
"DR2012_e1b","DR2012_e1b_18",198,"Words",1,6,"637","214","Include"
"DR2012_e1b","DR2012_e1b_18",199,"Words",0,4,"659","1028","Include"
"DR2012_e1b","DR2012_e1b_18",200,"Words",0,2,"909","411","Include"
"DR2012_e1b","DR2012_e1b_18",201,"Words",0,3,"907","447","Include"
"DR2012_e1b","DR2012_e1b_18",202,"Words",0,3,"1038","193","Include"
"DR2012_e1b","DR2012_e1b_18",203,"Words",0,3,"569","291","Include"
"DR2012_e1b","DR2012_e1b_18",204,"Words",1,3,"552","419","Include"
"DR2012_e1b","DR2012_e1b_18",205,"Words",1,6,"1314","287","Include"
"DR2012_e1b","DR2012_e1b_18",206,"Words",1,6,"1236","325","Include"
"DR2012_e1b","DR2012_e1b_18",207,"Words",1,6,"655","159","Include"
"DR2012_e1b","DR2012_e1b_18",208,"Words",1,6,"521","293","Include"
"DR2012_e1b","DR2012_e1b_18",209,"Words",1,6,"618","306","Include"
"DR2012_e1b","DR2012_e1b_18",210,"Words",0,6,"502","426","Include"
"DR2012_e1b","DR2012_e1b_18",211,"Words",1,2,"946","501","Include"
"DR2012_e1b","DR2012_e1b_18",212,"Words",1,2,"1297","234","Include"
"DR2012_e1b","DR2012_e1b_18",213,"Words",1,6,"1016","282","Include"
"DR2012_e1b","DR2012_e1b_18",214,"Words",1,3,"880","357","Include"
"DR2012_e1b","DR2012_e1b_18",215,"Words",1,6,"689","391","Include"
"DR2012_e1b","DR2012_e1b_18",216,"Words",1,1,"584","513","Include"
"DR2012_e1b","DR2012_e1b_18",217,"Words",0,2,"1284","365","Include"
"DR2012_e1b","DR2012_e1b_18",218,"Words",1,5,"1246","399","Include"
"DR2012_e1b","DR2012_e1b_18",219,"Words",0,2,"799","320","Include"
"DR2012_e1b","DR2012_e1b_18",220,"Words",1,1,"644","427","Include"
"DR2012_e1b","DR2012_e1b_18",221,"Words",0,3,"2251","246","Include"
"DR2012_e1b","DR2012_e1b_18",222,"Words",1,3,"829","1069","Include"
"DR2012_e1b","DR2012_e1b_18",223,"Words",0,5,"741","616","Include"
"DR2012_e1b","DR2012_e1b_18",224,"Words",1,2,"728","380","Include"
"DR2012_e1b","DR2012_e1b_18",225,"Words",0,1,"695","1043","Include"
"DR2012_e1b","DR2012_e1b_18",226,"Words",0,3,"4053","348","Include"
"DR2012_e1b","DR2012_e1b_18",227,"Words",0,3,"926","315","Include"
"DR2012_e1b","DR2012_e1b_18",228,"Words",0,3,"1871","296","Include"
"DR2012_e1b","DR2012_e1b_18",229,"Words",0,3,"972","296","Include"
"DR2012_e1b","DR2012_e1b_18",230,"Words",0,3,"1196","350","Include"
"DR2012_e1b","DR2012_e1b_18",231,"Words",1,2,"904","271","Include"
"DR2012_e1b","DR2012_e1b_18",232,"Words",0,2,"2132","419","Include"
"DR2012_e1b","DR2012_e1b_18",233,"Words",1,2,"1043","476","Include"
"DR2012_e1b","DR2012_e1b_18",234,"Words",0,5,"945","278","Include"
"DR2012_e1b","DR2012_e1b_18",235,"Words",1,5,"731","334","Include"
"DR2012_e1b","DR2012_e1b_18",236,"Words",0,5,"681","233","Include"
"DR2012_e1b","DR2012_e1b_18",237,"Words",1,5,"534","362","Include"
"DR2012_e1b","DR2012_e1b_18",238,"Words",0,5,"909","331","Include"
"DR2012_e1b","DR2012_e1b_18",239,"Words",0,3,"740","593","Include"
"DR2012_e1b","DR2012_e1b_18",240,"Words",0,3,"507","399","Include"
"DR2012_e1b","DR2012_e1b_18",241,"Words",0,1,"3048","452","Include"
"DR2012_e1b","DR2012_e1b_18",242,"Words",0,1,"995","317","Include"
"DR2012_e1b","DR2012_e1b_18",243,"Words",0,1,"737","1124","Include"
"DR2012_e1b","DR2012_e1b_18",244,"Words",1,1,"1033","401","Include"
"DR2012_e1b","DR2012_e1b_18",245,"Words",0,1,"658","329","Include"
"DR2012_e1b","DR2012_e1b_18",246,"Words",1,1,"653","307","Include"
"DR2012_e1b","DR2012_e1b_18",247,"Words",0,1,"705","124","Include"
"DR2012_e1b","DR2012_e1b_18",248,"Words",1,6,"1255","386","Include"
"DR2012_e1b","DR2012_e1b_18",249,"Words",1,2,"1368","1012","Include"
"DR2012_e1b","DR2012_e1b_18",250,"Words",1,6,"1080","341","Include"
"DR2012_e1b","DR2012_e1b_18",251,"Words",1,6,"898","262","Include"
"DR2012_e1b","DR2012_e1b_18",252,"Words",1,2,"1004","1008","Include"
"DR2012_e1b","DR2012_e1b_18",253,"Words",0,2,"969","282","Include"
"DR2012_e1b","DR2012_e1b_18",254,"Words",1,2,"575","297","Include"
"DR2012_e1b","DR2012_e1b_18",255,"Words",0,2,"941","436","Include"
"DR2012_e1b","DR2012_e1b_18",256,"Words",1,2,"819","250","Include"
"DR2012_e1b","DR2012_e1b_18",257,"Words",0,6,"832","592","Include"
"DR2012_e1b","DR2012_e1b_18",258,"Words",0,2,"762","365","Include"
"DR2012_e1b","DR2012_e1b_18",259,"Words",0,2,"654","277","Include"
"DR2012_e1b","DR2012_e1b_18",260,"Words",1,6,"1115","272","Include"
"DR2012_e1b","DR2012_e1b_18",261,"Words",0,2,"751","313","Include"
"DR2012_e1b","DR2012_e1b_18",262,"Words",1,3,"893","811","Include"
"DR2012_e1b","DR2012_e1b_18",263,"Words",0,3,"492","297","Include"
"DR2012_e1b","DR2012_e1b_18",264,"Words",0,3,"413","318","Include"
"DR2012_e1b","DR2012_e1b_18",265,"Words",0,3,"546","365","Include"
"DR2012_e1b","DR2012_e1b_18",266,"Words",0,3,"495","652","Include"
"DR2012_e1b","DR2012_e1b_18",267,"Words",0,3,"883","849","Include"
"DR2012_e1b","DR2012_e1b_18",268,"Words",0,5,"1323","318","Include"
"DR2012_e1b","DR2012_e1b_18",269,"Words",1,5,"626","330","Include"
"DR2012_e1b","DR2012_e1b_18",270,"Words",1,5,"839","212","Include"
"DR2012_e1b","DR2012_e1b_18",271,"Words",1,5,"884","242","Include"
"DR2012_e1b","DR2012_e1b_18",272,"Words",1,5,"536","292","Include"
"DR2012_e1b","DR2012_e1b_18",273,"Words",1,3,"744","284","Include"
"DR2012_e1b","DR2012_e1b_18",274,"Words",1,3,"321","324","Include"
"DR2012_e1b","DR2012_e1b_18",275,"Words",1,3,"248","398","Include"
"DR2012_e1b","DR2012_e1b_18",276,"Words",1,3,"2623","220","Include"
"DR2012_e1b","DR2012_e1b_18",277,"Words",1,2,"915","176","Include"
"DR2012_e1b","DR2012_e1b_18",278,"Words",1,2,"921","288","Include"
"DR2012_e1b","DR2012_e1b_18",279,"Words",1,5,"1099","379","Include"
"DR2012_e1b","DR2012_e1b_18",280,"Words",0,5,"674","328","Include"
"DR2012_e1b","DR2012_e1b_18",281,"Words",1,6,"635","452","Include"
"DR2012_e1b","DR2012_e1b_18",282,"Words",1,3,"1633","1571","Include"
"DR2012_e1b","DR2012_e1b_18",283,"Words",0,3,"1432","577","Include"
"DR2012_e1b","DR2012_e1b_18",284,"Words",0,3,"1691","427","Include"
"DR2012_e1b","DR2012_e1b_18",285,"Words",0,3,"747","462","Include"
"DR2012_e1b","DR2012_e1b_18",286,"Words",1,6,"1101","259","Include"
"DR2012_e1b","DR2012_e1b_18",287,"Words",0,5,"729","570","Include"
"DR2012_e1b","DR2012_e1b_18",288,"Words",0,5,"584","353","Include"
"DR2012_e1b","DR2012_e1b_18",289,"Words",1,5,"628","364","Include"
"DR2012_e1b","DR2012_e1b_18",290,"Words",0,5,"509","453","Include"
"DR2012_e1b","DR2012_e1b_18",291,"Words",1,6,"856","500","Include"
"DR2012_e1b","DR2012_e1b_18",292,"Words",1,3,"1697","197","Include"
"DR2012_e1b","DR2012_e1b_18",293,"Words",0,3,"1081","165","Include"
"DR2012_e1b","DR2012_e1b_18",294,"Words",0,1,"1646","303","Include"
"DR2012_e1b","DR2012_e1b_18",295,"Words",0,1,"755","295","Include"
"DR2012_e1b","DR2012_e1b_18",296,"Words",1,1,"587","1041","Include"
"DR2012_e1b","DR2012_e1b_18",297,"Words",1,6,"1165","273","Include"
"DR2012_e1b","DR2012_e1b_18",298,"Words",0,6,"502","227","Include"
"DR2012_e1b","DR2012_e1b_18",299,"Words",1,6,"474","308","Include"
"DR2012_e1b","DR2012_e1b_18",300,"Words",0,6,"664","163","Include"
"DR2012_e1b","DR2012_e1b_18",301,"Words",0,6,"793","255","Include"
"DR2012_e1b","DR2012_e1b_18",302,"Words",0,6,"708","346","Include"
"DR2012_e1b","DR2012_e1b_18",303,"Words",1,6,"1068","260","Include"
"DR2012_e1b","DR2012_e1b_18",304,"Words",1,6,"618","242","Include"
"DR2012_e1b","DR2012_e1b_18",305,"Words",0,6,"536","212","Include"
"DR2012_e1b","DR2012_e1b_18",306,"Words",1,6,"572","246","Include"
"DR2012_e1b","DR2012_e1b_18",307,"Words",1,3,"1064","276","Include"
"DR2012_e1b","DR2012_e1b_18",308,"Words",0,1,"806","331","Include"
"DR2012_e1b","DR2012_e1b_18",309,"Words",1,3,"621","1207","Include"
"DR2012_e1b","DR2012_e1b_18",310,"Words",0,3,"933","421","Include"
"DR2012_e1b","DR2012_e1b_18",311,"Words",0,3,"1393","193","Include"
"DR2012_e1b","DR2012_e1b_18",312,"Words",0,3,"1977","286","Include"
"DR2012_e1b","DR2012_e1b_18",313,"Words",0,3,"707","249","Include"
"DR2012_e1b","DR2012_e1b_18",314,"Words",1,6,"1214","256","Include"
"DR2012_e1b","DR2012_e1b_18",315,"Words",1,3,"1046","330","Include"
"DR2012_e1b","DR2012_e1b_18",316,"Words",0,3,"818","227","Include"
"DR2012_e1b","DR2012_e1b_18",317,"Words",0,3,"790","92","Include"
"DR2012_e1b","DR2012_e1b_18",318,"Words",0,3,"1015","365","Include"
"DR2012_e1b","DR2012_e1b_18",319,"Words",1,3,"691","232","Include"
"DR2012_e1b","DR2012_e1b_18",320,"Words",1,3,"687","453","Include"
"DR2012_e1b","DR2012_e1b_18",321,"Words",0,5,"3126","399","Include"
"DR2012_e1b","DR2012_e1b_18",322,"Words",0,3,"1120","324","Include"
"DR2012_e1b","DR2012_e1b_18",323,"Words",1,6,"1593","397","Include"
"DR2012_e1b","DR2012_e1b_18",324,"Words",1,5,"1084","244","Include"
"DR2012_e1b","DR2012_e1b_18",325,"Words",0,5,"698","335","Include"
"DR2012_e1b","DR2012_e1b_18",326,"Words",1,5,"739","454","Include"
"DR2012_e1b","DR2012_e1b_18",327,"Words",1,5,"456","417","Include"
"DR2012_e1b","DR2012_e1b_18",328,"Words",0,5,"514","286","Include"
"DR2012_e1b","DR2012_e1b_18",329,"Words",0,4,"611","1116","Include"
"DR2012_e1b","DR2012_e1b_18",330,"Words",1,5,"1265","257","Include"
"DR2012_e1b","DR2012_e1b_18",331,"Words",0,5,"871","294","Include"
"DR2012_e1b","DR2012_e1b_18",332,"Words",0,3,"746","158","Include"
"DR2012_e1b","DR2012_e1b_18",333,"Words",0,3,"1207","169","Include"
"DR2012_e1b","DR2012_e1b_18",334,"Words",1,3,"691","25","Include"
"DR2012_e1b","DR2012_e1b_18",335,"Words",0,3,"1400","179","Include"
"DR2012_e1b","DR2012_e1b_18",336,"Words",0,3,"636","179","Include"
"DR2012_e1b","DR2012_e1b_18",337,"Words",0,3,"652","179","Include"
"DR2012_e1b","DR2012_e1b_18",338,"Words",0,3,"525","248","Include"
"DR2012_e1b","DR2012_e1b_18",339,"Words",1,3,"669","117","Include"
"DR2012_e1b","DR2012_e1b_18",340,"Words",1,5,"896","286","Include"
"DR2012_e1b","DR2012_e1b_18",341,"Words",0,3,"1090","153","Include"
"DR2012_e1b","DR2012_e1b_18",342,"Words",0,3,"1203","309","Include"
"DR2012_e1b","DR2012_e1b_18",343,"Words",1,5,"1928","241","Include"
"DR2012_e1b","DR2012_e1b_18",344,"Words",0,3,"806","265","Include"
"DR2012_e1b","DR2012_e1b_18",345,"Words",0,3,"557","217","Include"
"DR2012_e1b","DR2012_e1b_18",346,"Words",1,3,"591","154","Include"
"DR2012_e1b","DR2012_e1b_18",347,"Words",1,3,"437","270","Include"
"DR2012_e1b","DR2012_e1b_18",348,"Words",1,3,"629","189","Include"
"DR2012_e1b","DR2012_e1b_18",349,"Words",1,3,"1318","323","Include"
"DR2012_e1b","DR2012_e1b_18",350,"Words",0,4,"1207","312","Include"
"DR2012_e1b","DR2012_e1b_18",351,"Words",0,5,"1036","917","Include"
"DR2012_e1b","DR2012_e1b_18",352,"Words",0,3,"2674","365","Include"
"DR2012_e1b","DR2012_e1b_18",353,"Words",1,3,"687","420","Include"
"DR2012_e1b","DR2012_e1b_18",354,"Words",1,6,"1284","419","Include"
"DR2012_e1b","DR2012_e1b_18",355,"Words",1,6,"835","547","Include"
"DR2012_e1b","DR2012_e1b_18",356,"Words",0,6,"574","472","Include"
"DR2012_e1b","DR2012_e1b_18",357,"Words",0,3,"982","592","Include"
"DR2012_e1b","DR2012_e1b_18",358,"Words",1,3,"713","414","Include"
"DR2012_e1b","DR2012_e1b_18",359,"Words",1,3,"1406","249","Include"
"DR2012_e1b","DR2012_e1b_18",360,"Words",1,3,"847","286","Include"
"DR2012_e1b","DR2012_e1b_18",361,"Words",0,3,"1332","225","Include"
"DR2012_e1b","DR2012_e1b_18",362,"Words",0,3,"968","387","Include"
"DR2012_e1b","DR2012_e1b_18",363,"Words",1,3,"1220","438","Include"
"DR2012_e1b","DR2012_e1b_18",364,"Words",1,3,"709","346","Include"
"DR2012_e1b","DR2012_e1b_18",365,"Words",0,3,"509","313","Include"
"DR2012_e1b","DR2012_e1b_18",366,"Words",0,3,"525","265","Include"
"DR2012_e1b","DR2012_e1b_18",367,"Words",0,3,"2639","395","Include"
"DR2012_e1b","DR2012_e1b_18",368,"Words",0,3,"1868","421","Include"
"DR2012_e1b","DR2012_e1b_18",369,"Words",0,3,"549","224","Include"
"DR2012_e1b","DR2012_e1b_18",370,"Words",0,3,"615","176","Include"
"DR2012_e1b","DR2012_e1b_18",371,"Words",1,3,"425","361","Include"
"DR2012_e1b","DR2012_e1b_18",372,"Words",1,4,"859","234","Include"
"DR2012_e1b","DR2012_e1b_18",373,"Words",1,4,"545","284","Include"
"DR2012_e1b","DR2012_e1b_18",374,"Words",0,4,"593","314","Include"
"DR2012_e1b","DR2012_e1b_18",375,"Words",1,4,"334","401","Include"
"DR2012_e1b","DR2012_e1b_18",376,"Words",1,4,"466","399","Include"
"DR2012_e1b","DR2012_e1b_18",377,"Words",1,5,"576","346","Include"
"DR2012_e1b","DR2012_e1b_18",378,"Words",1,2,"1261","237","Include"
"DR2012_e1b","DR2012_e1b_18",379,"Words",0,1,"1764","385","Include"
"DR2012_e1b","DR2012_e1b_18",380,"Words",0,1,"1202","308","Include"
"DR2012_e1b","DR2012_e1b_18",381,"Words",0,1,"968","355","Include"
"DR2012_e1b","DR2012_e1b_18",382,"Words",1,1,"533","273","Include"
"DR2012_e1b","DR2012_e1b_18",383,"Words",1,3,"1942","189","Include"
"DR2012_e1b","DR2012_e1b_18",384,"Words",1,6,"1748","243","Include"
"DR2012_e1b","DR2012_e1b_18",385,"Words",0,6,"1240","281","Include"
"DR2012_e1b","DR2012_e1b_18",386,"Words",1,6,"671","228","Include"
"DR2012_e1b","DR2012_e1b_18",387,"Words",1,2,"3692","352","Include"
"DR2012_e1b","DR2012_e1b_18",388,"Words",0,2,"626","266","Include"
"DR2012_e1b","DR2012_e1b_18",389,"Words",0,2,"656","167","Include"
"DR2012_e1b","DR2012_e1b_18",390,"Words",1,3,"881","190","Include"
"DR2012_e1b","DR2012_e1b_18",391,"Words",1,3,"600","2529","Include"
"DR2012_e1b","DR2012_e1b_18",392,"Words",0,3,"768","420","Include"
"DR2012_e1b","DR2012_e1b_18",393,"Words",1,3,"723","296","Include"
"DR2012_e1b","DR2012_e1b_18",394,"Words",1,6,"1581","400","Include"
"DR2012_e1b","DR2012_e1b_18",395,"Words",1,5,"881","223","Include"
"DR2012_e1b","DR2012_e1b_18",396,"Words",1,6,"886","532","Include"
"DR2012_e1b","DR2012_e1b_18",397,"Words",0,3,"1296","286","Include"
"DR2012_e1b","DR2012_e1b_18",398,"Words",1,3,"948","287","Include"
"DR2012_e1b","DR2012_e1b_18",399,"Words",0,1,"804","1253","Include"
"DR2012_e1b","DR2012_e1b_18",400,"Words",0,5,"2375","268","Include"
"DR2012_e1b","DR2012_e1b_26",1,"Words",0,5,"4120","4799","Include"
"DR2012_e1b","DR2012_e1b_26",2,"Words",0,5,"6970","861","Include"
"DR2012_e1b","DR2012_e1b_26",3,"Words",1,5,"1689","437","Include"
"DR2012_e1b","DR2012_e1b_26",4,"Words",0,6,"2545","665","Include"
"DR2012_e1b","DR2012_e1b_26",5,"Words",1,6,"1982","332","Include"
"DR2012_e1b","DR2012_e1b_26",6,"Words",1,6,"1086","306","Include"
"DR2012_e1b","DR2012_e1b_26",7,"Words",0,3,"2277","2359","Include"
"DR2012_e1b","DR2012_e1b_26",8,"Words",0,5,"2790","1364","Include"
"DR2012_e1b","DR2012_e1b_26",9,"Words",0,1,"1404","1154","Include"
"DR2012_e1b","DR2012_e1b_26",10,"Words",1,1,"1618","831","Include"
"DR2012_e1b","DR2012_e1b_26",11,"Words",0,1,"1053","513","Include"
"DR2012_e1b","DR2012_e1b_26",12,"Words",0,2,"2572","914","Include"
"DR2012_e1b","DR2012_e1b_26",13,"Words",0,4,"2637","640","Include"
"DR2012_e1b","DR2012_e1b_26",14,"Words",0,3,"2181","1020","Include"
"DR2012_e1b","DR2012_e1b_26",15,"Words",1,2,"1362","314","Include"
"DR2012_e1b","DR2012_e1b_26",16,"Words",0,2,"4317","268","Include"
"DR2012_e1b","DR2012_e1b_26",17,"Words",1,5,"2880","746","Include"
"DR2012_e1b","DR2012_e1b_26",18,"Words",1,6,"1564","459","Include"
"DR2012_e1b","DR2012_e1b_26",19,"Words",1,6,"1400","271","Include"
"DR2012_e1b","DR2012_e1b_26",20,"Words",1,1,"1971","546","Include"
"DR2012_e1b","DR2012_e1b_26",21,"Words",0,5,"2284","318","Include"
"DR2012_e1b","DR2012_e1b_26",22,"Words",0,5,"1744","313","Include"
"DR2012_e1b","DR2012_e1b_26",23,"Words",0,6,"1804","321","Include"
"DR2012_e1b","DR2012_e1b_26",24,"Words",1,6,"1060","232","Include"
"DR2012_e1b","DR2012_e1b_26",25,"Words",1,6,"1070","658","Include"
"DR2012_e1b","DR2012_e1b_26",26,"Words",1,6,"807","261","Include"
"DR2012_e1b","DR2012_e1b_26",27,"Words",0,5,"2298","396","Include"
"DR2012_e1b","DR2012_e1b_26",28,"Words",0,1,"1548","332","Include"
"DR2012_e1b","DR2012_e1b_26",29,"Words",1,2,"1710","200","Include"
"DR2012_e1b","DR2012_e1b_26",30,"Words",0,3,"1184","175","Include"
"DR2012_e1b","DR2012_e1b_26",31,"Words",1,6,"1208","182","Include"
"DR2012_e1b","DR2012_e1b_26",32,"Words",1,5,"2318","207","Include"
"DR2012_e1b","DR2012_e1b_26",33,"Words",1,5,"2438","626","Include"
"DR2012_e1b","DR2012_e1b_26",34,"Words",0,2,"1256","484","Include"
"DR2012_e1b","DR2012_e1b_26",35,"Words",1,6,"1376","199","Include"
"DR2012_e1b","DR2012_e1b_26",36,"Words",0,2,"1903","305","Include"
"DR2012_e1b","DR2012_e1b_26",37,"Words",1,6,"1044","185","Include"
"DR2012_e1b","DR2012_e1b_26",38,"Words",0,6,"1152","193","Include"
"DR2012_e1b","DR2012_e1b_26",39,"Words",0,6,"1192","167","Include"
"DR2012_e1b","DR2012_e1b_26",40,"Words",1,5,"2848","203","Include"
"DR2012_e1b","DR2012_e1b_26",41,"Words",1,6,"946","155","Include"
"DR2012_e1b","DR2012_e1b_26",42,"Words",1,5,"1012","283","Include"
"DR2012_e1b","DR2012_e1b_26",43,"Words",1,3,"3183","93","Include"
"DR2012_e1b","DR2012_e1b_26",44,"Words",0,2,"1465","157","Include"
"DR2012_e1b","DR2012_e1b_26",45,"Words",1,6,"1861","185","Include"
"DR2012_e1b","DR2012_e1b_26",46,"Words",1,2,"1888","146","Include"
"DR2012_e1b","DR2012_e1b_26",47,"Words",1,6,"1660","168","Include"
"DR2012_e1b","DR2012_e1b_26",48,"Words",1,6,"944","154","Include"
"DR2012_e1b","DR2012_e1b_26",49,"Words",0,2,"1843","87","Include"
"DR2012_e1b","DR2012_e1b_26",50,"Words",0,2,"1059","103","Include"
"DR2012_e1b","DR2012_e1b_26",51,"Words",1,2,"1650","94","Include"
"DR2012_e1b","DR2012_e1b_26",52,"Words",0,2,"1291","85","Include"
"DR2012_e1b","DR2012_e1b_26",53,"Words",0,6,"1777","200","Include"
"DR2012_e1b","DR2012_e1b_26",54,"Words",1,5,"879","251","Include"
"DR2012_e1b","DR2012_e1b_26",55,"Words",1,2,"1168","96","Include"
"DR2012_e1b","DR2012_e1b_26",56,"Words",0,2,"1308","86","Include"
"DR2012_e1b","DR2012_e1b_26",57,"Words",0,2,"978","105","Include"
"DR2012_e1b","DR2012_e1b_26",58,"Words",0,6,"2133","141","Include"
"DR2012_e1b","DR2012_e1b_26",59,"Words",1,6,"791","86","Include"
"DR2012_e1b","DR2012_e1b_26",60,"Words",1,2,"1298","77","Include"
"DR2012_e1b","DR2012_e1b_26",61,"Words",0,2,"1674","69","Include"
"DR2012_e1b","DR2012_e1b_26",62,"Words",0,2,"1425","71","Include"
"DR2012_e1b","DR2012_e1b_26",63,"Words",1,6,"1123","117","Include"
"DR2012_e1b","DR2012_e1b_26",64,"Words",0,6,"911","58","Include"
"DR2012_e1b","DR2012_e1b_26",65,"Words",1,2,"1223","69","Include"
"DR2012_e1b","DR2012_e1b_26",66,"Words",0,2,"929","75","Include"
"DR2012_e1b","DR2012_e1b_26",67,"Words",0,2,"1623","37","Include"
"DR2012_e1b","DR2012_e1b_26",68,"Words",1,6,"2227","55","Include"
"DR2012_e1b","DR2012_e1b_26",69,"Words",1,5,"1380","140","Include"
"DR2012_e1b","DR2012_e1b_26",70,"Words",0,2,"998","109","Include"
"DR2012_e1b","DR2012_e1b_26",71,"Words",1,2,"1080","91","Include"
"DR2012_e1b","DR2012_e1b_26",72,"Words",1,6,"967","207","Include"
"DR2012_e1b","DR2012_e1b_26",73,"Words",0,2,"1014","61","Include"
"DR2012_e1b","DR2012_e1b_26",74,"Words",1,6,"1018","63","Include"
"DR2012_e1b","DR2012_e1b_26",75,"Words",1,6,"1357","69","Include"
"DR2012_e1b","DR2012_e1b_26",76,"Words",1,2,"1057","54","Include"
"DR2012_e1b","DR2012_e1b_26",77,"Words",0,2,"1171","66","Include"
"DR2012_e1b","DR2012_e1b_26",78,"Words",0,1,"2015","92","Include"
"DR2012_e1b","DR2012_e1b_26",79,"Words",0,2,"1192","55","Include"
"DR2012_e1b","DR2012_e1b_26",80,"Words",0,1,"1620","114","Include"
"DR2012_e1b","DR2012_e1b_26",81,"Words",1,2,"3177","119","Include"
"DR2012_e1b","DR2012_e1b_26",82,"Words",1,6,"1169","81","Include"
"DR2012_e1b","DR2012_e1b_26",83,"Words",1,6,"814","60","Include"
"DR2012_e1b","DR2012_e1b_26",84,"Words",1,6,"857","54","Include"
"DR2012_e1b","DR2012_e1b_26",85,"Words",1,2,"787","130","Include"
"DR2012_e1b","DR2012_e1b_26",86,"Words",1,6,"1053","49","Include"
"DR2012_e1b","DR2012_e1b_26",87,"Words",1,2,"1583","126","Include"
"DR2012_e1b","DR2012_e1b_26",88,"Words",1,6,"984","1295","Include"
"DR2012_e1b","DR2012_e1b_26",89,"Words",1,6,"922","68","Include"
"DR2012_e1b","DR2012_e1b_26",90,"Words",1,6,"1408","278","Include"
"DR2012_e1b","DR2012_e1b_26",91,"Words",1,6,"603","113","Include"
"DR2012_e1b","DR2012_e1b_26",92,"Words",1,5,"781","205","Include"
"DR2012_e1b","DR2012_e1b_26",93,"Words",1,2,"1252","112","Include"
"DR2012_e1b","DR2012_e1b_26",94,"Words",1,2,"827","121","Include"
"DR2012_e1b","DR2012_e1b_26",95,"Words",1,2,"1012","122","Include"
"DR2012_e1b","DR2012_e1b_26",96,"Words",1,6,"1188","19","Include"
"DR2012_e1b","DR2012_e1b_26",97,"Words",1,6,"818","32","Include"
"DR2012_e1b","DR2012_e1b_26",98,"Words",1,2,"814","93","Include"
"DR2012_e1b","DR2012_e1b_26",99,"Words",1,2,"825","103","Include"
"DR2012_e1b","DR2012_e1b_26",100,"Words",1,2,"946","91","Include"
"DR2012_e1b","DR2012_e1b_26",101,"Words",1,6,"1511","73","Include"
"DR2012_e1b","DR2012_e1b_26",102,"Words",1,2,"949","63","Include"
"DR2012_e1b","DR2012_e1b_26",103,"Words",1,2,"1052","96","Include"
"DR2012_e1b","DR2012_e1b_26",104,"Words",1,2,"716","95","Include"
"DR2012_e1b","DR2012_e1b_26",105,"Words",1,2,"651","95","Include"
"DR2012_e1b","DR2012_e1b_26",106,"Words",1,6,"1163","75","Include"
"DR2012_e1b","DR2012_e1b_26",107,"Words",1,2,"936","113","Include"
"DR2012_e1b","DR2012_e1b_26",108,"Words",1,6,"924","70","Include"
"DR2012_e1b","DR2012_e1b_26",109,"Words",1,6,"931","92","Include"
"DR2012_e1b","DR2012_e1b_26",110,"Words",1,6,"792","56","Include"
"DR2012_e1b","DR2012_e1b_26",111,"Words",1,6,"1253","49","Include"
"DR2012_e1b","DR2012_e1b_26",112,"Words",1,6,"894","73","Include"
"DR2012_e1b","DR2012_e1b_26",113,"Words",1,2,"774","118","Include"
"DR2012_e1b","DR2012_e1b_26",114,"Words",1,2,"1104","83","Include"
"DR2012_e1b","DR2012_e1b_26",115,"Words",1,2,"1007","86","Include"
"DR2012_e1b","DR2012_e1b_26",116,"Words",1,5,"1617","287","Include"
"DR2012_e1b","DR2012_e1b_26",117,"Words",1,2,"2931","91","Include"
"DR2012_e1b","DR2012_e1b_26",118,"Words",1,6,"1175","54","Include"
"DR2012_e1b","DR2012_e1b_26",119,"Words",1,2,"740","53","Include"
"DR2012_e1b","DR2012_e1b_26",120,"Words",1,6,"786","49","Include"
"DR2012_e1b","DR2012_e1b_26",121,"Words",0,2,"1135","112","Include"
"DR2012_e1b","DR2012_e1b_26",122,"Words",0,2,"795","122","Include"
"DR2012_e1b","DR2012_e1b_26",123,"Words",0,2,"2053","64","Include"
"DR2012_e1b","DR2012_e1b_26",124,"Words",0,2,"733","47","Include"
"DR2012_e1b","DR2012_e1b_26",125,"Words",0,2,"2445","137","Include"
"DR2012_e1b","DR2012_e1b_26",126,"Words",0,2,"771","67","Include"
"DR2012_e1b","DR2012_e1b_26",127,"Words",0,2,"735","112","Include"
"DR2012_e1b","DR2012_e1b_26",128,"Words",0,2,"620","50","Include"
"DR2012_e1b","DR2012_e1b_26",129,"Words",0,2,"527","57","Include"
"DR2012_e1b","DR2012_e1b_26",130,"Words",0,2,"438","68","Include"
"DR2012_e1b","DR2012_e1b_26",131,"Words",0,2,"1121","66","Include"
"DR2012_e1b","DR2012_e1b_26",132,"Words",0,6,"911","74","Include"
"DR2012_e1b","DR2012_e1b_26",133,"Words",0,2,"310","105","Include"
"DR2012_e1b","DR2012_e1b_26",134,"Words",0,2,"1589","163","Include"
"DR2012_e1b","DR2012_e1b_26",135,"Words",0,6,"876","120","Include"
"DR2012_e1b","DR2012_e1b_26",136,"Words",0,6,"979","74","Include"
"DR2012_e1b","DR2012_e1b_26",137,"Words",0,2,"646","92","Include"
"DR2012_e1b","DR2012_e1b_26",138,"Words",0,2,"791","150","Include"
"DR2012_e1b","DR2012_e1b_26",139,"Words",0,6,"897","843","Include"
"DR2012_e1b","DR2012_e1b_26",140,"Words",0,2,"728","106","Include"
"DR2012_e1b","DR2012_e1b_26",141,"Words",0,6,"1205","51","Include"
"DR2012_e1b","DR2012_e1b_26",142,"Words",0,2,"1121","98","Include"
"DR2012_e1b","DR2012_e1b_26",143,"Words",0,2,"2254","113","Include"
"DR2012_e1b","DR2012_e1b_26",144,"Words",0,2,"1452","80","Include"
"DR2012_e1b","DR2012_e1b_26",145,"Words",0,6,"1245","810","Include"
"DR2012_e1b","DR2012_e1b_26",146,"Words",0,2,"664","93","Include"
"DR2012_e1b","DR2012_e1b_26",147,"Words",0,2,"873","101","Include"
"DR2012_e1b","DR2012_e1b_26",148,"Words",0,2,"944","57","Include"
"DR2012_e1b","DR2012_e1b_26",149,"Words",0,2,"950","95","Include"
"DR2012_e1b","DR2012_e1b_26",150,"Words",0,2,"1163","75","Include"
"DR2012_e1b","DR2012_e1b_26",151,"Words",0,2,"919","113","Include"
"DR2012_e1b","DR2012_e1b_26",152,"Words",0,6,"892","136","Include"
"DR2012_e1b","DR2012_e1b_26",153,"Words",0,2,"769","97","Include"
"DR2012_e1b","DR2012_e1b_26",154,"Words",0,2,"685","97","Include"
"DR2012_e1b","DR2012_e1b_26",155,"Words",0,6,"2061","120","Include"
"DR2012_e1b","DR2012_e1b_26",156,"Words",0,2,"962","91","Include"
"DR2012_e1b","DR2012_e1b_26",157,"Words",0,2,"711","105","Include"
"DR2012_e1b","DR2012_e1b_26",158,"Words",0,2,"677","89","Include"
"DR2012_e1b","DR2012_e1b_26",159,"Words",0,2,"2005","82","Include"
"DR2012_e1b","DR2012_e1b_26",160,"Words",0,2,"1390","53","Include"
"DR2012_e1b","DR2012_e1b_26",161,"Words",1,2,"3044","86","Include"
"DR2012_e1b","DR2012_e1b_26",162,"Words",0,5,"1650","319","Include"
"DR2012_e1b","DR2012_e1b_26",163,"Words",1,2,"1010","215","Include"
"DR2012_e1b","DR2012_e1b_26",164,"Words",0,2,"1710","137","Include"
"DR2012_e1b","DR2012_e1b_26",165,"Words",0,2,"738","83","Include"
"DR2012_e1b","DR2012_e1b_26",166,"Words",0,6,"975","70","Include"
"DR2012_e1b","DR2012_e1b_26",167,"Words",1,6,"931","61","Include"
"DR2012_e1b","DR2012_e1b_26",168,"Words",0,2,"922","101","Include"
"DR2012_e1b","DR2012_e1b_26",169,"Words",0,2,"1103","129","Include"
"DR2012_e1b","DR2012_e1b_26",170,"Words",0,1,"2236","96","Include"
"DR2012_e1b","DR2012_e1b_26",171,"Words",1,6,"1068","271","Include"
"DR2012_e1b","DR2012_e1b_26",172,"Words",0,5,"1764","187","Include"
"DR2012_e1b","DR2012_e1b_26",173,"Words",0,1,"835","320","Include"
"DR2012_e1b","DR2012_e1b_26",174,"Words",1,6,"1091","230","Include"
"DR2012_e1b","DR2012_e1b_26",175,"Words",1,6,"796","171","Include"
"DR2012_e1b","DR2012_e1b_26",176,"Words",1,6,"628","154","Include"
"DR2012_e1b","DR2012_e1b_26",177,"Words",0,2,"867","111","Include"
"DR2012_e1b","DR2012_e1b_26",178,"Words",0,2,"1338","99","Include"
"DR2012_e1b","DR2012_e1b_26",179,"Words",1,6,"718","81","Include"
"DR2012_e1b","DR2012_e1b_26",180,"Words",0,2,"829","107","Include"
"DR2012_e1b","DR2012_e1b_26",181,"Words",0,2,"1382","142","Include"
"DR2012_e1b","DR2012_e1b_26",182,"Words",0,6,"808","150","Include"
"DR2012_e1b","DR2012_e1b_26",183,"Words",1,6,"655","100","Include"
"DR2012_e1b","DR2012_e1b_26",184,"Words",1,6,"623","53","Include"
"DR2012_e1b","DR2012_e1b_26",185,"Words",1,6,"770","66","Include"
"DR2012_e1b","DR2012_e1b_26",186,"Words",0,6,"1167","79","Include"
"DR2012_e1b","DR2012_e1b_26",187,"Words",0,2,"780","60","Include"
"DR2012_e1b","DR2012_e1b_26",188,"Words",1,2,"1945","89","Include"
"DR2012_e1b","DR2012_e1b_26",189,"Words",0,2,"1205","115","Include"
"DR2012_e1b","DR2012_e1b_26",190,"Words",0,1,"1214","205","Include"
"DR2012_e1b","DR2012_e1b_26",191,"Words",0,1,"2532","92","Include"
"DR2012_e1b","DR2012_e1b_26",192,"Words",0,6,"1672","115","Include"
"DR2012_e1b","DR2012_e1b_26",193,"Words",1,6,"1182","142","Include"
"DR2012_e1b","DR2012_e1b_26",194,"Words",1,2,"872","2083","Include"
"DR2012_e1b","DR2012_e1b_26",195,"Words",1,6,"846","123","Include"
"DR2012_e1b","DR2012_e1b_26",196,"Words",1,6,"742","119","Include"
"DR2012_e1b","DR2012_e1b_26",197,"Words",0,2,"802","112","Include"
"DR2012_e1b","DR2012_e1b_26",198,"Words",0,2,"1099","126","Include"
"DR2012_e1b","DR2012_e1b_26",199,"Words",1,6,"777","137","Include"
"DR2012_e1b","DR2012_e1b_26",200,"Words",0,2,"835","96","Include"
"DR2012_e1b","DR2012_e1b_26",201,"Words",0,1,"2092","102","Include"
"DR2012_e1b","DR2012_e1b_26",202,"Words",1,6,"801","79","Include"
"DR2012_e1b","DR2012_e1b_26",203,"Words",1,6,"732","94","Include"
"DR2012_e1b","DR2012_e1b_26",204,"Words",0,6,"778","74","Include"
"DR2012_e1b","DR2012_e1b_26",205,"Words",0,6,"694","90","Include"
"DR2012_e1b","DR2012_e1b_26",206,"Words",0,2,"742","87","Include"
"DR2012_e1b","DR2012_e1b_26",207,"Words",1,6,"1059","87","Include"
"DR2012_e1b","DR2012_e1b_26",208,"Words",1,6,"899","94","Include"
"DR2012_e1b","DR2012_e1b_26",209,"Words",0,6,"746","75","Include"
"DR2012_e1b","DR2012_e1b_26",210,"Words",1,6,"776","88","Include"
"DR2012_e1b","DR2012_e1b_26",211,"Words",0,2,"724","134","Include"
"DR2012_e1b","DR2012_e1b_26",212,"Words",1,6,"704","50","Include"
"DR2012_e1b","DR2012_e1b_26",213,"Words",1,6,"1072","35","Include"
"DR2012_e1b","DR2012_e1b_26",214,"Words",1,2,"641","103","Include"
"DR2012_e1b","DR2012_e1b_26",215,"Words",1,6,"1554","66","Include"
"DR2012_e1b","DR2012_e1b_26",216,"Words",1,6,"927","57","Include"
"DR2012_e1b","DR2012_e1b_26",217,"Words",0,1,"1702","96","Include"
"DR2012_e1b","DR2012_e1b_26",218,"Words",0,1,"731","77","Include"
"DR2012_e1b","DR2012_e1b_26",219,"Words",1,6,"714","93","Include"
"DR2012_e1b","DR2012_e1b_26",220,"Words",1,6,"937","66","Include"
"DR2012_e1b","DR2012_e1b_26",221,"Words",0,2,"911","137","Include"
"DR2012_e1b","DR2012_e1b_26",222,"Words",1,2,"1059","120","Include"
"DR2012_e1b","DR2012_e1b_26",223,"Words",1,6,"1234","95","Include"
"DR2012_e1b","DR2012_e1b_26",224,"Words",1,6,"1339","532","Include"
"DR2012_e1b","DR2012_e1b_26",225,"Words",1,6,"2526","215","Include"
"DR2012_e1b","DR2012_e1b_26",226,"Words",1,1,"830","124","Include"
"DR2012_e1b","DR2012_e1b_26",227,"Words",1,6,"1030","220","Include"
"DR2012_e1b","DR2012_e1b_26",228,"Words",0,1,"1394","201","Include"
"DR2012_e1b","DR2012_e1b_26",229,"Words",0,1,"912","203","Include"
"DR2012_e1b","DR2012_e1b_26",230,"Words",0,1,"802","176","Include"
"DR2012_e1b","DR2012_e1b_26",231,"Words",0,6,"1753","112","Include"
"DR2012_e1b","DR2012_e1b_26",232,"Words",0,5,"876","167","Include"
"DR2012_e1b","DR2012_e1b_26",233,"Words",1,1,"1760","328","Include"
"DR2012_e1b","DR2012_e1b_26",234,"Words",1,1,"906","132","Include"
"DR2012_e1b","DR2012_e1b_26",235,"Words",1,6,"831","205","Include"
"DR2012_e1b","DR2012_e1b_26",236,"Words",0,1,"900","207","Include"
"DR2012_e1b","DR2012_e1b_26",237,"Words",0,1,"982","126","Include"
"DR2012_e1b","DR2012_e1b_26",238,"Words",0,1,"1304","146","Include"
"DR2012_e1b","DR2012_e1b_26",239,"Words",1,6,"988","99","Include"
"DR2012_e1b","DR2012_e1b_26",240,"Words",1,6,"1247","76","Include"
"DR2012_e1b","DR2012_e1b_26",241,"Words",1,6,"5461","85","Include"
"DR2012_e1b","DR2012_e1b_26",242,"Words",1,2,"1169","369","Include"
"DR2012_e1b","DR2012_e1b_26",243,"Words",0,2,"1633","126","Include"
"DR2012_e1b","DR2012_e1b_26",244,"Words",1,6,"681","285","Include"
"DR2012_e1b","DR2012_e1b_26",245,"Words",0,2,"817","175","Include"
"DR2012_e1b","DR2012_e1b_26",246,"Words",1,2,"792","135","Include"
"DR2012_e1b","DR2012_e1b_26",247,"Words",1,6,"769","81","Include"
"DR2012_e1b","DR2012_e1b_26",248,"Words",1,2,"765","142","Include"
"DR2012_e1b","DR2012_e1b_26",249,"Words",0,1,"1080","171","Include"
"DR2012_e1b","DR2012_e1b_26",250,"Words",1,6,"1252","112","Include"
"DR2012_e1b","DR2012_e1b_26",251,"Words",0,6,"747","60","Include"
"DR2012_e1b","DR2012_e1b_26",252,"Words",0,6,"714","108","Include"
"DR2012_e1b","DR2012_e1b_26",253,"Words",1,2,"600","111","Include"
"DR2012_e1b","DR2012_e1b_26",254,"Words",1,2,"650","95","Include"
"DR2012_e1b","DR2012_e1b_26",255,"Words",1,6,"619","98","Include"
"DR2012_e1b","DR2012_e1b_26",256,"Words",1,6,"957","70","Include"
"DR2012_e1b","DR2012_e1b_26",257,"Words",1,2,"658","55","Include"
"DR2012_e1b","DR2012_e1b_26",258,"Words",0,2,"1044","89","Include"
"DR2012_e1b","DR2012_e1b_26",259,"Words",1,2,"1013","76","Include"
"DR2012_e1b","DR2012_e1b_26",260,"Words",0,6,"616","79","Include"
"DR2012_e1b","DR2012_e1b_26",261,"Words",1,2,"940","101","Include"
"DR2012_e1b","DR2012_e1b_26",262,"Words",1,2,"928","122","Include"
"DR2012_e1b","DR2012_e1b_26",263,"Words",1,6,"1316","78","Include"
"DR2012_e1b","DR2012_e1b_26",264,"Words",0,2,"939","68","Include"
"DR2012_e1b","DR2012_e1b_26",265,"Words",0,2,"849","142","Include"
"DR2012_e1b","DR2012_e1b_26",266,"Words",1,2,"712","106","Include"
"DR2012_e1b","DR2012_e1b_26",267,"Words",0,2,"1413","107","Include"
"DR2012_e1b","DR2012_e1b_26",268,"Words",1,6,"1159","102","Include"
"DR2012_e1b","DR2012_e1b_26",269,"Words",0,2,"1297","61","Include"
"DR2012_e1b","DR2012_e1b_26",270,"Words",0,2,"1065","77","Include"
"DR2012_e1b","DR2012_e1b_26",271,"Words",0,6,"986","65","Include"
"DR2012_e1b","DR2012_e1b_26",272,"Words",1,6,"830","92","Include"
"DR2012_e1b","DR2012_e1b_26",273,"Words",0,2,"696","91","Include"
"DR2012_e1b","DR2012_e1b_26",274,"Words",0,6,"807","70","Include"
"DR2012_e1b","DR2012_e1b_26",275,"Words",0,2,"738","117","Include"
"DR2012_e1b","DR2012_e1b_26",276,"Words",0,2,"654","67","Include"
"DR2012_e1b","DR2012_e1b_26",277,"Words",1,2,"656","116","Include"
"DR2012_e1b","DR2012_e1b_26",278,"Words",1,2,"479","91","Include"
"DR2012_e1b","DR2012_e1b_26",279,"Words",0,2,"727","57","Include"
"DR2012_e1b","DR2012_e1b_26",280,"Words",0,2,"406","69","Include"
"DR2012_e1b","DR2012_e1b_26",281,"Words",0,6,"1522","83","Include"
"DR2012_e1b","DR2012_e1b_26",282,"Words",1,6,"1167","94","Include"
"DR2012_e1b","DR2012_e1b_26",283,"Words",1,5,"1499","77","Include"
"DR2012_e1b","DR2012_e1b_26",284,"Words",0,6,"1450","46","Include"
"DR2012_e1b","DR2012_e1b_26",285,"Words",0,2,"1469","96","Include"
"DR2012_e1b","DR2012_e1b_26",286,"Words",1,6,"956","52","Include"
"DR2012_e1b","DR2012_e1b_26",287,"Words",0,2,"753","66","Include"
"DR2012_e1b","DR2012_e1b_26",288,"Words",1,2,"1519","304","Include"
"DR2012_e1b","DR2012_e1b_26",289,"Words",0,1,"995","122","Include"
"DR2012_e1b","DR2012_e1b_26",290,"Words",0,5,"964","301","Include"
"DR2012_e1b","DR2012_e1b_26",291,"Words",1,5,"1136","193","Include"
"DR2012_e1b","DR2012_e1b_26",292,"Words",0,1,"697","204","Include"
"DR2012_e1b","DR2012_e1b_26",293,"Words",0,6,"1155","3","Include"
"DR2012_e1b","DR2012_e1b_26",294,"Words",1,2,"835","80","Include"
"DR2012_e1b","DR2012_e1b_26",295,"Words",1,6,"1308","102","Include"
"DR2012_e1b","DR2012_e1b_26",296,"Words",0,5,"1522","339","Include"
"DR2012_e1b","DR2012_e1b_26",297,"Words",1,2,"1157","341","Include"
"DR2012_e1b","DR2012_e1b_26",298,"Words",0,1,"2118","623","Include"
"DR2012_e1b","DR2012_e1b_26",299,"Words",1,6,"1125","103","Include"
"DR2012_e1b","DR2012_e1b_26",300,"Words",1,6,"754","83","Include"
"DR2012_e1b","DR2012_e1b_26",301,"Words",0,6,"878","91","Include"
