"exp","id","item","isold","condition1","rating","RT","excluding","trial"
"DW2020_e1","DW2020_e1_1","SECRETARY",1,"DemandInstructions",6,4053.578,"Include",1
"DW2020_e1","DW2020_e1_1","PATTERN",1,"DemandInstructions",6,1323.156,"Include",2
"DW2020_e1","DW2020_e1_1","DIVISION",0,"DemandInstructions",1,1354.724,"Include",3
"DW2020_e1","DW2020_e1_1","NUMBER",1,"DemandInstructions",6,1680.723,"Include",4
"DW2020_e1","DW2020_e1_1","HANDS",1,"DemandInstructions",6,1127.584,"Include",5
"DW2020_e1","DW2020_e1_1","INFLUENCE",1,"DemandInstructions",5,3726.643,"Include",6
"DW2020_e1","DW2020_e1_1","AMERICA",1,"DemandInstructions",6,1219.81,"Include",7
"DW2020_e1","DW2020_e1_1","TAX",1,"DemandInstructions",6,1279.52,"Include",8
"DW2020_e1","DW2020_e1_1","POPULATION",0,"DemandInstructions",1,1105.66,"Include",9
"DW2020_e1","DW2020_e1_1","FAMILY",1,"DemandInstructions",4,5825.085,"Include",10
"DW2020_e1","DW2020_e1_1","INFORMATION",1,"DemandInstructions",5,3438.411,"Include",11
"DW2020_e1","DW2020_e1_1","STORY",1,"DemandInstructions",6,926.7041,"Include",12
"DW2020_e1","DW2020_e1_1","TRIAL",0,"DemandInstructions",1,872.259,"Include",13
"DW2020_e1","DW2020_e1_1","MASS",1,"DemandInstructions",6,961.743,"Include",14
"DW2020_e1","DW2020_e1_1","ROAD",0,"DemandInstructions",4,5304.267,"Include",15
"DW2020_e1","DW2020_e1_1","SUNDAY",0,"DemandInstructions",1,1289.144,"Include",16
"DW2020_e1","DW2020_e1_1","WORDS",0,"DemandInstructions",2,3362.116,"Include",17
"DW2020_e1","DW2020_e1_1","CLUB",0,"DemandInstructions",1,1386.912,"Include",18
"DW2020_e1","DW2020_e1_1","SON",1,"DemandInstructions",6,846.2447,"Include",19
"DW2020_e1","DW2020_e1_1","TEN",1,"DemandInstructions",6,2034.754,"Include",20
"DW2020_e1","DW2020_e1_1","WOMEN",1,"DemandInstructions",6,878.4862,"Include",21
"DW2020_e1","DW2020_e1_1","CORNER",0,"DemandInstructions",1,992.0943,"Include",22
"DW2020_e1","DW2020_e1_1","UNIT",1,"DemandInstructions",1,1365.352,"Include",23
"DW2020_e1","DW2020_e1_1","DIFFERENCE",1,"DemandInstructions",6,851.6818,"Include",24
"DW2020_e1","DW2020_e1_1","QUALITY",0,"DemandInstructions",1,879.658,"Include",25
"DW2020_e1","DW2020_e1_1","FIELD",0,"DemandInstructions",2,2066.009,"Include",26
"DW2020_e1","DW2020_e1_1","BOARD",0,"DemandInstructions",1,1416.634,"Include",27
"DW2020_e1","DW2020_e1_1","EYES",1,"DemandInstructions",1,1019.165,"Include",28
"DW2020_e1","DW2020_e1_1","FEAR",0,"DemandInstructions",1,964.8963,"Include",29
"DW2020_e1","DW2020_e1_1","WATER",0,"DemandInstructions",1,1412.028,"Include",30
"DW2020_e1","DW2020_e1_1","ANALYSIS",0,"DemandInstructions",1,1055.49,"Include",31
"DW2020_e1","DW2020_e1_1","INCOME",1,"DemandInstructions",6,1008.633,"Include",32
"DW2020_e1","DW2020_e1_1","PERIOD",0,"DemandInstructions",1,2054.24,"Include",33
"DW2020_e1","DW2020_e1_1","WINDOW",1,"DemandInstructions",6,704.3307,"Include",34
"DW2020_e1","DW2020_e1_1","DATA",0,"DemandInstructions",1,1137.67,"Include",35
"DW2020_e1","DW2020_e1_1","FORCE",1,"DemandInstructions",1,2023.688,"Include",36
"DW2020_e1","DW2020_e1_1","AUDIENCE",0,"DemandInstructions",2,4833.544,"Include",37
"DW2020_e1","DW2020_e1_1","LETTERS",1,"DemandInstructions",6,1076.208,"Include",38
"DW2020_e1","DW2020_e1_1","LENGTH",0,"DemandInstructions",1,1069.74,"Include",39
"DW2020_e1","DW2020_e1_1","MONTH",0,"DemandInstructions",1,861.593,"Include",40
"DW2020_e1","DW2020_e1_1","TEST",1,"DemandInstructions",6,751.9157,"Include",41
"DW2020_e1","DW2020_e1_1","ISLAND",0,"DemandInstructions",1,758.5984,"Include",42
"DW2020_e1","DW2020_e1_1","AGE",1,"DemandInstructions",6,2573.746,"Include",43
"DW2020_e1","DW2020_e1_1","LOT",1,"DemandInstructions",6,977.4369,"Include",44
"DW2020_e1","DW2020_e1_1","BIT",1,"DemandInstructions",6,943.5461,"Include",45
"DW2020_e1","DW2020_e1_1","BUILDING",1,"DemandInstructions",6,1231.39,"Include",46
"DW2020_e1","DW2020_e1_1","FUTURE",1,"DemandInstructions",5,2203.611,"Include",47
"DW2020_e1","DW2020_e1_1","MOMENT",0,"DemandInstructions",1,1414.365,"Include",48
"DW2020_e1","DW2020_e1_1","NEWS",1,"DemandInstructions",6,1081.522,"Include",49
"DW2020_e1","DW2020_e1_1","AREA",0,"DemandInstructions",2,2163.6,"Include",50
"DW2020_e1","DW2020_e1_1","METHOD",0,"DemandInstructions",1,1888.008,"Include",51
"DW2020_e1","DW2020_e1_1","SIX",0,"DemandInstructions",1,1609.157,"Include",52
"DW2020_e1","DW2020_e1_1","ISSUE",1,"DemandInstructions",5,3443.391,"Include",53
"DW2020_e1","DW2020_e1_1","WRITING",0,"DemandInstructions",1,3298.117,"Include",54
"DW2020_e1","DW2020_e1_1","ORDER",0,"DemandInstructions",1,1440.513,"Include",55
"DW2020_e1","DW2020_e1_1","OPERATION",1,"DemandInstructions",6,1091.242,"Include",56
"DW2020_e1","DW2020_e1_1","HOT DOGS",0,"DemandInstructions",1,1069.219,"Include",57
"DW2020_e1","DW2020_e1_1","HAND",0,"DemandInstructions",6,1440.6,"Include",58
"DW2020_e1","DW2020_e1_1","GROUP",0,"DemandInstructions",5,2747.851,"Include",59
"DW2020_e1","DW2020_e1_1","SPACE",1,"DemandInstructions",6,783.9783,"Include",60
"DW2020_e1","DW2020_e1_1","PEOPLE",0,"DemandInstructions",5,4334.808,"Include",61
"DW2020_e1","DW2020_e1_1","LIGHT",0,"DemandInstructions",1,1087.501,"Include",62
"DW2020_e1","DW2020_e1_1","MORNING",1,"DemandInstructions",6,811.0064,"Include",63
"DW2020_e1","DW2020_e1_1","WIFE",0,"DemandInstructions",1,1440.239,"Include",64
"DW2020_e1","DW2020_e1_1","PERFORMANCE",0,"DemandInstructions",1,2506.909,"Include",65
"DW2020_e1","DW2020_e1_1","CHILDREN",0,"DemandInstructions",2,3111.906,"Include",66
"DW2020_e1","DW2020_e1_1","STOCK",1,"DemandInstructions",6,788.6774,"Include",67
"DW2020_e1","DW2020_e1_1","WELL",1,"DemandInstructions",6,858.0215,"Include",68
"DW2020_e1","DW2020_e1_1","OFFICER",0,"DemandInstructions",1,1643.609,"Include",69
"DW2020_e1","DW2020_e1_1","GROUND",0,"DemandInstructions",2,3253.054,"Include",70
"DW2020_e1","DW2020_e1_1","DOOR",0,"DemandInstructions",1,1226.722,"Include",71
"DW2020_e1","DW2020_e1_1","ACT",0,"DemandInstructions",5,2603.723,"Include",72
"DW2020_e1","DW2020_e1_1","EXISTENCE",1,"DemandInstructions",6,1782.304,"Include",73
"DW2020_e1","DW2020_e1_1","LITERATURE",0,"DemandInstructions",1,1146.049,"Include",74
"DW2020_e1","DW2020_e1_1","GAME",0,"DemandInstructions",1,2041.811,"Include",75
"DW2020_e1","DW2020_e1_1","DEFENSE",0,"DemandInstructions",1,1234.161,"Include",76
"DW2020_e1","DW2020_e1_1","CHILD",1,"DemandInstructions",6,1516.452,"Include",77
"DW2020_e1","DW2020_e1_1","BROWN",1,"DemandInstructions",6,819.5878,"Include",78
"DW2020_e1","DW2020_e1_1","HUSBAND",1,"DemandInstructions",1,1208.471,"Include",79
"DW2020_e1","DW2020_e1_1","SENSE",1,"DemandInstructions",2,1523.566,"Include",80
"DW2020_e1","DW2020_e1_1","NATURE",1,"DemandInstructions",6,1099.502,"Include",81
"DW2020_e1","DW2020_e1_1","STRENGTH",0,"DemandInstructions",2,3597.648,"Include",82
"DW2020_e1","DW2020_e1_1","EFFORT",0,"DemandInstructions",1,980.6564,"Include",83
"DW2020_e1","DW2020_e1_1","VIEW",1,"DemandInstructions",3,5057.5,"Include",84
"DW2020_e1","DW2020_e1_1","SUMMER",0,"DemandInstructions",4,5411.658,"Include",85
"DW2020_e1","DW2020_e1_1","STREET",1,"DemandInstructions",6,1063.014,"Include",86
"DW2020_e1","DW2020_e1_1","YEAR",0,"DemandInstructions",1,1689.662,"Include",87
"DW2020_e1","DW2020_e1_1","ACTION",1,"DemandInstructions",5,1626.67,"Include",88
"DW2020_e1","DW2020_e1_1","TEMPERATURE",1,"DemandInstructions",6,908.9842,"Include",89
"DW2020_e1","DW2020_e1_1","FATHER",0,"DemandInstructions",2,2540.455,"Include",90
"DW2020_e1","DW2020_e1_1","TABLE",0,"DemandInstructions",3,2201.081,"Include",91
"DW2020_e1","DW2020_e1_1","JOB",1,"DemandInstructions",1,2138.144,"Include",92
"DW2020_e1","DW2020_e1_1","DIRECTOR",1,"DemandInstructions",5,3591.863,"Include",93
"DW2020_e1","DW2020_e1_1","STUDY",1,"DemandInstructions",6,1127.691,"Include",94
"DW2020_e1","DW2020_e1_1","PLACE",1,"DemandInstructions",6,885.475,"Include",95
"DW2020_e1","DW2020_e1_1","POSITION",0,"DemandInstructions",1,1415.145,"Include",96
"DW2020_e1","DW2020_e1_1","CENT",1,"DemandInstructions",6,800.5395,"Include",97
"DW2020_e1","DW2020_e1_1","LAW",0,"DemandInstructions",1,1130.161,"Include",98
"DW2020_e1","DW2020_e1_1","PROCESS",1,"DemandInstructions",1,2105.46,"Include",99
"DW2020_e1","DW2020_e1_1","AVERAGE",0,"DemandInstructions",1,991.8194,"Include",100
"DW2020_e1","DW2020_e1_1","CHRISTIAN",1,"DemandInstructions",6,4038.301,"Include",101
"DW2020_e1","DW2020_e1_1","LETTER",0,"DemandInstructions",6,948.5763,"Include",102
"DW2020_e1","DW2020_e1_1","VALUES",1,"DemandInstructions",1,1099.41,"Include",103
"DW2020_e1","DW2020_e1_1","MARKET",0,"DemandInstructions",1,1979.862,"Include",104
"DW2020_e1","DW2020_e1_1","GIRLS",1,"DemandInstructions",6,832.2847,"Include",105
"DW2020_e1","DW2020_e1_1","SERVICE",1,"DemandInstructions",6,947.936,"Include",106
"DW2020_e1","DW2020_e1_1","PLANT",0,"DemandInstructions",2,1490.922,"Include",107
"DW2020_e1","DW2020_e1_1","PRINCIPLE",0,"DemandInstructions",1,1116.201,"Include",108
"DW2020_e1","DW2020_e1_1","CHARACTER",1,"DemandInstructions",2,3067.989,"Include",109
"DW2020_e1","DW2020_e1_1","RIVER",0,"DemandInstructions",1,946.6997,"Include",110
"DW2020_e1","DW2020_e1_1","EIGHT",1,"DemandInstructions",6,923.7816,"Include",111
"DW2020_e1","DW2020_e1_1","WAR",1,"DemandInstructions",1,1516.279,"Include",112
"DW2020_e1","DW2020_e1_1","SOUND",1,"DemandInstructions",1,1637.498,"Include",113
"DW2020_e1","DW2020_e1_1","STAGE",1,"DemandInstructions",4,2840.244,"Include",114
"DW2020_e1","DW2020_e1_1","KNOWLEDGE",1,"DemandInstructions",6,912.2399,"Include",115
"DW2020_e1","DW2020_e1_1","PRICE",0,"DemandInstructions",1,2697.3,"Include",116
"DW2020_e1","DW2020_e1_1","THING",0,"DemandInstructions",1,1304.589,"Include",117
"DW2020_e1","DW2020_e1_1","MILLION",0,"DemandInstructions",1,1138.337,"Include",118
"DW2020_e1","DW2020_e1_1","TERMS",0,"DemandInstructions",1,1606.129,"Include",119
"DW2020_e1","DW2020_e1_1","BACK",0,"DemandInstructions",1,3600.268,"Include",120
"DW2020_e1","DW2020_e1_1","DIRECTION",0,"DemandInstructions",4,2289.557,"Include",121
"DW2020_e1","DW2020_e1_1","BOY",0,"DemandInstructions",6,1424.302,"Include",122
"DW2020_e1","DW2020_e1_1","PERSON",1,"DemandInstructions",6,3988.401,"Include",123
"DW2020_e1","DW2020_e1_1","COURSE",0,"DemandInstructions",2,2085.528,"Include",124
"DW2020_e1","DW2020_e1_1","CENTURY",0,"DemandInstructions",1,1140.796,"Include",125
"DW2020_e1","DW2020_e1_1","FRIENDS",0,"DemandInstructions",4,2836.03,"Include",126
"DW2020_e1","DW2020_e1_1","HALF",0,"DemandInstructions",1,1196.561,"Include",127
"DW2020_e1","DW2020_e1_1","THOUGHT",1,"DemandInstructions",2,2832.912,"Include",128
"DW2020_e1","DW2020_e1_1","SEASON",1,"DemandInstructions",5,2867.062,"Include",129
"DW2020_e1","DW2020_e1_1","INDUSTRY",1,"DemandInstructions",1,1682.91,"Include",130
"DW2020_e1","DW2020_e1_1","LINE",1,"DemandInstructions",2,1963.655,"Include",131
"DW2020_e1","DW2020_e1_1","FUNCTION",1,"DemandInstructions",6,1320.58,"Include",132
"DW2020_e1","DW2020_e1_1","RACE",1,"DemandInstructions",6,1006.892,"Include",133
"DW2020_e1","DW2020_e1_1","CENTER",0,"DemandInstructions",1,1394.793,"Include",134
"DW2020_e1","DW2020_e1_1","COMMUNITY",0,"DemandInstructions",1,2007.645,"Include",135
"DW2020_e1","DW2020_e1_1","FOUR",1,"DemandInstructions",1,1377.666,"Include",136
"DW2020_e1","DW2020_e1_1","FINE",0,"DemandInstructions",2,7812.583,"Include",137
"DW2020_e1","DW2020_e1_1","POWER",1,"DemandInstructions",6,821.2948,"Include",138
"DW2020_e1","DW2020_e1_1","TOP",0,"DemandInstructions",1,1281.2,"Include",139
"DW2020_e1","DW2020_e1_1","AIR",1,"DemandInstructions",6,1647.983,"Include",140
"DW2020_e1","DW2020_e1_1","DISTANCE",0,"DemandInstructions",2,2128.058,"Include",141
"DW2020_e1","DW2020_e1_1","MARCH",0,"DemandInstructions",1,1518.657,"Include",142
"DW2020_e1","DW2020_e1_1","MOTHER",1,"DemandInstructions",5,1644.386,"Include",143
"DW2020_e1","DW2020_e1_1","PARTY",1,"DemandInstructions",6,997.9461,"Include",144
"DW2020_e1","DW2020_e1_2","SECRETARY",1,"DemandInstructions",6,9076.224,"Include",1
"DW2020_e1","DW2020_e1_2","PATTERN",1,"DemandInstructions",6,5342.732,"Include",2
"DW2020_e1","DW2020_e1_2","DIVISION",0,"DemandInstructions",2,5734.632,"Include",3
"DW2020_e1","DW2020_e1_2","NUMBER",1,"DemandInstructions",6,2686.04,"Include",4
"DW2020_e1","DW2020_e1_2","HANDS",1,"DemandInstructions",6,1085.087,"Include",5
"DW2020_e1","DW2020_e1_2","INFLUENCE",1,"DemandInstructions",6,2317.066,"Include",6
"DW2020_e1","DW2020_e1_2","AMERICA",1,"DemandInstructions",6,2323.296,"Include",7
"DW2020_e1","DW2020_e1_2","TAX",1,"DemandInstructions",6,4168.863,"Include",8
"DW2020_e1","DW2020_e1_2","POPULATION",0,"DemandInstructions",1,3425.518,"Include",9
"DW2020_e1","DW2020_e1_2","FAMILY",1,"DemandInstructions",6,1999.614,"Include",10
"DW2020_e1","DW2020_e1_2","INFORMATION",1,"DemandInstructions",6,1202.548,"Include",11
"DW2020_e1","DW2020_e1_2","STORY",1,"DemandInstructions",6,1367.581,"Include",12
"DW2020_e1","DW2020_e1_2","TRIAL",0,"DemandInstructions",3,9013.689,"Include",13
"DW2020_e1","DW2020_e1_2","MASS",1,"DemandInstructions",6,1315.754,"Include",14
"DW2020_e1","DW2020_e1_2","ROAD",0,"DemandInstructions",4,6852.752,"Include",15
"DW2020_e1","DW2020_e1_2","SUNDAY",0,"DemandInstructions",6,4300.876,"Include",16
"DW2020_e1","DW2020_e1_2","WORDS",0,"DemandInstructions",6,999.9102,"Include",17
"DW2020_e1","DW2020_e1_2","CLUB",0,"DemandInstructions",6,910.1799,"Include",18
"DW2020_e1","DW2020_e1_2","SON",1,"DemandInstructions",6,1047.915,"Include",19
"DW2020_e1","DW2020_e1_2","TEN",1,"DemandInstructions",6,2961.215,"Include",20
"DW2020_e1","DW2020_e1_2","WOMEN",1,"DemandInstructions",6,1436.258,"Include",21
"DW2020_e1","DW2020_e1_2","CORNER",0,"DemandInstructions",6,6359.757,"Include",22
"DW2020_e1","DW2020_e1_2","UNIT",1,"DemandInstructions",3,4595.533,"Include",23
"DW2020_e1","DW2020_e1_2","DIFFERENCE",1,"DemandInstructions",6,2807.755,"Include",24
"DW2020_e1","DW2020_e1_2","QUALITY",0,"DemandInstructions",4,6737.06,"Include",25
"DW2020_e1","DW2020_e1_2","FIELD",0,"DemandInstructions",5,7187.981,"Include",26
"DW2020_e1","DW2020_e1_2","BOARD",0,"DemandInstructions",5,2413.639,"Include",27
"DW2020_e1","DW2020_e1_2","EYES",1,"DemandInstructions",6,1215.614,"Include",28
"DW2020_e1","DW2020_e1_2","FEAR",0,"DemandInstructions",6,2200.386,"Include",29
"DW2020_e1","DW2020_e1_2","WATER",0,"DemandInstructions",1,3373.154,"Include",30
"DW2020_e1","DW2020_e1_2","ANALYSIS",0,"DemandInstructions",1,2063.46,"Include",31
"DW2020_e1","DW2020_e1_2","INCOME",1,"DemandInstructions",6,2869.489,"Include",32
"DW2020_e1","DW2020_e1_2","PERIOD",0,"DemandInstructions",3,3044.679,"Include",33
"DW2020_e1","DW2020_e1_2","WINDOW",1,"DemandInstructions",3,2497.291,"Include",34
"DW2020_e1","DW2020_e1_2","DATA",0,"DemandInstructions",2,2126.629,"Include",35
"DW2020_e1","DW2020_e1_2","FORCE",1,"DemandInstructions",6,1883.897,"Include",36
"DW2020_e1","DW2020_e1_2","AUDIENCE",0,"DemandInstructions",1,2060.262,"Include",37
"DW2020_e1","DW2020_e1_2","LETTERS",1,"DemandInstructions",6,3597.01,"Include",38
"DW2020_e1","DW2020_e1_2","LENGTH",0,"DemandInstructions",3,3527.633,"Include",39
"DW2020_e1","DW2020_e1_2","MONTH",0,"DemandInstructions",3,1844.273,"Include",40
"DW2020_e1","DW2020_e1_2","TEST",1,"DemandInstructions",6,2732.701,"Include",41
"DW2020_e1","DW2020_e1_2","ISLAND",0,"DemandInstructions",4,4321.626,"Include",42
"DW2020_e1","DW2020_e1_2","AGE",1,"DemandInstructions",6,1513.066,"Include",43
"DW2020_e1","DW2020_e1_2","LOT",1,"DemandInstructions",6,814.7861,"Include",44
"DW2020_e1","DW2020_e1_2","BIT",1,"DemandInstructions",4,4051.319,"Include",45
"DW2020_e1","DW2020_e1_2","BUILDING",1,"DemandInstructions",6,3456.321,"Include",46
"DW2020_e1","DW2020_e1_2","FUTURE",1,"DemandInstructions",6,2694.355,"Include",47
"DW2020_e1","DW2020_e1_2","MOMENT",0,"DemandInstructions",5,5578.48,"Include",48
"DW2020_e1","DW2020_e1_2","NEWS",1,"DemandInstructions",6,878.5148,"Include",49
"DW2020_e1","DW2020_e1_2","AREA",0,"DemandInstructions",6,1053.362,"Include",50
"DW2020_e1","DW2020_e1_2","METHOD",0,"DemandInstructions",3,3886.573,"Include",51
"DW2020_e1","DW2020_e1_2","SIX",0,"DemandInstructions",4,4899.807,"Include",52
"DW2020_e1","DW2020_e1_2","ISSUE",1,"DemandInstructions",2,2021.842,"Include",53
"DW2020_e1","DW2020_e1_2","WRITING",0,"DemandInstructions",1,2298.235,"Include",54
"DW2020_e1","DW2020_e1_2","ORDER",0,"DemandInstructions",3,3775.839,"Include",55
"DW2020_e1","DW2020_e1_2","OPERATION",1,"DemandInstructions",3,5224.528,"Include",56
"DW2020_e1","DW2020_e1_2","HOT DOGS",0,"DemandInstructions",1,2230.608,"Include",57
"DW2020_e1","DW2020_e1_2","HAND",0,"DemandInstructions",6,2462.147,"Include",58
"DW2020_e1","DW2020_e1_2","GROUP",0,"DemandInstructions",4,7564.173,"Include",59
"DW2020_e1","DW2020_e1_2","SPACE",1,"DemandInstructions",4,7236.841,"Include",60
"DW2020_e1","DW2020_e1_2","PEOPLE",0,"DemandInstructions",3,4698.075,"Include",61
"DW2020_e1","DW2020_e1_2","LIGHT",0,"DemandInstructions",2,3222.664,"Include",62
"DW2020_e1","DW2020_e1_2","MORNING",1,"DemandInstructions",6,1528.518,"Include",63
"DW2020_e1","DW2020_e1_2","WIFE",0,"DemandInstructions",1,2519.423,"Include",64
"DW2020_e1","DW2020_e1_2","PERFORMANCE",0,"DemandInstructions",4,7033.947,"Include",65
"DW2020_e1","DW2020_e1_2","CHILDREN",0,"DemandInstructions",3,6682.334,"Include",66
"DW2020_e1","DW2020_e1_2","STOCK",1,"DemandInstructions",6,2034.92,"Include",67
"DW2020_e1","DW2020_e1_2","WELL",1,"DemandInstructions",5,5196.593,"Include",68
"DW2020_e1","DW2020_e1_2","OFFICER",0,"DemandInstructions",1,1689.717,"Include",69
"DW2020_e1","DW2020_e1_2","GROUND",0,"DemandInstructions",3,5569.278,"Include",70
"DW2020_e1","DW2020_e1_2","DOOR",0,"DemandInstructions",4,7543.061,"Include",71
"DW2020_e1","DW2020_e1_2","ACT",0,"DemandInstructions",2,2458.86,"Include",72
"DW2020_e1","DW2020_e1_2","EXISTENCE",1,"DemandInstructions",6,2130.032,"Include",73
"DW2020_e1","DW2020_e1_2","LITERATURE",0,"DemandInstructions",5,5288.156,"Include",74
"DW2020_e1","DW2020_e1_2","GAME",0,"DemandInstructions",3,3785.185,"Include",75
"DW2020_e1","DW2020_e1_2","DEFENSE",0,"DemandInstructions",2,6482.662,"Include",76
"DW2020_e1","DW2020_e1_2","CHILD",1,"DemandInstructions",6,5033.465,"Include",77
"DW2020_e1","DW2020_e1_2","BROWN",1,"DemandInstructions",6,1078.667,"Include",78
"DW2020_e1","DW2020_e1_2","HUSBAND",1,"DemandInstructions",6,1680.522,"Include",79
"DW2020_e1","DW2020_e1_2","SENSE",1,"DemandInstructions",6,2801.429,"Include",80
"DW2020_e1","DW2020_e1_2","NATURE",1,"DemandInstructions",6,1348.842,"Include",81
"DW2020_e1","DW2020_e1_2","STRENGTH",0,"DemandInstructions",3,5307.004,"Include",82
"DW2020_e1","DW2020_e1_2","EFFORT",0,"DemandInstructions",1,3459.448,"Include",83
"DW2020_e1","DW2020_e1_2","VIEW",1,"DemandInstructions",2,4018.81,"Include",84
"DW2020_e1","DW2020_e1_2","SUMMER",0,"DemandInstructions",3,5370.008,"Include",85
"DW2020_e1","DW2020_e1_2","STREET",1,"DemandInstructions",3,3152.98,"Include",86
"DW2020_e1","DW2020_e1_2","YEAR",0,"DemandInstructions",1,3134.299,"Include",87
"DW2020_e1","DW2020_e1_2","ACTION",1,"DemandInstructions",2,5188.415,"Include",88
"DW2020_e1","DW2020_e1_2","TEMPERATURE",1,"DemandInstructions",1,3530.69,"Include",89
"DW2020_e1","DW2020_e1_2","FATHER",0,"DemandInstructions",5,11319.42,"Include",90
"DW2020_e1","DW2020_e1_2","TABLE",0,"DemandInstructions",1,1680.924,"Include",91
"DW2020_e1","DW2020_e1_2","JOB",1,"DemandInstructions",5,3299.17,"Include",92
"DW2020_e1","DW2020_e1_2","DIRECTOR",1,"DemandInstructions",1,4705.788,"Include",93
"DW2020_e1","DW2020_e1_2","STUDY",1,"DemandInstructions",6,1972.823,"Include",94
"DW2020_e1","DW2020_e1_2","PLACE",1,"DemandInstructions",2,2863.711,"Include",95
"DW2020_e1","DW2020_e1_2","POSITION",0,"DemandInstructions",2,2326.066,"Include",96
"DW2020_e1","DW2020_e1_2","CENT",1,"DemandInstructions",4,6957.649,"Include",97
"DW2020_e1","DW2020_e1_2","LAW",0,"DemandInstructions",1,3088.259,"Include",98
"DW2020_e1","DW2020_e1_2","PROCESS",1,"DemandInstructions",1,2709.054,"Include",99
"DW2020_e1","DW2020_e1_2","AVERAGE",0,"DemandInstructions",1,4363.13,"Include",100
"DW2020_e1","DW2020_e1_2","CHRISTIAN",1,"DemandInstructions",6,1399.237,"Include",101
"DW2020_e1","DW2020_e1_2","LETTER",0,"DemandInstructions",6,1019.807,"Include",102
"DW2020_e1","DW2020_e1_2","VALUES",1,"DemandInstructions",1,3120.619,"Include",103
"DW2020_e1","DW2020_e1_2","MARKET",0,"DemandInstructions",1,1267.959,"Include",104
"DW2020_e1","DW2020_e1_2","GIRLS",1,"DemandInstructions",2,2956.785,"Include",105
"DW2020_e1","DW2020_e1_2","SERVICE",1,"DemandInstructions",4,3544.443,"Include",106
"DW2020_e1","DW2020_e1_2","PLANT",0,"DemandInstructions",1,2244.032,"Include",107
"DW2020_e1","DW2020_e1_2","PRINCIPLE",0,"DemandInstructions",5,3702.463,"Include",108
"DW2020_e1","DW2020_e1_2","CHARACTER",1,"DemandInstructions",6,1281.848,"Include",109
"DW2020_e1","DW2020_e1_2","RIVER",0,"DemandInstructions",1,1273.633,"Include",110
"DW2020_e1","DW2020_e1_2","EIGHT",1,"DemandInstructions",6,4260.475,"Include",111
"DW2020_e1","DW2020_e1_2","WAR",1,"DemandInstructions",4,6252.773,"Include",112
"DW2020_e1","DW2020_e1_2","SOUND",1,"DemandInstructions",3,4525.402,"Include",113
"DW2020_e1","DW2020_e1_2","STAGE",1,"DemandInstructions",6,3912.175,"Include",114
"DW2020_e1","DW2020_e1_2","KNOWLEDGE",1,"DemandInstructions",6,1923.483,"Include",115
"DW2020_e1","DW2020_e1_2","PRICE",0,"DemandInstructions",2,2186.501,"Include",116
"DW2020_e1","DW2020_e1_2","THING",0,"DemandInstructions",1,1254.433,"Include",117
"DW2020_e1","DW2020_e1_2","MILLION",0,"DemandInstructions",1,1345.49,"Include",118
"DW2020_e1","DW2020_e1_2","TERMS",0,"DemandInstructions",1,1240.962,"Include",119
"DW2020_e1","DW2020_e1_2","BACK",0,"DemandInstructions",1,1235.24,"Include",120
"DW2020_e1","DW2020_e1_2","DIRECTION",0,"DemandInstructions",1,1246.338,"Include",121
"DW2020_e1","DW2020_e1_2","BOY",0,"DemandInstructions",1,2439.71,"Include",122
"DW2020_e1","DW2020_e1_2","PERSON",1,"DemandInstructions",6,2274.897,"Include",123
"DW2020_e1","DW2020_e1_2","COURSE",0,"DemandInstructions",2,2899.781,"Include",124
"DW2020_e1","DW2020_e1_2","CENTURY",0,"DemandInstructions",3,6130.804,"Include",125
"DW2020_e1","DW2020_e1_2","FRIENDS",0,"DemandInstructions",1,3100.771,"Include",126
"DW2020_e1","DW2020_e1_2","HALF",0,"DemandInstructions",1,1372.323,"Include",127
"DW2020_e1","DW2020_e1_2","THOUGHT",1,"DemandInstructions",1,1715.087,"Include",128
"DW2020_e1","DW2020_e1_2","SEASON",1,"DemandInstructions",4,4795.731,"Include",129
"DW2020_e1","DW2020_e1_2","INDUSTRY",1,"DemandInstructions",5,3621.5,"Include",130
"DW2020_e1","DW2020_e1_2","LINE",1,"DemandInstructions",1,1429.265,"Include",131
"DW2020_e1","DW2020_e1_2","FUNCTION",1,"DemandInstructions",2,2961.889,"Include",132
"DW2020_e1","DW2020_e1_2","RACE",1,"DemandInstructions",6,1662.355,"Include",133
"DW2020_e1","DW2020_e1_2","CENTER",0,"DemandInstructions",1,6856.743,"Include",134
"DW2020_e1","DW2020_e1_2","COMMUNITY",0,"DemandInstructions",1,1563.067,"Include",135
"DW2020_e1","DW2020_e1_2","FOUR",1,"DemandInstructions",1,1986.733,"Include",136
"DW2020_e1","DW2020_e1_2","FINE",0,"DemandInstructions",1,1942.231,"Include",137
"DW2020_e1","DW2020_e1_2","POWER",1,"DemandInstructions",6,1429.378,"Include",138
"DW2020_e1","DW2020_e1_2","TOP",0,"DemandInstructions",1,1321.41,"Include",139
"DW2020_e1","DW2020_e1_2","AIR",1,"DemandInstructions",4,5712.86,"Include",140
"DW2020_e1","DW2020_e1_2","DISTANCE",0,"DemandInstructions",1,3322.225,"Include",141
"DW2020_e1","DW2020_e1_2","MARCH",0,"DemandInstructions",1,1294.56,"Include",142
"DW2020_e1","DW2020_e1_2","MOTHER",1,"DemandInstructions",1,2681.45,"Include",143
"DW2020_e1","DW2020_e1_2","PARTY",1,"DemandInstructions",4,5689.029,"Include",144
"DW2020_e1","DW2020_e1_3","SECRETARY",1,"NoDemandInstructions",6,2975.28,"Include",1
"DW2020_e1","DW2020_e1_3","PATTERN",1,"NoDemandInstructions",1,2410.045,"Include",2
"DW2020_e1","DW2020_e1_3","DIVISION",0,"NoDemandInstructions",1,1365.481,"Include",3
"DW2020_e1","DW2020_e1_3","NUMBER",1,"NoDemandInstructions",4,3279.148,"Include",4
"DW2020_e1","DW2020_e1_3","HANDS",1,"NoDemandInstructions",1,1671.771,"Include",5
"DW2020_e1","DW2020_e1_3","INFLUENCE",1,"NoDemandInstructions",4,4075.354,"Include",6
"DW2020_e1","DW2020_e1_3","AMERICA",1,"NoDemandInstructions",4,2945.339,"Include",7
"DW2020_e1","DW2020_e1_3","TAX",1,"NoDemandInstructions",1,844.9961,"Include",8
"DW2020_e1","DW2020_e1_3","POPULATION",0,"NoDemandInstructions",1,857.6425,"Include",9
"DW2020_e1","DW2020_e1_3","FAMILY",1,"NoDemandInstructions",1,766.1339,"Include",10
"DW2020_e1","DW2020_e1_3","INFORMATION",1,"NoDemandInstructions",1,990.6852,"Include",11
"DW2020_e1","DW2020_e1_3","STORY",1,"NoDemandInstructions",3,2237.606,"Include",12
"DW2020_e1","DW2020_e1_3","TRIAL",0,"NoDemandInstructions",3,1400.796,"Include",13
"DW2020_e1","DW2020_e1_3","MASS",1,"NoDemandInstructions",1,940.3905,"Include",14
"DW2020_e1","DW2020_e1_3","ROAD",0,"NoDemandInstructions",2,1068.364,"Include",15
"DW2020_e1","DW2020_e1_3","SUNDAY",0,"NoDemandInstructions",1,1118.212,"Include",16
"DW2020_e1","DW2020_e1_3","WORDS",0,"NoDemandInstructions",3,2157.348,"Include",17
"DW2020_e1","DW2020_e1_3","CLUB",0,"NoDemandInstructions",4,1650.498,"Include",18
"DW2020_e1","DW2020_e1_3","SON",1,"NoDemandInstructions",6,2028.711,"Include",19
"DW2020_e1","DW2020_e1_3","TEN",1,"NoDemandInstructions",1,1253.515,"Include",20
"DW2020_e1","DW2020_e1_3","WOMEN",1,"NoDemandInstructions",6,1105.899,"Include",21
"DW2020_e1","DW2020_e1_3","CORNER",0,"NoDemandInstructions",2,1617.217,"Include",22
"DW2020_e1","DW2020_e1_3","UNIT",1,"NoDemandInstructions",1,885.9726,"Include",23
"DW2020_e1","DW2020_e1_3","DIFFERENCE",1,"NoDemandInstructions",6,1457.919,"Include",24
"DW2020_e1","DW2020_e1_3","QUALITY",0,"NoDemandInstructions",1,756.6178,"Include",25
"DW2020_e1","DW2020_e1_3","FIELD",0,"NoDemandInstructions",6,907.0882,"Include",26
"DW2020_e1","DW2020_e1_3","BOARD",0,"NoDemandInstructions",2,1059.848,"Include",27
"DW2020_e1","DW2020_e1_3","EYES",1,"NoDemandInstructions",1,768.0808,"Include",28
"DW2020_e1","DW2020_e1_3","FEAR",0,"NoDemandInstructions",1,1073.496,"Include",29
"DW2020_e1","DW2020_e1_3","WATER",0,"NoDemandInstructions",1,630.8421,"Include",30
"DW2020_e1","DW2020_e1_3","ANALYSIS",0,"NoDemandInstructions",1,892.4864,"Include",31
"DW2020_e1","DW2020_e1_3","INCOME",1,"NoDemandInstructions",1,758.6876,"Include",32
"DW2020_e1","DW2020_e1_3","PERIOD",0,"NoDemandInstructions",1,1031.32,"Include",33
"DW2020_e1","DW2020_e1_3","WINDOW",1,"NoDemandInstructions",1,717.6217,"Include",34
"DW2020_e1","DW2020_e1_3","DATA",0,"NoDemandInstructions",1,808.2348,"Include",35
"DW2020_e1","DW2020_e1_3","FORCE",1,"NoDemandInstructions",2,1311.746,"Include",36
"DW2020_e1","DW2020_e1_3","AUDIENCE",0,"NoDemandInstructions",1,1163.351,"Include",37
"DW2020_e1","DW2020_e1_3","LETTERS",1,"NoDemandInstructions",3,1338.442,"Include",38
"DW2020_e1","DW2020_e1_3","LENGTH",0,"NoDemandInstructions",1,720.0646,"Include",39
"DW2020_e1","DW2020_e1_3","MONTH",0,"NoDemandInstructions",1,667.8229,"Include",40
"DW2020_e1","DW2020_e1_3","TEST",1,"NoDemandInstructions",1,687.689,"Include",41
"DW2020_e1","DW2020_e1_3","ISLAND",0,"NoDemandInstructions",1,2035.533,"Include",42
"DW2020_e1","DW2020_e1_3","AGE",1,"NoDemandInstructions",4,1357.776,"Include",43
"DW2020_e1","DW2020_e1_3","LOT",1,"NoDemandInstructions",6,1911.327,"Include",44
"DW2020_e1","DW2020_e1_3","BIT",1,"NoDemandInstructions",1,686.4119,"Include",45
"DW2020_e1","DW2020_e1_3","BUILDING",1,"NoDemandInstructions",1,779.1931,"Include",46
"DW2020_e1","DW2020_e1_3","FUTURE",1,"NoDemandInstructions",1,1178.501,"Include",47
"DW2020_e1","DW2020_e1_3","MOMENT",0,"NoDemandInstructions",1,627.0494,"Include",48
"DW2020_e1","DW2020_e1_3","NEWS",1,"NoDemandInstructions",1,690.0801,"Include",49
"DW2020_e1","DW2020_e1_3","AREA",0,"NoDemandInstructions",1,628.143,"Include",50
"DW2020_e1","DW2020_e1_3","METHOD",0,"NoDemandInstructions",4,1588.599,"Include",51
"DW2020_e1","DW2020_e1_3","SIX",0,"NoDemandInstructions",1,619.0828,"Include",52
"DW2020_e1","DW2020_e1_3","ISSUE",1,"NoDemandInstructions",1,624.4469,"Include",53
"DW2020_e1","DW2020_e1_3","WRITING",0,"NoDemandInstructions",1,758.8228,"Include",54
"DW2020_e1","DW2020_e1_3","ORDER",0,"NoDemandInstructions",1,607.4735,"Include",55
"DW2020_e1","DW2020_e1_3","OPERATION",1,"NoDemandInstructions",5,1269.063,"Include",56
"DW2020_e1","DW2020_e1_3","HOT DOGS",0,"NoDemandInstructions",1,733.1319,"Include",57
"DW2020_e1","DW2020_e1_3","HAND",0,"NoDemandInstructions",1,1096.658,"Include",58
"DW2020_e1","DW2020_e1_3","GROUP",0,"NoDemandInstructions",1,556.0498,"Include",59
"DW2020_e1","DW2020_e1_3","SPACE",1,"NoDemandInstructions",6,1495.846,"Include",60
"DW2020_e1","DW2020_e1_3","PEOPLE",0,"NoDemandInstructions",1,599.5565,"Include",61
"DW2020_e1","DW2020_e1_3","LIGHT",0,"NoDemandInstructions",1,832.6026,"Include",62
"DW2020_e1","DW2020_e1_3","MORNING",1,"NoDemandInstructions",1,572.3531,"Include",63
"DW2020_e1","DW2020_e1_3","WIFE",0,"NoDemandInstructions",1,533.5949,"Include",64
"DW2020_e1","DW2020_e1_3","PERFORMANCE",0,"NoDemandInstructions",5,2304.086,"Include",65
"DW2020_e1","DW2020_e1_3","CHILDREN",0,"NoDemandInstructions",1,2590.075,"Include",66
"DW2020_e1","DW2020_e1_3","STOCK",1,"NoDemandInstructions",1,2538.556,"Include",67
"DW2020_e1","DW2020_e1_3","WELL",1,"NoDemandInstructions",5,5337.33,"Include",68
"DW2020_e1","DW2020_e1_3","OFFICER",0,"NoDemandInstructions",1,3114.803,"Include",69
"DW2020_e1","DW2020_e1_3","GROUND",0,"NoDemandInstructions",1,2891,"Include",70
"DW2020_e1","DW2020_e1_3","DOOR",0,"NoDemandInstructions",2,1130.355,"Include",71
"DW2020_e1","DW2020_e1_3","ACT",0,"NoDemandInstructions",6,819.441,"Include",72
"DW2020_e1","DW2020_e1_3","EXISTENCE",1,"NoDemandInstructions",6,1079.99,"Include",73
"DW2020_e1","DW2020_e1_3","LITERATURE",0,"NoDemandInstructions",1,886.8862,"Include",74
"DW2020_e1","DW2020_e1_3","GAME",0,"NoDemandInstructions",1,649.5442,"Include",75
"DW2020_e1","DW2020_e1_3","DEFENSE",0,"NoDemandInstructions",1,766.8913,"Include",76
"DW2020_e1","DW2020_e1_3","CHILD",1,"NoDemandInstructions",1,559.1574,"Include",77
"DW2020_e1","DW2020_e1_3","BROWN",1,"NoDemandInstructions",1,735.973,"Include",78
"DW2020_e1","DW2020_e1_3","HUSBAND",1,"NoDemandInstructions",6,1027.015,"Include",79
"DW2020_e1","DW2020_e1_3","SENSE",1,"NoDemandInstructions",6,1670.255,"Include",80
"DW2020_e1","DW2020_e1_3","NATURE",1,"NoDemandInstructions",1,702.993,"Include",81
"DW2020_e1","DW2020_e1_3","STRENGTH",0,"NoDemandInstructions",2,1970.417,"Include",82
"DW2020_e1","DW2020_e1_3","EFFORT",0,"NoDemandInstructions",1,798.5965,"Include",83
"DW2020_e1","DW2020_e1_3","VIEW",1,"NoDemandInstructions",1,1013.455,"Include",84
"DW2020_e1","DW2020_e1_3","SUMMER",0,"NoDemandInstructions",1,1784.527,"Include",85
"DW2020_e1","DW2020_e1_3","STREET",1,"NoDemandInstructions",1,715.1505,"Include",86
"DW2020_e1","DW2020_e1_3","YEAR",0,"NoDemandInstructions",1,637.1287,"Include",87
"DW2020_e1","DW2020_e1_3","ACTION",1,"NoDemandInstructions",6,787.5335,"Include",88
"DW2020_e1","DW2020_e1_3","TEMPERATURE",1,"NoDemandInstructions",6,833.2468,"Include",89
"DW2020_e1","DW2020_e1_3","FATHER",0,"NoDemandInstructions",6,1119.33,"Include",90
"DW2020_e1","DW2020_e1_3","TABLE",0,"NoDemandInstructions",1,1046.309,"Include",91
"DW2020_e1","DW2020_e1_3","JOB",1,"NoDemandInstructions",6,728.398,"Include",92
"DW2020_e1","DW2020_e1_3","DIRECTOR",1,"NoDemandInstructions",6,673.2185,"Include",93
"DW2020_e1","DW2020_e1_3","STUDY",1,"NoDemandInstructions",6,923.8719,"Include",94
"DW2020_e1","DW2020_e1_3","PLACE",1,"NoDemandInstructions",3,1555.278,"Include",95
"DW2020_e1","DW2020_e1_3","POSITION",0,"NoDemandInstructions",4,1056.307,"Include",96
"DW2020_e1","DW2020_e1_3","CENT",1,"NoDemandInstructions",1,688.7168,"Include",97
"DW2020_e1","DW2020_e1_3","LAW",0,"NoDemandInstructions",1,738.8653,"Include",98
"DW2020_e1","DW2020_e1_3","PROCESS",1,"NoDemandInstructions",6,787.5591,"Include",99
"DW2020_e1","DW2020_e1_3","AVERAGE",0,"NoDemandInstructions",6,718.6974,"Include",100
"DW2020_e1","DW2020_e1_3","CHRISTIAN",1,"NoDemandInstructions",6,870.8544,"Include",101
"DW2020_e1","DW2020_e1_3","LETTER",0,"NoDemandInstructions",6,689.2478,"Include",102
"DW2020_e1","DW2020_e1_3","VALUES",1,"NoDemandInstructions",6,601.281,"Include",103
"DW2020_e1","DW2020_e1_3","MARKET",0,"NoDemandInstructions",6,2109.539,"Include",104
"DW2020_e1","DW2020_e1_3","GIRLS",1,"NoDemandInstructions",6,2035.316,"Include",105
"DW2020_e1","DW2020_e1_3","SERVICE",1,"NoDemandInstructions",6,667.8998,"Include",106
"DW2020_e1","DW2020_e1_3","PLANT",0,"NoDemandInstructions",1,781.3141,"Include",107
"DW2020_e1","DW2020_e1_3","PRINCIPLE",0,"NoDemandInstructions",1,1125.286,"Include",108
"DW2020_e1","DW2020_e1_3","CHARACTER",1,"NoDemandInstructions",6,14877.7,"Include",109
"DW2020_e1","DW2020_e1_3","RIVER",0,"NoDemandInstructions",1,2443.847,"Include",110
"DW2020_e1","DW2020_e1_3","EIGHT",1,"NoDemandInstructions",2,694.753,"Include",111
"DW2020_e1","DW2020_e1_3","WAR",1,"NoDemandInstructions",6,800.023,"Include",112
"DW2020_e1","DW2020_e1_3","SOUND",1,"NoDemandInstructions",1,732.4005,"Include",113
"DW2020_e1","DW2020_e1_3","STAGE",1,"NoDemandInstructions",6,1103.147,"Include",114
"DW2020_e1","DW2020_e1_3","KNOWLEDGE",1,"NoDemandInstructions",6,1049.146,"Include",115
"DW2020_e1","DW2020_e1_3","PRICE",0,"NoDemandInstructions",1,829.1435,"Include",116
"DW2020_e1","DW2020_e1_3","THING",0,"NoDemandInstructions",4,941.4169,"Include",117
"DW2020_e1","DW2020_e1_3","MILLION",0,"NoDemandInstructions",6,1574.35,"Include",118
"DW2020_e1","DW2020_e1_3","TERMS",0,"NoDemandInstructions",6,1889.177,"Include",119
"DW2020_e1","DW2020_e1_3","BACK",0,"NoDemandInstructions",1,869.5429,"Include",120
"DW2020_e1","DW2020_e1_3","DIRECTION",0,"NoDemandInstructions",6,944.5495,"Include",121
"DW2020_e1","DW2020_e1_3","BOY",0,"NoDemandInstructions",1,845.129,"Include",122
"DW2020_e1","DW2020_e1_3","PERSON",1,"NoDemandInstructions",5,919.671,"Include",123
"DW2020_e1","DW2020_e1_3","COURSE",0,"NoDemandInstructions",5,898.3408,"Include",124
"DW2020_e1","DW2020_e1_3","CENTURY",0,"NoDemandInstructions",1,955.1832,"Include",125
"DW2020_e1","DW2020_e1_3","FRIENDS",0,"NoDemandInstructions",2,2907.566,"Include",126
"DW2020_e1","DW2020_e1_3","HALF",0,"NoDemandInstructions",1,794.6439,"Include",127
"DW2020_e1","DW2020_e1_3","THOUGHT",1,"NoDemandInstructions",5,750.2223,"Include",128
"DW2020_e1","DW2020_e1_3","SEASON",1,"NoDemandInstructions",5,597.7538,"Include",129
"DW2020_e1","DW2020_e1_3","INDUSTRY",1,"NoDemandInstructions",6,857.2291,"Include",130
"DW2020_e1","DW2020_e1_3","LINE",1,"NoDemandInstructions",1,769.4798,"Include",131
"DW2020_e1","DW2020_e1_3","FUNCTION",1,"NoDemandInstructions",5,744.8883,"Include",132
"DW2020_e1","DW2020_e1_3","RACE",1,"NoDemandInstructions",6,1032.215,"Include",133
"DW2020_e1","DW2020_e1_3","CENTER",0,"NoDemandInstructions",6,810.2307,"Include",134
"DW2020_e1","DW2020_e1_3","COMMUNITY",0,"NoDemandInstructions",6,734.7105,"Include",135
"DW2020_e1","DW2020_e1_3","FOUR",1,"NoDemandInstructions",6,857.1316,"Include",136
"DW2020_e1","DW2020_e1_3","FINE",0,"NoDemandInstructions",1,648.1099,"Include",137
"DW2020_e1","DW2020_e1_3","POWER",1,"NoDemandInstructions",1,825.844,"Include",138
"DW2020_e1","DW2020_e1_3","TOP",0,"NoDemandInstructions",6,2068.286,"Include",139
"DW2020_e1","DW2020_e1_3","AIR",1,"NoDemandInstructions",2,771.7873,"Include",140
"DW2020_e1","DW2020_e1_3","DISTANCE",0,"NoDemandInstructions",3,1482.83,"Include",141
"DW2020_e1","DW2020_e1_3","MARCH",0,"NoDemandInstructions",3,1002.832,"Include",142
"DW2020_e1","DW2020_e1_3","MOTHER",1,"NoDemandInstructions",1,136.946,"Include",143
"DW2020_e1","DW2020_e1_3","PARTY",1,"NoDemandInstructions",1,656.1709,"Include",144
"DW2020_e1","DW2020_e1_4","EXPERIENCE",1,"NoDemandInstructions",6,2178.117,"Include",1
"DW2020_e1","DW2020_e1_4","SPIRIT",0,"NoDemandInstructions",1,1822.622,"Include",2
"DW2020_e1","DW2020_e1_4","STAGE",0,"NoDemandInstructions",2,2579.386,"Include",3
"DW2020_e1","DW2020_e1_4","AUDIENCE",1,"NoDemandInstructions",6,1741.796,"Include",4
"DW2020_e1","DW2020_e1_4","HALL",1,"NoDemandInstructions",5,3908.291,"Include",5
"DW2020_e1","DW2020_e1_4","CORNER",1,"NoDemandInstructions",6,1287.527,"Include",6
"DW2020_e1","DW2020_e1_4","HEAD",1,"NoDemandInstructions",6,1874.474,"Include",7
"DW2020_e1","DW2020_e1_4","METHOD",0,"NoDemandInstructions",2,5901.811,"Include",8
"DW2020_e1","DW2020_e1_4","PLANT",1,"NoDemandInstructions",5,3011.541,"Include",9
"DW2020_e1","DW2020_e1_4","STOCK",0,"NoDemandInstructions",3,3189.961,"Include",10
"DW2020_e1","DW2020_e1_4","RELIGION",0,"NoDemandInstructions",2,4047.841,"Include",11
"DW2020_e1","DW2020_e1_4","TOP",1,"NoDemandInstructions",6,1782.884,"Include",12
"DW2020_e1","DW2020_e1_4","DEGREE",0,"NoDemandInstructions",3,5972.794,"Include",13
"DW2020_e1","DW2020_e1_4","HAIR",0,"NoDemandInstructions",3,4978.608,"Include",14
"DW2020_e1","DW2020_e1_4","TEN",1,"NoDemandInstructions",6,1298.483,"Include",15
"DW2020_e1","DW2020_e1_4","LIST",1,"NoDemandInstructions",6,981.0107,"Include",16
"DW2020_e1","DW2020_e1_4","EVENING",1,"NoDemandInstructions",6,1444.506,"Include",17
"DW2020_e1","DW2020_e1_4","POOL",1,"NoDemandInstructions",6,864.4461,"Include",18
"DW2020_e1","DW2020_e1_4","SYSTEM",1,"NoDemandInstructions",5,3972.921,"Include",19
"DW2020_e1","DW2020_e1_4","ROAD",0,"NoDemandInstructions",1,3245.345,"Include",20
"DW2020_e1","DW2020_e1_4","CHIEF",1,"NoDemandInstructions",6,1195.49,"Include",21
"DW2020_e1","DW2020_e1_4","COUNTRY",0,"NoDemandInstructions",5,3858.246,"Include",22
"DW2020_e1","DW2020_e1_4","SIX",1,"NoDemandInstructions",6,1792.121,"Include",23
"DW2020_e1","DW2020_e1_4","INDUSTRY",0,"NoDemandInstructions",2,2101.571,"Include",24
"DW2020_e1","DW2020_e1_4","VOICE",1,"NoDemandInstructions",3,4053.474,"Include",25
"DW2020_e1","DW2020_e1_4","CENTURY",1,"NoDemandInstructions",5,4027.167,"Include",26
"DW2020_e1","DW2020_e1_4","ANALYSIS",0,"NoDemandInstructions",2,3586.911,"Include",27
"DW2020_e1","DW2020_e1_4","LITERATURE",0,"NoDemandInstructions",2,4707.121,"Include",28
"DW2020_e1","DW2020_e1_4","FUTURE",1,"NoDemandInstructions",2,1790.853,"Include",29
"DW2020_e1","DW2020_e1_4","WOMAN",1,"NoDemandInstructions",6,3724.18,"Include",30
"DW2020_e1","DW2020_e1_4","WHITE",0,"NoDemandInstructions",2,4151.147,"Include",31
"DW2020_e1","DW2020_e1_4","GIRL",0,"NoDemandInstructions",2,2375.646,"Include",32
"DW2020_e1","DW2020_e1_4","LOCAL",0,"NoDemandInstructions",2,972.0468,"Include",33
"DW2020_e1","DW2020_e1_4","VIEW",0,"NoDemandInstructions",3,2396.144,"Include",34
"DW2020_e1","DW2020_e1_4","SIDE",1,"NoDemandInstructions",3,2263.039,"Include",35
"DW2020_e1","DW2020_e1_4","MATTER",1,"NoDemandInstructions",1,2513.559,"Include",36
"DW2020_e1","DW2020_e1_4","LIGHT",1,"NoDemandInstructions",3,5088.812,"Include",37
"DW2020_e1","DW2020_e1_4","WINDOW",1,"NoDemandInstructions",3,2186.767,"Include",38
"DW2020_e1","DW2020_e1_4","QUESTION",0,"NoDemandInstructions",3,2229.994,"Include",39
"DW2020_e1","DW2020_e1_4","TYPE",0,"NoDemandInstructions",3,3113.808,"Include",40
"DW2020_e1","DW2020_e1_4","NOTHING",1,"NoDemandInstructions",5,5143.303,"Include",41
"DW2020_e1","DW2020_e1_4","CHARACTER",1,"NoDemandInstructions",6,1870.5,"Include",42
"DW2020_e1","DW2020_e1_4","MEMBER",0,"NoDemandInstructions",2,2360.46,"Include",43
"DW2020_e1","DW2020_e1_4","GROUP",1,"NoDemandInstructions",5,2710.229,"Include",44
"DW2020_e1","DW2020_e1_4","FRONT",1,"NoDemandInstructions",6,1387.561,"Include",45
"DW2020_e1","DW2020_e1_4","ART",0,"NoDemandInstructions",2,1969.092,"Include",46
"DW2020_e1","DW2020_e1_4","HOT DOGS",0,"NoDemandInstructions",1,2110.733,"Include",47
"DW2020_e1","DW2020_e1_4","RADIO",0,"NoDemandInstructions",2,1500.765,"Include",48
"DW2020_e1","DW2020_e1_4","MATERIAL",1,"NoDemandInstructions",6,1325.116,"Include",49
"DW2020_e1","DW2020_e1_4","CENT",1,"NoDemandInstructions",6,1300.706,"Include",50
"DW2020_e1","DW2020_e1_4","RED",1,"NoDemandInstructions",6,5030.284,"Include",51
"DW2020_e1","DW2020_e1_4","DECISION",0,"NoDemandInstructions",3,3491.979,"Include",52
"DW2020_e1","DW2020_e1_4","DATE",0,"NoDemandInstructions",3,1992.576,"Include",53
"DW2020_e1","DW2020_e1_4","CLASS",1,"NoDemandInstructions",6,3030.209,"Include",54
"DW2020_e1","DW2020_e1_4","TAX",0,"NoDemandInstructions",1,3455.271,"Include",55
"DW2020_e1","DW2020_e1_4","SOUTH",1,"NoDemandInstructions",6,3100.606,"Include",56
"DW2020_e1","DW2020_e1_4","TERMS",0,"NoDemandInstructions",2,2434.711,"Include",57
"DW2020_e1","DW2020_e1_4","NORTH",1,"NoDemandInstructions",6,1204.839,"Include",58
"DW2020_e1","DW2020_e1_4","CONSIDER",1,"NoDemandInstructions",1,2065.875,"Include",59
"DW2020_e1","DW2020_e1_4","HOME",1,"NoDemandInstructions",6,1251.251,"Include",60
"DW2020_e1","DW2020_e1_4","DISCUSSION",1,"NoDemandInstructions",6,1991.844,"Include",61
"DW2020_e1","DW2020_e1_4","STEPS",1,"NoDemandInstructions",5,1844.374,"Include",62
"DW2020_e1","DW2020_e1_4","CHRISTIAN",0,"NoDemandInstructions",1,3462.57,"Include",63
"DW2020_e1","DW2020_e1_4","CUT",1,"NoDemandInstructions",6,1164.566,"Include",64
"DW2020_e1","DW2020_e1_4","INFLUENCE",1,"NoDemandInstructions",6,1444.286,"Include",65
"DW2020_e1","DW2020_e1_4","POINT",0,"NoDemandInstructions",4,2913.944,"Include",66
"DW2020_e1","DW2020_e1_4","PEACE",1,"NoDemandInstructions",6,2687.745,"Include",67
"DW2020_e1","DW2020_e1_4","FORCE",0,"NoDemandInstructions",6,1207.216,"Include",68
"DW2020_e1","DW2020_e1_4","POSITION",0,"NoDemandInstructions",3,5429.092,"Include",69
"DW2020_e1","DW2020_e1_4","STRESS",0,"NoDemandInstructions",3,4673.914,"Include",70
"DW2020_e1","DW2020_e1_4","FUNCTION",0,"NoDemandInstructions",4,4285.691,"Include",71
"DW2020_e1","DW2020_e1_4","ENGLAND",0,"NoDemandInstructions",1,3721.509,"Include",72
"DW2020_e1","DW2020_e1_4","ROOM",0,"NoDemandInstructions",5,2259.418,"Include",73
"DW2020_e1","DW2020_e1_4","DATA",1,"NoDemandInstructions",6,3171.257,"Include",74
"DW2020_e1","DW2020_e1_4","AMOUNT",0,"NoDemandInstructions",5,2654.38,"Include",75
"DW2020_e1","DW2020_e1_4","UNION",0,"NoDemandInstructions",3,2767.479,"Include",76
"DW2020_e1","DW2020_e1_4","COURSE",1,"NoDemandInstructions",6,2314.746,"Include",77
"DW2020_e1","DW2020_e1_4","HOUSE",1,"NoDemandInstructions",6,931.912,"Include",78
"DW2020_e1","DW2020_e1_4","SENSE",0,"NoDemandInstructions",2,4702.241,"Include",79
"DW2020_e1","DW2020_e1_4","PART",1,"NoDemandInstructions",5,2040.005,"Include",80
"DW2020_e1","DW2020_e1_4","WORLD",1,"NoDemandInstructions",5,3234.043,"Include",81
"DW2020_e1","DW2020_e1_4","CHURCH",0,"NoDemandInstructions",1,1971.366,"Include",82
"DW2020_e1","DW2020_e1_4","TREES",1,"NoDemandInstructions",6,1574.771,"Include",83
"DW2020_e1","DW2020_e1_4","PIECE",0,"NoDemandInstructions",1,2212.474,"Include",84
"DW2020_e1","DW2020_e1_4","FLOOR",0,"NoDemandInstructions",5,2256.338,"Include",85
"DW2020_e1","DW2020_e1_4","SPACE",0,"NoDemandInstructions",6,2129.475,"Include",86
"DW2020_e1","DW2020_e1_4","MIND",0,"NoDemandInstructions",2,1685.417,"Include",87
"DW2020_e1","DW2020_e1_4","HALF",1,"NoDemandInstructions",6,1182.328,"Include",88
"DW2020_e1","DW2020_e1_4","STREET",0,"NoDemandInstructions",6,1493.386,"Include",89
"DW2020_e1","DW2020_e1_4","OUTSIDE",0,"NoDemandInstructions",1,2360.633,"Include",90
"DW2020_e1","DW2020_e1_4","CHOICE",1,"NoDemandInstructions",2,2126.086,"Include",91
"DW2020_e1","DW2020_e1_4","BALL",1,"NoDemandInstructions",1,1842.728,"Include",92
"DW2020_e1","DW2020_e1_4","BLUE",1,"NoDemandInstructions",6,1045.082,"Include",93
"DW2020_e1","DW2020_e1_4","WIFE",1,"NoDemandInstructions",6,1842.857,"Include",94
"DW2020_e1","DW2020_e1_4","EXAMPLE",1,"NoDemandInstructions",6,1382.2,"Include",95
"DW2020_e1","DW2020_e1_4","MORNING",0,"NoDemandInstructions",6,965.5733,"Include",96
"DW2020_e1","DW2020_e1_4","BROWN",1,"NoDemandInstructions",6,662.5407,"Include",97
"DW2020_e1","DW2020_e1_4","CHILDREN",0,"NoDemandInstructions",1,2362.904,"Include",98
"DW2020_e1","DW2020_e1_4","HOURS",0,"NoDemandInstructions",2,4775.033,"Include",99
"DW2020_e1","DW2020_e1_4","SERVICE",1,"NoDemandInstructions",6,1084.378,"Include",100
"DW2020_e1","DW2020_e1_4","REPORT",0,"NoDemandInstructions",3,2631.179,"Include",101
"DW2020_e1","DW2020_e1_4","FEAR",0,"NoDemandInstructions",3,2640.664,"Include",102
"DW2020_e1","DW2020_e1_4","MINUTES",0,"NoDemandInstructions",3,3211.041,"Include",103
"DW2020_e1","DW2020_e1_4","HUMAN",0,"NoDemandInstructions",4,2748.923,"Include",104
"DW2020_e1","DW2020_e1_4","STANDING",0,"NoDemandInstructions",2,2587.376,"Include",105
"DW2020_e1","DW2020_e1_4","PERSON",0,"NoDemandInstructions",4,3244.854,"Include",106
"DW2020_e1","DW2020_e1_4","PLACE",1,"NoDemandInstructions",4,2715.968,"Include",107
"DW2020_e1","DW2020_e1_4","MOMENT",0,"NoDemandInstructions",5,1851.779,"Include",108
"DW2020_e1","DW2020_e1_4","FINE",0,"NoDemandInstructions",2,2397.593,"Include",109
"DW2020_e1","DW2020_e1_4","SERIES",0,"NoDemandInstructions",1,2663.483,"Include",110
"DW2020_e1","DW2020_e1_4","END",1,"NoDemandInstructions",6,1281.202,"Include",111
"DW2020_e1","DW2020_e1_4","RACE",0,"NoDemandInstructions",6,1355.479,"Include",112
"DW2020_e1","DW2020_e1_4","FIRE",0,"NoDemandInstructions",2,3018.981,"Include",113
"DW2020_e1","DW2020_e1_4","MOVEMENT",1,"NoDemandInstructions",5,2994.7,"Include",114
"DW2020_e1","DW2020_e1_4","FEET",0,"NoDemandInstructions",2,3305.825,"Include",115
"DW2020_e1","DW2020_e1_4","BODY",0,"NoDemandInstructions",3,2308.997,"Include",116
"DW2020_e1","DW2020_e1_4","LETTERS",1,"NoDemandInstructions",6,2029.949,"Include",117
"DW2020_e1","DW2020_e1_4","PARTY",0,"NoDemandInstructions",2,5080.84,"Include",118
"DW2020_e1","DW2020_e1_4","SEVEN",0,"NoDemandInstructions",1,1610.257,"Include",119
"DW2020_e1","DW2020_e1_4","FRIENDS",1,"NoDemandInstructions",6,1205.898,"Include",120
"DW2020_e1","DW2020_e1_4","READING",0,"NoDemandInstructions",1,1707.826,"Include",121
"DW2020_e1","DW2020_e1_4","HANDS",1,"NoDemandInstructions",6,851.9674,"Include",122
"DW2020_e1","DW2020_e1_4","INTEREST",0,"NoDemandInstructions",3,7872.58,"Include",123
"DW2020_e1","DW2020_e1_4","HORSE",1,"NoDemandInstructions",6,948.9686,"Include",124
"DW2020_e1","DW2020_e1_4","EFFORT",0,"NoDemandInstructions",2,2419.145,"Include",125
"DW2020_e1","DW2020_e1_4","HOTEL",1,"NoDemandInstructions",6,7246.765,"Include",126
"DW2020_e1","DW2020_e1_4","RATE",0,"NoDemandInstructions",1,2016.326,"Include",127
"DW2020_e1","DW2020_e1_4","AGREEMENT",1,"NoDemandInstructions",6,1322.412,"Include",128
"DW2020_e1","DW2020_e1_4","MANNER",0,"NoDemandInstructions",2,2644.123,"Include",129
"DW2020_e1","DW2020_e1_4","WEST",1,"NoDemandInstructions",3,4669.748,"Include",130
"DW2020_e1","DW2020_e1_4","NATION",1,"NoDemandInstructions",6,1241.235,"Include",131
"DW2020_e1","DW2020_e1_4","DIFFERENCE",1,"NoDemandInstructions",2,1837.237,"Include",132
"DW2020_e1","DW2020_e1_4","GUN",0,"NoDemandInstructions",1,1016.283,"Include",133
"DW2020_e1","DW2020_e1_4","COMPANY",0,"NoDemandInstructions",1,1117.3,"Include",134
"DW2020_e1","DW2020_e1_4","HAND",1,"NoDemandInstructions",6,1255.331,"Include",135
"DW2020_e1","DW2020_e1_4","ARMS",1,"NoDemandInstructions",4,4409.646,"Include",136
"DW2020_e1","DW2020_e1_4","COUNTY",0,"NoDemandInstructions",4,5248.346,"Include",137
"DW2020_e1","DW2020_e1_4","SQUARE",1,"NoDemandInstructions",6,1068.172,"Include",138
"DW2020_e1","DW2020_e1_4","PEOPLE",0,"NoDemandInstructions",4,2864.349,"Include",139
"DW2020_e1","DW2020_e1_4","STATEMENT",1,"NoDemandInstructions",2,2561.765,"Include",140
"DW2020_e1","DW2020_e1_4","BOYS",1,"NoDemandInstructions",2,2677.27,"Include",141
"DW2020_e1","DW2020_e1_4","WOMEN",0,"NoDemandInstructions",6,1060.451,"Include",142
"DW2020_e1","DW2020_e1_4","MOUTH",1,"NoDemandInstructions",6,967.7601,"Include",143
"DW2020_e1","DW2020_e1_4","STUDENT",1,"NoDemandInstructions",4,4784.781,"Include",144
"DW2020_e1","DW2020_e1_5","SUNDAY",0,"DemandInstructions",2,4268.362,"Include",1
"DW2020_e1","DW2020_e1_5","MEN",1,"DemandInstructions",6,2183.683,"Include",2
"DW2020_e1","DW2020_e1_5","FAITH",1,"DemandInstructions",1,1685.457,"Include",3
"DW2020_e1","DW2020_e1_5","HORSE",1,"DemandInstructions",4,2308.907,"Include",4
"DW2020_e1","DW2020_e1_5","TERMS",1,"DemandInstructions",3,2435.405,"Include",5
"DW2020_e1","DW2020_e1_5","PLACE",0,"DemandInstructions",2,1796.597,"Include",6
"DW2020_e1","DW2020_e1_5","BROWN",1,"DemandInstructions",1,3312.761,"Include",7
"DW2020_e1","DW2020_e1_5","WORD",1,"DemandInstructions",5,2636.338,"Include",8
"DW2020_e1","DW2020_e1_5","DIRECTOR",1,"DemandInstructions",6,1517.357,"Include",9
"DW2020_e1","DW2020_e1_5","EIGHT",0,"DemandInstructions",2,2294.602,"Include",10
"DW2020_e1","DW2020_e1_5","ACCOUNT",1,"DemandInstructions",1,1746.691,"Include",11
"DW2020_e1","DW2020_e1_5","INSIDE",0,"DemandInstructions",1,1248.185,"Include",12
"DW2020_e1","DW2020_e1_5","TAX",1,"DemandInstructions",2,2835.052,"Include",13
"DW2020_e1","DW2020_e1_5","MILLION",0,"DemandInstructions",1,1224.194,"Include",14
"DW2020_e1","DW2020_e1_5","GIRL",1,"DemandInstructions",1,1003.201,"Include",15
"DW2020_e1","DW2020_e1_5","AIR",1,"DemandInstructions",4,2047.952,"Include",16
"DW2020_e1","DW2020_e1_5","HOUSE",1,"DemandInstructions",4,2391.588,"Include",17
"DW2020_e1","DW2020_e1_5","THOUGHT",0,"DemandInstructions",1,1250.197,"Include",18
"DW2020_e1","DW2020_e1_5","BACK",1,"DemandInstructions",4,3692.646,"Include",19
"DW2020_e1","DW2020_e1_5","SENSE",0,"DemandInstructions",2,3344.798,"Include",20
"DW2020_e1","DW2020_e1_5","BEING",1,"DemandInstructions",3,2154.303,"Include",21
"DW2020_e1","DW2020_e1_5","DEPARTMENT",0,"DemandInstructions",5,2038.234,"Include",22
"DW2020_e1","DW2020_e1_5","SYSTEM",1,"DemandInstructions",4,2136.397,"Include",23
"DW2020_e1","DW2020_e1_5","HUSBAND",1,"DemandInstructions",3,2038.399,"Include",24
"DW2020_e1","DW2020_e1_5","COMPANY",0,"DemandInstructions",2,2537.977,"Include",25
"DW2020_e1","DW2020_e1_5","PICTURE",1,"DemandInstructions",4,2918.389,"Include",26
"DW2020_e1","DW2020_e1_5","AFTERNOON",0,"DemandInstructions",1,2845.719,"Include",27
"DW2020_e1","DW2020_e1_5","CENTURY",1,"DemandInstructions",1,1276.401,"Include",28
"DW2020_e1","DW2020_e1_5","VIEW",0,"DemandInstructions",1,853.0555,"Include",29
"DW2020_e1","DW2020_e1_5","HOT DOGS",1,"DemandInstructions",6,1841.661,"Include",30
"DW2020_e1","DW2020_e1_5","BUILDING",1,"DemandInstructions",1,1749.624,"Include",31
"DW2020_e1","DW2020_e1_5","STATION",0,"DemandInstructions",1,1005.088,"Include",32
"DW2020_e1","DW2020_e1_5","THEORY",0,"DemandInstructions",1,755.2107,"Include",33
"DW2020_e1","DW2020_e1_5","WOMAN",0,"DemandInstructions",2,2956.661,"Include",34
"DW2020_e1","DW2020_e1_5","PART",1,"DemandInstructions",5,2487.642,"Include",35
"DW2020_e1","DW2020_e1_5","WAY",1,"DemandInstructions",3,1895.824,"Include",36
"DW2020_e1","DW2020_e1_5","WALL",0,"DemandInstructions",2,1687.42,"Include",37
"DW2020_e1","DW2020_e1_5","OPERATION",1,"DemandInstructions",5,3120.169,"Include",38
"DW2020_e1","DW2020_e1_5","OFFICE",1,"DemandInstructions",4,2214.625,"Include",39
"DW2020_e1","DW2020_e1_5","NUMBERS",1,"DemandInstructions",3,3457.815,"Include",40
"DW2020_e1","DW2020_e1_5","HOTEL",0,"DemandInstructions",4,4920.213,"Include",41
"DW2020_e1","DW2020_e1_5","DIVISION",1,"DemandInstructions",1,2307.064,"Include",42
"DW2020_e1","DW2020_e1_5","PRESENT",0,"DemandInstructions",2,1836.795,"Include",43
"DW2020_e1","DW2020_e1_5","POSITION",0,"DemandInstructions",1,1153.401,"Include",44
"DW2020_e1","DW2020_e1_5","TROUBLE",0,"DemandInstructions",5,2954.778,"Include",45
"DW2020_e1","DW2020_e1_5","COURT",1,"DemandInstructions",3,2007.397,"Include",46
"DW2020_e1","DW2020_e1_5","MOVEMENT",0,"DemandInstructions",3,1867.457,"Include",47
"DW2020_e1","DW2020_e1_5","STANDARDS",0,"DemandInstructions",3,1085.377,"Include",48
"DW2020_e1","DW2020_e1_5","POOL",1,"DemandInstructions",5,2304.901,"Include",49
"DW2020_e1","DW2020_e1_5","ACTIVITY",1,"DemandInstructions",2,2976.943,"Include",50
"DW2020_e1","DW2020_e1_5","WAR",0,"DemandInstructions",5,2996.913,"Include",51
"DW2020_e1","DW2020_e1_5","WOMEN",0,"DemandInstructions",2,4951.857,"Include",52
"DW2020_e1","DW2020_e1_5","NEWS",0,"DemandInstructions",2,3245.505,"Include",53
"DW2020_e1","DW2020_e1_5","COMMITTEE",0,"DemandInstructions",3,2660.059,"Include",54
"DW2020_e1","DW2020_e1_5","EXISTENCE",1,"DemandInstructions",3,1643.829,"Include",55
"DW2020_e1","DW2020_e1_5","RADIO",0,"DemandInstructions",4,6525.243,"Include",56
"DW2020_e1","DW2020_e1_5","MOUTH",1,"DemandInstructions",3,1801.435,"Include",57
"DW2020_e1","DW2020_e1_5","TREATMENT",0,"DemandInstructions",3,1813.194,"Include",58
"DW2020_e1","DW2020_e1_5","KINGDOM",1,"DemandInstructions",4,1441.901,"Include",59
"DW2020_e1","DW2020_e1_5","SQUARE",1,"DemandInstructions",3,1013.947,"Include",60
"DW2020_e1","DW2020_e1_5","FEET",0,"DemandInstructions",1,1386.725,"Include",61
"DW2020_e1","DW2020_e1_5","SAW",1,"DemandInstructions",1,985.0304,"Include",62
"DW2020_e1","DW2020_e1_5","LANGUAGE",0,"DemandInstructions",1,1416.693,"Include",63
"DW2020_e1","DW2020_e1_5","STEP",0,"DemandInstructions",2,2126.084,"Include",64
"DW2020_e1","DW2020_e1_5","MEETING",0,"DemandInstructions",3,5545.829,"Include",65
"DW2020_e1","DW2020_e1_5","HEALTH",0,"DemandInstructions",3,1791.154,"Include",66
"DW2020_e1","DW2020_e1_5","SUPPORT",1,"DemandInstructions",6,1595.91,"Include",67
"DW2020_e1","DW2020_e1_5","POINT",1,"DemandInstructions",1,1546.26,"Include",68
"DW2020_e1","DW2020_e1_5","COLLEGE",0,"DemandInstructions",1,1002.727,"Include",69
"DW2020_e1","DW2020_e1_5","CENT",0,"DemandInstructions",1,825.7913,"Include",70
"DW2020_e1","DW2020_e1_5","TABLE",1,"DemandInstructions",1,886.9045,"Include",71
"DW2020_e1","DW2020_e1_5","THIRD",0,"DemandInstructions",1,714.8155,"Include",72
"DW2020_e1","DW2020_e1_5","BEGINNING",0,"DemandInstructions",1,694.2022,"Include",73
"DW2020_e1","DW2020_e1_5","PRODUCTION",1,"DemandInstructions",4,3089.744,"Include",74
"DW2020_e1","DW2020_e1_5","FACE",0,"DemandInstructions",3,1793.271,"Include",75
"DW2020_e1","DW2020_e1_5","PRINCIPLE",1,"DemandInstructions",1,1862.519,"Include",76
"DW2020_e1","DW2020_e1_5","PRESSURE",1,"DemandInstructions",1,1073.797,"Include",77
"DW2020_e1","DW2020_e1_5","WORDS",0,"DemandInstructions",4,2076.614,"Include",78
"DW2020_e1","DW2020_e1_5","YEAR",0,"DemandInstructions",2,1589.231,"Include",79
"DW2020_e1","DW2020_e1_5","SPACE",0,"DemandInstructions",5,3608.398,"Include",80
"DW2020_e1","DW2020_e1_5","SCIENCE",1,"DemandInstructions",2,2019.568,"Include",81
"DW2020_e1","DW2020_e1_5","BOY",0,"DemandInstructions",1,1281.33,"Include",82
"DW2020_e1","DW2020_e1_5","FORCE",1,"DemandInstructions",4,2378.817,"Include",83
"DW2020_e1","DW2020_e1_5","BOYS",1,"DemandInstructions",1,1679.946,"Include",84
"DW2020_e1","DW2020_e1_5","EXAMPLE",0,"DemandInstructions",3,2897.382,"Include",85
"DW2020_e1","DW2020_e1_5","MARCH",1,"DemandInstructions",4,3183.762,"Include",86
"DW2020_e1","DW2020_e1_5","GOVERNMENT",1,"DemandInstructions",1,3169.581,"Include",87
"DW2020_e1","DW2020_e1_5","SUMMER",1,"DemandInstructions",4,3595.604,"Include",88
"DW2020_e1","DW2020_e1_5","BED",0,"DemandInstructions",1,1468.791,"Include",89
"DW2020_e1","DW2020_e1_5","SIZE",1,"DemandInstructions",3,1888.808,"Include",90
"DW2020_e1","DW2020_e1_5","VALUES",1,"DemandInstructions",4,1795.597,"Include",91
"DW2020_e1","DW2020_e1_5","PUBLIC",1,"DemandInstructions",3,6712.887,"Include",92
"DW2020_e1","DW2020_e1_5","ANSWER",1,"DemandInstructions",2,1514.64,"Include",93
"DW2020_e1","DW2020_e1_5","EYE",0,"DemandInstructions",2,1284.126,"Include",94
"DW2020_e1","DW2020_e1_5","STAFF",0,"DemandInstructions",2,1183.03,"Include",95
"DW2020_e1","DW2020_e1_5","ACT",1,"DemandInstructions",3,2175.037,"Include",96
"DW2020_e1","DW2020_e1_5","MANNER",0,"DemandInstructions",3,2205.039,"Include",97
"DW2020_e1","DW2020_e1_5","UNIT",1,"DemandInstructions",6,1865.38,"Include",98
"DW2020_e1","DW2020_e1_5","LAND",0,"DemandInstructions",1,2062.312,"Include",99
"DW2020_e1","DW2020_e1_5","FREEDOM",0,"DemandInstructions",1,1328.444,"Include",100
"DW2020_e1","DW2020_e1_5","REACTION",1,"DemandInstructions",2,1872.713,"Include",101
"DW2020_e1","DW2020_e1_5","COUNTY",1,"DemandInstructions",6,4618.353,"Include",102
"DW2020_e1","DW2020_e1_5","DEGREE",0,"DemandInstructions",2,2707.684,"Include",103
"DW2020_e1","DW2020_e1_5","DATA",0,"DemandInstructions",3,2122.817,"Include",104
"DW2020_e1","DW2020_e1_5","SOUND",1,"DemandInstructions",4,2721.484,"Include",105
"DW2020_e1","DW2020_e1_5","INTEREST",1,"DemandInstructions",4,1767.486,"Include",106
"DW2020_e1","DW2020_e1_5","MACHINE",1,"DemandInstructions",3,2653.764,"Include",107
"DW2020_e1","DW2020_e1_5","SITUATION",1,"DemandInstructions",4,2487.331,"Include",108
"DW2020_e1","DW2020_e1_5","CONSIDER",0,"DemandInstructions",2,2245.907,"Include",109
"DW2020_e1","DW2020_e1_5","PERSON",0,"DemandInstructions",1,2567.001,"Include",110
"DW2020_e1","DW2020_e1_5","SIDE",0,"DemandInstructions",4,1771.445,"Include",111
"DW2020_e1","DW2020_e1_5","STREET",1,"DemandInstructions",3,1520.029,"Include",112
"DW2020_e1","DW2020_e1_5","THREE",1,"DemandInstructions",3,2448.035,"Include",113
"DW2020_e1","DW2020_e1_5","FATHER",1,"DemandInstructions",2,1417.522,"Include",114
"DW2020_e1","DW2020_e1_5","FUTURE",0,"DemandInstructions",2,1701.511,"Include",115
"DW2020_e1","DW2020_e1_5","JOB",0,"DemandInstructions",1,1462.268,"Include",116
"DW2020_e1","DW2020_e1_5","TOWN",0,"DemandInstructions",2,1513.609,"Include",117
"DW2020_e1","DW2020_e1_5","HOURS",1,"DemandInstructions",4,2082.758,"Include",118
"DW2020_e1","DW2020_e1_5","PLAN",1,"DemandInstructions",3,2203.563,"Include",119
"DW2020_e1","DW2020_e1_5","BODY",1,"DemandInstructions",4,2567.658,"Include",120
"DW2020_e1","DW2020_e1_5","MARKET",1,"DemandInstructions",3,1203.342,"Include",121
"DW2020_e1","DW2020_e1_5","STRENGTH",0,"DemandInstructions",4,3576.585,"Include",122
"DW2020_e1","DW2020_e1_5","WRITING",0,"DemandInstructions",3,1145.605,"Include",123
"DW2020_e1","DW2020_e1_5","THING",0,"DemandInstructions",3,3056.09,"Include",124
"DW2020_e1","DW2020_e1_5","WIFE",1,"DemandInstructions",3,1974.764,"Include",125
"DW2020_e1","DW2020_e1_5","EXPERIENCE",0,"DemandInstructions",4,1442.688,"Include",126
"DW2020_e1","DW2020_e1_5","PATTERN",0,"DemandInstructions",4,2566.059,"Include",127
"DW2020_e1","DW2020_e1_5","PROPERTY",1,"DemandInstructions",4,3162.393,"Include",128
"DW2020_e1","DW2020_e1_5","DEVELOPMENT",0,"DemandInstructions",4,2730.193,"Include",129
"DW2020_e1","DW2020_e1_5","HEAD",0,"DemandInstructions",4,3816.419,"Include",130
"DW2020_e1","DW2020_e1_5","LOCAL",1,"DemandInstructions",2,2046.453,"Include",131
"DW2020_e1","DW2020_e1_5","IMAGE",1,"DemandInstructions",2,2319.798,"Include",132
"DW2020_e1","DW2020_e1_5","FARM",0,"DemandInstructions",1,2587.971,"Include",133
"DW2020_e1","DW2020_e1_5","THINGS",0,"DemandInstructions",1,1790.506,"Include",134
"DW2020_e1","DW2020_e1_5","EARTH",0,"DemandInstructions",1,1488.986,"Include",135
"DW2020_e1","DW2020_e1_5","HUNDRED",0,"DemandInstructions",1,898.8907,"Include",136
"DW2020_e1","DW2020_e1_5","SCHOOL",0,"DemandInstructions",1,843.1446,"Include",137
"DW2020_e1","DW2020_e1_5","HUMAN",1,"DemandInstructions",2,2878.951,"Include",138
"DW2020_e1","DW2020_e1_5","BILL",0,"DemandInstructions",1,3677.134,"Include",139
"DW2020_e1","DW2020_e1_5","BLUE",0,"DemandInstructions",1,897.4051,"Include",140
"DW2020_e1","DW2020_e1_5","FOOD",1,"DemandInstructions",1,1051.067,"Include",141
"DW2020_e1","DW2020_e1_5","PRESIDENT",0,"DemandInstructions",1,862.5735,"Include",142
"DW2020_e1","DW2020_e1_5","SON",1,"DemandInstructions",6,1649.612,"Include",143
"DW2020_e1","DW2020_e1_5","FUNCTION",0,"DemandInstructions",4,3447.371,"Include",144
"DW2020_e1","DW2020_e1_6","SUMMER",1,"NoDemandInstructions",6,8983.242,"Include",1
"DW2020_e1","DW2020_e1_6","TREES",1,"NoDemandInstructions",6,1424.708,"Include",2
"DW2020_e1","DW2020_e1_6","EXAMPLE",0,"NoDemandInstructions",3,3246.702,"Include",3
"DW2020_e1","DW2020_e1_6","CAR",1,"NoDemandInstructions",6,1760.002,"Include",4
"DW2020_e1","DW2020_e1_6","HALL",1,"NoDemandInstructions",4,2446.753,"Include",5
"DW2020_e1","DW2020_e1_6","TROUBLE",0,"NoDemandInstructions",4,1518.169,"Include",6
"DW2020_e1","DW2020_e1_6","LENGTH",1,"NoDemandInstructions",5,2213.096,"Include",7
"DW2020_e1","DW2020_e1_6","HEART",1,"NoDemandInstructions",3,2808.984,"Include",8
"DW2020_e1","DW2020_e1_6","INTEREST",0,"NoDemandInstructions",3,1645.911,"Include",9
"DW2020_e1","DW2020_e1_6","AGE",1,"NoDemandInstructions",3,1562.151,"Include",10
"DW2020_e1","DW2020_e1_6","BOOK",1,"NoDemandInstructions",5,1464.528,"Include",11
"DW2020_e1","DW2020_e1_6","PRESENT",1,"NoDemandInstructions",5,1563.971,"Include",12
"DW2020_e1","DW2020_e1_6","GEORGE",1,"NoDemandInstructions",5,1058.393,"Include",13
"DW2020_e1","DW2020_e1_6","TYPE",1,"NoDemandInstructions",3,2661.648,"Include",14
"DW2020_e1","DW2020_e1_6","NAME",1,"NoDemandInstructions",4,1966.113,"Include",15
"DW2020_e1","DW2020_e1_6","HAIR",1,"NoDemandInstructions",1,2996.433,"Include",16
"DW2020_e1","DW2020_e1_6","WHITE",0,"NoDemandInstructions",2,3453.906,"Include",17
"DW2020_e1","DW2020_e1_6","CLASS",0,"NoDemandInstructions",3,3887.483,"Include",18
"DW2020_e1","DW2020_e1_6","CLUB",1,"NoDemandInstructions",3,1788.836,"Include",19
"DW2020_e1","DW2020_e1_6","STANDARD",0,"NoDemandInstructions",5,1617.314,"Include",20
"DW2020_e1","DW2020_e1_6","MATERIAL",1,"NoDemandInstructions",5,1400.358,"Include",21
"DW2020_e1","DW2020_e1_6","PROPERTY",1,"NoDemandInstructions",4,1630.731,"Include",22
"DW2020_e1","DW2020_e1_6","COLLEGE",0,"NoDemandInstructions",3,2209.621,"Include",23
"DW2020_e1","DW2020_e1_6","ROAD",0,"NoDemandInstructions",4,1555.971,"Include",24
"DW2020_e1","DW2020_e1_6","ENGLAND",0,"NoDemandInstructions",2,1434.514,"Include",25
"DW2020_e1","DW2020_e1_6","FRONT",1,"NoDemandInstructions",2,2839.845,"Include",26
"DW2020_e1","DW2020_e1_6","LITERATURE",0,"NoDemandInstructions",3,1884.02,"Include",27
"DW2020_e1","DW2020_e1_6","SPACE",0,"NoDemandInstructions",4,1820.975,"Include",28
"DW2020_e1","DW2020_e1_6","EYES",1,"NoDemandInstructions",3,1233.666,"Include",29
"DW2020_e1","DW2020_e1_6","ISSUE",1,"NoDemandInstructions",3,1348.652,"Include",30
"DW2020_e1","DW2020_e1_6","ISLAND",1,"NoDemandInstructions",5,2740.33,"Include",31
"DW2020_e1","DW2020_e1_6","OFFICER",0,"NoDemandInstructions",3,1232.974,"Include",32
"DW2020_e1","DW2020_e1_6","CHURCH",1,"NoDemandInstructions",6,1637.414,"Include",33
"DW2020_e1","DW2020_e1_6","MACHINE",1,"NoDemandInstructions",5,1625.041,"Include",34
"DW2020_e1","DW2020_e1_6","SECRETARY",0,"NoDemandInstructions",3,1252.604,"Include",35
"DW2020_e1","DW2020_e1_6","PART",1,"NoDemandInstructions",2,8158.91,"Include",36
"DW2020_e1","DW2020_e1_6","AFTERNOON",0,"NoDemandInstructions",2,1489.277,"Include",37
"DW2020_e1","DW2020_e1_6","PRESIDENT",0,"NoDemandInstructions",3,2179.047,"Include",38
"DW2020_e1","DW2020_e1_6","AMERICA",0,"NoDemandInstructions",3,929.1435,"Include",39
"DW2020_e1","DW2020_e1_6","STRENGTH",1,"NoDemandInstructions",5,1339.646,"Include",40
"DW2020_e1","DW2020_e1_6","RED",0,"NoDemandInstructions",3,1228.435,"Include",41
"DW2020_e1","DW2020_e1_6","HOTEL",0,"NoDemandInstructions",2,1826.961,"Include",42
"DW2020_e1","DW2020_e1_6","PROCESS",1,"NoDemandInstructions",3,1615.09,"Include",43
"DW2020_e1","DW2020_e1_6","GROUND",1,"NoDemandInstructions",4,1194.524,"Include",44
"DW2020_e1","DW2020_e1_6","RATE",0,"NoDemandInstructions",3,2121.822,"Include",45
"DW2020_e1","DW2020_e1_6","FACE",0,"NoDemandInstructions",3,1025.714,"Include",46
"DW2020_e1","DW2020_e1_6","REASON",0,"NoDemandInstructions",4,2065.52,"Include",47
"DW2020_e1","DW2020_e1_6","MILLION",0,"NoDemandInstructions",2,1980.156,"Include",48
"DW2020_e1","DW2020_e1_6","BEGINNING",1,"NoDemandInstructions",3,1257.137,"Include",49
"DW2020_e1","DW2020_e1_6","HUSBAND",1,"NoDemandInstructions",5,1316.981,"Include",50
"DW2020_e1","DW2020_e1_6","TREATMENT",1,"NoDemandInstructions",3,1206.379,"Include",51
"DW2020_e1","DW2020_e1_6","PICTURE",0,"NoDemandInstructions",4,3323.711,"Include",52
"DW2020_e1","DW2020_e1_6","LAND",1,"NoDemandInstructions",4,1777.317,"Include",53
"DW2020_e1","DW2020_e1_6","MOVEMENT",0,"NoDemandInstructions",3,1655.488,"Include",54
"DW2020_e1","DW2020_e1_6","PLANE",1,"NoDemandInstructions",4,1737.567,"Include",55
"DW2020_e1","DW2020_e1_6","DIRECTION",1,"NoDemandInstructions",4,7865.165,"Include",56
"DW2020_e1","DW2020_e1_6","PLACE",1,"NoDemandInstructions",4,2128.514,"Include",57
"DW2020_e1","DW2020_e1_6","STATEMENT",1,"NoDemandInstructions",5,1094.524,"Include",58
"DW2020_e1","DW2020_e1_6","GIRL",0,"NoDemandInstructions",2,2007.967,"Include",59
"DW2020_e1","DW2020_e1_6","MEANING",1,"NoDemandInstructions",3,4374.133,"Include",60
"DW2020_e1","DW2020_e1_6","POPULATION",1,"NoDemandInstructions",4,7080.547,"Include",61
"DW2020_e1","DW2020_e1_6","SEVEN",1,"NoDemandInstructions",3,1448.962,"Include",62
"DW2020_e1","DW2020_e1_6","BLUE",1,"NoDemandInstructions",3,1261.624,"Include",63
"DW2020_e1","DW2020_e1_6","END",1,"NoDemandInstructions",6,1857.428,"Include",64
"DW2020_e1","DW2020_e1_6","EXPERIENCE",1,"NoDemandInstructions",4,2059.145,"Include",65
"DW2020_e1","DW2020_e1_6","DOOR",0,"NoDemandInstructions",2,1540.643,"Include",66
"DW2020_e1","DW2020_e1_6","HISTORY",0,"NoDemandInstructions",3,1741.364,"Include",67
"DW2020_e1","DW2020_e1_6","DISCUSSION",0,"NoDemandInstructions",4,3231.371,"Include",68
"DW2020_e1","DW2020_e1_6","DIFFERENCE",1,"NoDemandInstructions",3,1431.174,"Include",69
"DW2020_e1","DW2020_e1_6","TERMS",0,"NoDemandInstructions",3,1305.772,"Include",70
"DW2020_e1","DW2020_e1_6","BACK",0,"NoDemandInstructions",4,1851.638,"Include",71
"DW2020_e1","DW2020_e1_6","HORSE",1,"NoDemandInstructions",6,1558.779,"Include",72
"DW2020_e1","DW2020_e1_6","SIX",1,"NoDemandInstructions",4,3607.192,"Include",73
"DW2020_e1","DW2020_e1_6","REST",1,"NoDemandInstructions",2,2474.598,"Include",74
"DW2020_e1","DW2020_e1_6","PEOPLE",0,"NoDemandInstructions",4,2731.265,"Include",75
"DW2020_e1","DW2020_e1_6","CAUSE",1,"NoDemandInstructions",3,3591.247,"Include",76
"DW2020_e1","DW2020_e1_6","STORY",0,"NoDemandInstructions",3,4191.885,"Include",77
"DW2020_e1","DW2020_e1_6","NATURE",0,"NoDemandInstructions",4,1173.689,"Include",78
"DW2020_e1","DW2020_e1_6","OUTSIDE",0,"NoDemandInstructions",4,1532.749,"Include",79
"DW2020_e1","DW2020_e1_6","RESPONSIBILITY",0,"NoDemandInstructions",3,1220.005,"Include",80
"DW2020_e1","DW2020_e1_6","FEET",1,"NoDemandInstructions",2,2104.439,"Include",81
"DW2020_e1","DW2020_e1_6","LIST",0,"NoDemandInstructions",3,6450.367,"Include",82
"DW2020_e1","DW2020_e1_6","SCHOOL",1,"NoDemandInstructions",3,4939.923,"Include",83
"DW2020_e1","DW2020_e1_6","SITUATION",0,"NoDemandInstructions",3,6432.992,"Include",84
"DW2020_e1","DW2020_e1_6","COMMUNITY",0,"NoDemandInstructions",4,1884.078,"Include",85
"DW2020_e1","DW2020_e1_6","POLICE",0,"NoDemandInstructions",4,1716.125,"Include",86
"DW2020_e1","DW2020_e1_6","EARTH",0,"NoDemandInstructions",3,1837.448,"Include",87
"DW2020_e1","DW2020_e1_6","SIDE",0,"NoDemandInstructions",2,2496.564,"Include",88
"DW2020_e1","DW2020_e1_6","PRODUCTION",0,"NoDemandInstructions",3,2254.313,"Include",89
"DW2020_e1","DW2020_e1_6","SPIRIT",0,"NoDemandInstructions",3,3598.696,"Include",90
"DW2020_e1","DW2020_e1_6","YEAR",0,"NoDemandInstructions",4,4097.907,"Include",91
"DW2020_e1","DW2020_e1_6","CHOICE",1,"NoDemandInstructions",4,1422.277,"Include",92
"DW2020_e1","DW2020_e1_6","STEPS",1,"NoDemandInstructions",3,1130.241,"Include",93
"DW2020_e1","DW2020_e1_6","FACT",0,"NoDemandInstructions",3,979.6095,"Include",94
"DW2020_e1","DW2020_e1_6","THOUGHT",0,"NoDemandInstructions",3,2434.495,"Include",95
"DW2020_e1","DW2020_e1_6","TEN",0,"NoDemandInstructions",4,4828.578,"Include",96
"DW2020_e1","DW2020_e1_6","BLOOD",0,"NoDemandInstructions",3,1417.785,"Include",97
"DW2020_e1","DW2020_e1_6","CONGRESS",0,"NoDemandInstructions",4,1725.816,"Include",98
"DW2020_e1","DW2020_e1_6","COURT",0,"NoDemandInstructions",3,2204.087,"Include",99
"DW2020_e1","DW2020_e1_6","COURSE",0,"NoDemandInstructions",4,2440.398,"Include",100
"DW2020_e1","DW2020_e1_6","TEETH",1,"NoDemandInstructions",2,2210.448,"Include",101
"DW2020_e1","DW2020_e1_6","DEATH",0,"NoDemandInstructions",2,1959.738,"Include",102
"DW2020_e1","DW2020_e1_6","MOMENT",0,"NoDemandInstructions",5,1943.468,"Include",103
"DW2020_e1","DW2020_e1_6","CASE",0,"NoDemandInstructions",3,1478.035,"Include",104
"DW2020_e1","DW2020_e1_6","PAPER",1,"NoDemandInstructions",3,9319.78,"Include",105
"DW2020_e1","DW2020_e1_6","WEEK",0,"NoDemandInstructions",4,3585.952,"Include",106
"DW2020_e1","DW2020_e1_6","BOARD",0,"NoDemandInstructions",3,6402.272,"Include",107
"DW2020_e1","DW2020_e1_6","FIRE",1,"NoDemandInstructions",4,883.7583,"Include",108
"DW2020_e1","DW2020_e1_6","UNIVERSITY",1,"NoDemandInstructions",6,1382.269,"Include",109
"DW2020_e1","DW2020_e1_6","LETTERS",1,"NoDemandInstructions",4,2204.302,"Include",110
"DW2020_e1","DW2020_e1_6","PATTERN",1,"NoDemandInstructions",3,4768.21,"Include",111
"DW2020_e1","DW2020_e1_6","DATA",1,"NoDemandInstructions",3,3289.767,"Include",112
"DW2020_e1","DW2020_e1_6","STUDY",0,"NoDemandInstructions",4,1272.322,"Include",113
"DW2020_e1","DW2020_e1_6","STAFF",1,"NoDemandInstructions",3,1683.841,"Include",114
"DW2020_e1","DW2020_e1_6","BILL",0,"NoDemandInstructions",2,1284.103,"Include",115
"DW2020_e1","DW2020_e1_6","AIR",0,"NoDemandInstructions",5,1549.637,"Include",116
"DW2020_e1","DW2020_e1_6","OPPORTUNITY",1,"NoDemandInstructions",3,1405.313,"Include",117
"DW2020_e1","DW2020_e1_6","RANGE",1,"NoDemandInstructions",3,1521.497,"Include",118
"DW2020_e1","DW2020_e1_6","HOUR",1,"NoDemandInstructions",4,930.0007,"Include",119
"DW2020_e1","DW2020_e1_6","PEACE",1,"NoDemandInstructions",3,1352.86,"Include",120
"DW2020_e1","DW2020_e1_6","METHOD",1,"NoDemandInstructions",5,1695.819,"Include",121
"DW2020_e1","DW2020_e1_6","TOWN",0,"NoDemandInstructions",3,1372.418,"Include",122
"DW2020_e1","DW2020_e1_6","HOUSE",0,"NoDemandInstructions",4,4209.856,"Include",123
"DW2020_e1","DW2020_e1_6","STANDARDS",1,"NoDemandInstructions",4,1078.401,"Include",124
"DW2020_e1","DW2020_e1_6","MONEY",1,"NoDemandInstructions",3,1087.604,"Include",125
"DW2020_e1","DW2020_e1_6","COMMITTEE",1,"NoDemandInstructions",2,2138.211,"Include",126
"DW2020_e1","DW2020_e1_6","KNOWLEDGE",0,"NoDemandInstructions",2,1312.24,"Include",127
"DW2020_e1","DW2020_e1_6","FREEDOM",0,"NoDemandInstructions",3,2620.949,"Include",128
"DW2020_e1","DW2020_e1_6","EDUCATION",0,"NoDemandInstructions",5,1935.26,"Include",129
"DW2020_e1","DW2020_e1_6","EFFORT",0,"NoDemandInstructions",3,1502.534,"Include",130
"DW2020_e1","DW2020_e1_6","FINE",0,"NoDemandInstructions",4,2960.337,"Include",131
"DW2020_e1","DW2020_e1_6","FATHER",0,"NoDemandInstructions",3,964.0744,"Include",132
"DW2020_e1","DW2020_e1_6","PERFORMANCE",1,"NoDemandInstructions",4,4514.928,"Include",133
"DW2020_e1","DW2020_e1_6","BIT",0,"NoDemandInstructions",3,1379.638,"Include",134
"DW2020_e1","DW2020_e1_6","MINUTES",1,"NoDemandInstructions",4,1240.214,"Include",135
"DW2020_e1","DW2020_e1_6","MEETING",1,"NoDemandInstructions",5,1417.764,"Include",136
"DW2020_e1","DW2020_e1_6","DECISION",0,"NoDemandInstructions",3,3788.39,"Include",137
"DW2020_e1","DW2020_e1_6","READING",1,"NoDemandInstructions",3,990.0291,"Include",138
"DW2020_e1","DW2020_e1_6","GUN",1,"NoDemandInstructions",2,2012.043,"Include",139
"DW2020_e1","DW2020_e1_6","CHANCE",0,"NoDemandInstructions",3,2836.867,"Include",140
"DW2020_e1","DW2020_e1_6","AMOUNT",1,"NoDemandInstructions",3,1669.628,"Include",141
"DW2020_e1","DW2020_e1_6","CENTURY",0,"NoDemandInstructions",4,1143.081,"Include",142
"DW2020_e1","DW2020_e1_6","ADDITION",0,"NoDemandInstructions",3,1086.189,"Include",143
"DW2020_e1","DW2020_e1_6","AREA",1,"NoDemandInstructions",3,2046.22,"Include",144
"DW2020_e1","DW2020_e1_7","SCHOOL",0,"NoDemandInstructions",1,3339.641,"Include",1
"DW2020_e1","DW2020_e1_7","LENGTH",1,"NoDemandInstructions",2,3966.503,"Include",2
"DW2020_e1","DW2020_e1_7","EIGHT",0,"NoDemandInstructions",1,1424.993,"Include",3
"DW2020_e1","DW2020_e1_7","POINT",1,"NoDemandInstructions",3,3204.358,"Include",4
"DW2020_e1","DW2020_e1_7","HEAD",0,"NoDemandInstructions",1,2427.691,"Include",5
"DW2020_e1","DW2020_e1_7","STANDING",1,"NoDemandInstructions",1,2060.838,"Include",6
"DW2020_e1","DW2020_e1_7","THINGS",0,"NoDemandInstructions",1,1101.733,"Include",7
"DW2020_e1","DW2020_e1_7","REPORT",1,"NoDemandInstructions",3,4805.705,"Include",8
"DW2020_e1","DW2020_e1_7","LOCAL",0,"NoDemandInstructions",1,1555.858,"Include",9
"DW2020_e1","DW2020_e1_7","MILLION",1,"NoDemandInstructions",3,2858.932,"Include",10
"DW2020_e1","DW2020_e1_7","HOUSE",1,"NoDemandInstructions",5,2202.22,"Include",11
"DW2020_e1","DW2020_e1_7","BALL",0,"NoDemandInstructions",1,1422.048,"Include",12
"DW2020_e1","DW2020_e1_7","HOUR",0,"NoDemandInstructions",1,1562.106,"Include",13
"DW2020_e1","DW2020_e1_7","AFTERNOON",1,"NoDemandInstructions",2,3232.489,"Include",14
"DW2020_e1","DW2020_e1_7","CONSIDER",1,"NoDemandInstructions",2,2073.763,"Include",15
"DW2020_e1","DW2020_e1_7","SEASON",0,"NoDemandInstructions",2,1539.306,"Include",16
"DW2020_e1","DW2020_e1_7","ENGLAND",0,"NoDemandInstructions",1,1144.366,"Include",17
"DW2020_e1","DW2020_e1_7","GEORGE",1,"NoDemandInstructions",6,2608.319,"Include",18
"DW2020_e1","DW2020_e1_7","MEETING",1,"NoDemandInstructions",2,3554.517,"Include",19
"DW2020_e1","DW2020_e1_7","FACE",1,"NoDemandInstructions",4,3933.877,"Include",20
"DW2020_e1","DW2020_e1_7","REASON",0,"NoDemandInstructions",4,4201.148,"Include",21
"DW2020_e1","DW2020_e1_7","THREE",1,"NoDemandInstructions",6,2847.671,"Include",22
"DW2020_e1","DW2020_e1_7","UNDERSTANDING",0,"NoDemandInstructions",2,2711.162,"Include",23
"DW2020_e1","DW2020_e1_7","HOSPITAL",1,"NoDemandInstructions",1,1981.998,"Include",24
"DW2020_e1","DW2020_e1_7","DIRECTION",0,"NoDemandInstructions",1,3442.095,"Include",25
"DW2020_e1","DW2020_e1_7","RESEARCH",1,"NoDemandInstructions",4,2416.24,"Include",26
"DW2020_e1","DW2020_e1_7","FAMILY",0,"NoDemandInstructions",1,1211.608,"Include",27
"DW2020_e1","DW2020_e1_7","DISTANCE",1,"NoDemandInstructions",1,1176.877,"Include",28
"DW2020_e1","DW2020_e1_7","PARTY",0,"NoDemandInstructions",1,964.4194,"Include",29
"DW2020_e1","DW2020_e1_7","COMMITTEE",0,"NoDemandInstructions",1,1140.224,"Include",30
"DW2020_e1","DW2020_e1_7","CLUB",1,"NoDemandInstructions",1,1514.716,"Include",31
"DW2020_e1","DW2020_e1_7","PROBLEM",0,"NoDemandInstructions",1,1371.328,"Include",32
"DW2020_e1","DW2020_e1_7","TROUBLE",0,"NoDemandInstructions",1,1153.292,"Include",33
"DW2020_e1","DW2020_e1_7","STUDENT",0,"NoDemandInstructions",4,3393.14,"Include",34
"DW2020_e1","DW2020_e1_7","RIVER",1,"NoDemandInstructions",1,1538.179,"Include",35
"DW2020_e1","DW2020_e1_7","SON",1,"NoDemandInstructions",6,2505.923,"Include",36
"DW2020_e1","DW2020_e1_7","STAFF",1,"NoDemandInstructions",3,5048.521,"Include",37
"DW2020_e1","DW2020_e1_7","STORY",0,"NoDemandInstructions",1,972.065,"Include",38
"DW2020_e1","DW2020_e1_7","LACK",1,"NoDemandInstructions",6,1397.35,"Include",39
"DW2020_e1","DW2020_e1_7","COMPANY",1,"NoDemandInstructions",4,2697.694,"Include",40
"DW2020_e1","DW2020_e1_7","EXPERIMENT",0,"NoDemandInstructions",1,1992.727,"Include",41
"DW2020_e1","DW2020_e1_7","NATION",0,"NoDemandInstructions",1,901.2208,"Include",42
"DW2020_e1","DW2020_e1_7","PAPER",1,"NoDemandInstructions",2,2774.742,"Include",43
"DW2020_e1","DW2020_e1_7","ISLAND",0,"NoDemandInstructions",1,1034.157,"Include",44
"DW2020_e1","DW2020_e1_7","GROUND",1,"NoDemandInstructions",6,1368.743,"Include",45
"DW2020_e1","DW2020_e1_7","MIND",0,"NoDemandInstructions",3,3557.345,"Include",46
"DW2020_e1","DW2020_e1_7","FRIENDS",1,"NoDemandInstructions",6,2526.271,"Include",47
"DW2020_e1","DW2020_e1_7","AMOUNT",1,"NoDemandInstructions",5,2652.768,"Include",48
"DW2020_e1","DW2020_e1_7","MARCH",0,"NoDemandInstructions",1,1182.776,"Include",49
"DW2020_e1","DW2020_e1_7","ACCOUNT",1,"NoDemandInstructions",6,1387.607,"Include",50
"DW2020_e1","DW2020_e1_7","LANGUAGE",0,"NoDemandInstructions",2,3512.585,"Include",51
"DW2020_e1","DW2020_e1_7","LAW",0,"NoDemandInstructions",1,908.4661,"Include",52
"DW2020_e1","DW2020_e1_7","DEVELOPMENT",1,"NoDemandInstructions",5,1958.106,"Include",53
"DW2020_e1","DW2020_e1_7","NAME",1,"NoDemandInstructions",6,1259.848,"Include",54
"DW2020_e1","DW2020_e1_7","WALL",0,"NoDemandInstructions",1,1358.066,"Include",55
"DW2020_e1","DW2020_e1_7","MOUTH",0,"NoDemandInstructions",1,1099.475,"Include",56
"DW2020_e1","DW2020_e1_7","EXPERIENCE",1,"NoDemandInstructions",6,1907.593,"Include",57
"DW2020_e1","DW2020_e1_7","FUNCTION",1,"NoDemandInstructions",3,3290.515,"Include",58
"DW2020_e1","DW2020_e1_7","WIFE",0,"NoDemandInstructions",1,1159.714,"Include",59
"DW2020_e1","DW2020_e1_7","DIFFERENCE",0,"NoDemandInstructions",5,5214.982,"Include",60
"DW2020_e1","DW2020_e1_7","FIELD",1,"NoDemandInstructions",1,884.3312,"Include",61
"DW2020_e1","DW2020_e1_7","RECORD",0,"NoDemandInstructions",4,1981.224,"Include",62
"DW2020_e1","DW2020_e1_7","INSIDE",0,"NoDemandInstructions",4,3762.625,"Include",63
"DW2020_e1","DW2020_e1_7","WEST",1,"NoDemandInstructions",2,3710.393,"Include",64
"DW2020_e1","DW2020_e1_7","CARE",1,"NoDemandInstructions",6,1866.696,"Include",65
"DW2020_e1","DW2020_e1_7","HISTORY",0,"NoDemandInstructions",3,4843.908,"Include",66
"DW2020_e1","DW2020_e1_7","EVENING",1,"NoDemandInstructions",6,2195.406,"Include",67
"DW2020_e1","DW2020_e1_7","HOT DOGS",0,"NoDemandInstructions",1,1752.14,"Include",68
"DW2020_e1","DW2020_e1_7","FREEDOM",0,"NoDemandInstructions",1,1126.744,"Include",69
"DW2020_e1","DW2020_e1_7","MACHINE",0,"NoDemandInstructions",4,1720.009,"Include",70
"DW2020_e1","DW2020_e1_7","POPULATION",1,"NoDemandInstructions",4,2568.916,"Include",71
"DW2020_e1","DW2020_e1_7","LEVEL",1,"NoDemandInstructions",6,2773.362,"Include",72
"DW2020_e1","DW2020_e1_7","TEST",1,"NoDemandInstructions",6,984.9606,"Include",73
"DW2020_e1","DW2020_e1_7","ROAD",0,"NoDemandInstructions",5,1693.819,"Include",74
"DW2020_e1","DW2020_e1_7","STEP",1,"NoDemandInstructions",5,1631.353,"Include",75
"DW2020_e1","DW2020_e1_7","EFFORT",1,"NoDemandInstructions",6,1012.984,"Include",76
"DW2020_e1","DW2020_e1_7","CHILD",1,"NoDemandInstructions",6,1713.785,"Include",77
"DW2020_e1","DW2020_e1_7","COURSE",0,"NoDemandInstructions",2,1721.239,"Include",78
"DW2020_e1","DW2020_e1_7","ADDITION",1,"NoDemandInstructions",2,2353.592,"Include",79
"DW2020_e1","DW2020_e1_7","STATION",1,"NoDemandInstructions",4,2981.559,"Include",80
"DW2020_e1","DW2020_e1_7","WELL",0,"NoDemandInstructions",3,2641.167,"Include",81
"DW2020_e1","DW2020_e1_7","WATER",1,"NoDemandInstructions",2,2012.312,"Include",82
"DW2020_e1","DW2020_e1_7","BLOOD",1,"NoDemandInstructions",6,1944.688,"Include",83
"DW2020_e1","DW2020_e1_7","ROOM",1,"NoDemandInstructions",2,7543.857,"Include",84
"DW2020_e1","DW2020_e1_7","OPERATION",1,"NoDemandInstructions",3,2779.404,"Include",85
"DW2020_e1","DW2020_e1_7","SPACE",0,"NoDemandInstructions",1,2765.286,"Include",86
"DW2020_e1","DW2020_e1_7","RELIGION",1,"NoDemandInstructions",1,1474.874,"Include",87
"DW2020_e1","DW2020_e1_7","SCENE",0,"NoDemandInstructions",2,4061.524,"Include",88
"DW2020_e1","DW2020_e1_7","WHITE",0,"NoDemandInstructions",1,1194.793,"Include",89
"DW2020_e1","DW2020_e1_7","TRUTH",0,"NoDemandInstructions",5,4232.99,"Include",90
"DW2020_e1","DW2020_e1_7","LABOR",0,"NoDemandInstructions",1,2224.276,"Include",91
"DW2020_e1","DW2020_e1_7","STAGE",1,"NoDemandInstructions",5,1818.469,"Include",92
"DW2020_e1","DW2020_e1_7","DATA",1,"NoDemandInstructions",6,1408.679,"Include",93
"DW2020_e1","DW2020_e1_7","PURPOSE",1,"NoDemandInstructions",3,3070.271,"Include",94
"DW2020_e1","DW2020_e1_7","LAND",1,"NoDemandInstructions",1,1636.902,"Include",95
"DW2020_e1","DW2020_e1_7","TRIAL",0,"NoDemandInstructions",1,1351.269,"Include",96
"DW2020_e1","DW2020_e1_7","ATTITUDE",0,"NoDemandInstructions",2,2015.236,"Include",97
"DW2020_e1","DW2020_e1_7","SECTION",1,"NoDemandInstructions",6,2210.774,"Include",98
"DW2020_e1","DW2020_e1_7","COUNTRY",1,"NoDemandInstructions",2,3559.576,"Include",99
"DW2020_e1","DW2020_e1_7","MINUTES",0,"NoDemandInstructions",1,1331.58,"Include",100
"DW2020_e1","DW2020_e1_7","SUNDAY",1,"NoDemandInstructions",3,4667.829,"Include",101
"DW2020_e1","DW2020_e1_7","WRITING",1,"NoDemandInstructions",4,2976.334,"Include",102
"DW2020_e1","DW2020_e1_7","INDUSTRY",0,"NoDemandInstructions",1,1125.236,"Include",103
"DW2020_e1","DW2020_e1_7","POOL",0,"NoDemandInstructions",1,5063.318,"Include",104
"DW2020_e1","DW2020_e1_7","WINDOW",0,"NoDemandInstructions",4,2596.409,"Include",105
"DW2020_e1","DW2020_e1_7","BUSINESS",0,"NoDemandInstructions",1,1481.601,"Include",106
"DW2020_e1","DW2020_e1_7","PERIOD",0,"NoDemandInstructions",1,3260.192,"Include",107
"DW2020_e1","DW2020_e1_7","PEACE",0,"NoDemandInstructions",1,2190.303,"Include",108
"DW2020_e1","DW2020_e1_7","SEVEN",1,"NoDemandInstructions",6,1610.749,"Include",109
"DW2020_e1","DW2020_e1_7","AREA",0,"NoDemandInstructions",3,6399.815,"Include",110
"DW2020_e1","DW2020_e1_7","PLANT",0,"NoDemandInstructions",1,1228.154,"Include",111
"DW2020_e1","DW2020_e1_7","PROGRAM",1,"NoDemandInstructions",5,2602.739,"Include",112
"DW2020_e1","DW2020_e1_7","MARKET",1,"NoDemandInstructions",1,1365.212,"Include",113
"DW2020_e1","DW2020_e1_7","LETTER",1,"NoDemandInstructions",6,1092.681,"Include",114
"DW2020_e1","DW2020_e1_7","AMERICA",0,"NoDemandInstructions",1,1008.865,"Include",115
"DW2020_e1","DW2020_e1_7","MOVEMENT",0,"NoDemandInstructions",2,4214.978,"Include",116
"DW2020_e1","DW2020_e1_7","OPPORTUNITY",1,"NoDemandInstructions",6,1381.618,"Include",117
"DW2020_e1","DW2020_e1_7","GUN",1,"NoDemandInstructions",5,3571.021,"Include",118
"DW2020_e1","DW2020_e1_7","EYE",0,"NoDemandInstructions",1,2213.568,"Include",119
"DW2020_e1","DW2020_e1_7","PIECE",0,"NoDemandInstructions",2,3365.919,"Include",120
"DW2020_e1","DW2020_e1_7","NIGHT",1,"NoDemandInstructions",5,4744.95,"Include",121
"DW2020_e1","DW2020_e1_7","DECISION",1,"NoDemandInstructions",6,1138.001,"Include",122
"DW2020_e1","DW2020_e1_7","DEATH",1,"NoDemandInstructions",6,1754.387,"Include",123
"DW2020_e1","DW2020_e1_7","HOME",0,"NoDemandInstructions",6,1617.42,"Include",124
"DW2020_e1","DW2020_e1_7","DEFENSE",0,"NoDemandInstructions",4,1668.757,"Include",125
"DW2020_e1","DW2020_e1_7","VALUE",0,"NoDemandInstructions",2,2980.999,"Include",126
"DW2020_e1","DW2020_e1_7","OFFICE",1,"NoDemandInstructions",5,4088.093,"Include",127
"DW2020_e1","DW2020_e1_7","DATE",1,"NoDemandInstructions",3,3388.342,"Include",128
"DW2020_e1","DW2020_e1_7","EFFECT",0,"NoDemandInstructions",6,1669.663,"Include",129
"DW2020_e1","DW2020_e1_7","MONEY",0,"NoDemandInstructions",2,2935.489,"Include",130
"DW2020_e1","DW2020_e1_7","CHILDREN",1,"NoDemandInstructions",6,1180.646,"Include",131
"DW2020_e1","DW2020_e1_7","INCOME",0,"NoDemandInstructions",2,2508.477,"Include",132
"DW2020_e1","DW2020_e1_7","ORGANIZATION",1,"NoDemandInstructions",6,2338.882,"Include",133
"DW2020_e1","DW2020_e1_7","MATTER",1,"NoDemandInstructions",5,2121.992,"Include",134
"DW2020_e1","DW2020_e1_7","EYES",1,"NoDemandInstructions",2,10802.77,"Include",135
"DW2020_e1","DW2020_e1_7","QUESTION",0,"NoDemandInstructions",2,3015.151,"Include",136
"DW2020_e1","DW2020_e1_7","UNIT",0,"NoDemandInstructions",4,2921.617,"Include",137
"DW2020_e1","DW2020_e1_7","SOUND",0,"NoDemandInstructions",2,2344.321,"Include",138
"DW2020_e1","DW2020_e1_7","NORTH",1,"NoDemandInstructions",3,3615.857,"Include",139
"DW2020_e1","DW2020_e1_7","FRONT",1,"NoDemandInstructions",2,2713.19,"Include",140
"DW2020_e1","DW2020_e1_7","CITY",0,"NoDemandInstructions",1,1637.312,"Include",141
"DW2020_e1","DW2020_e1_7","FINE",0,"NoDemandInstructions",1,1323.062,"Include",142
"DW2020_e1","DW2020_e1_7","LINE",0,"NoDemandInstructions",3,3299.831,"Include",143
"DW2020_e1","DW2020_e1_7","STREET",0,"NoDemandInstructions",2,2346.433,"Include",144
"DW2020_e1","DW2020_e1_8","ATTENTION",0,"DemandInstructions",2,6363.513,"Include",1
"DW2020_e1","DW2020_e1_8","IDEA",1,"DemandInstructions",6,1850.635,"Include",2
"DW2020_e1","DW2020_e1_8","EVIDENCE",0,"DemandInstructions",1,2696.131,"Include",3
"DW2020_e1","DW2020_e1_8","WEEK",1,"DemandInstructions",1,1417.792,"Include",4
"DW2020_e1","DW2020_e1_8","ELEMENTS",0,"DemandInstructions",1,2080.469,"Include",5
"DW2020_e1","DW2020_e1_8","JUSTICE",1,"DemandInstructions",6,1093.352,"Include",6
"DW2020_e1","DW2020_e1_8","FORM",1,"DemandInstructions",6,875.6367,"Include",7
"DW2020_e1","DW2020_e1_8","LABOR",1,"DemandInstructions",6,1010.201,"Include",8
"DW2020_e1","DW2020_e1_8","NATION",1,"DemandInstructions",6,1123.827,"Include",9
"DW2020_e1","DW2020_e1_8","RECORD",0,"DemandInstructions",2,7287.992,"Include",10
"DW2020_e1","DW2020_e1_8","FRONT",1,"DemandInstructions",1,1959.924,"Include",11
"DW2020_e1","DW2020_e1_8","SUPPORT",1,"DemandInstructions",3,3417.835,"Include",12
"DW2020_e1","DW2020_e1_8","OFFICE",0,"DemandInstructions",6,2509.498,"Include",13
"DW2020_e1","DW2020_e1_8","SAW",1,"DemandInstructions",2,1959.721,"Include",14
"DW2020_e1","DW2020_e1_8","CENTURY",0,"DemandInstructions",3,2072.857,"Include",15
"DW2020_e1","DW2020_e1_8","SIX",0,"DemandInstructions",2,3477.03,"Include",16
"DW2020_e1","DW2020_e1_8","BOARD",1,"DemandInstructions",5,2398.4,"Include",17
"DW2020_e1","DW2020_e1_8","HUSBAND",1,"DemandInstructions",2,1909.409,"Include",18
"DW2020_e1","DW2020_e1_8","HALL",0,"DemandInstructions",3,3335.874,"Include",19
"DW2020_e1","DW2020_e1_8","VOLUME",1,"DemandInstructions",2,2414.992,"Include",20
"DW2020_e1","DW2020_e1_8","LIST",1,"DemandInstructions",5,1852.757,"Include",21
"DW2020_e1","DW2020_e1_8","WISH",1,"DemandInstructions",2,1529.872,"Include",22
"DW2020_e1","DW2020_e1_8","HOT DOGS",1,"DemandInstructions",2,4468.57,"Include",23
"DW2020_e1","DW2020_e1_8","MEANING",0,"DemandInstructions",3,2332.857,"Include",24
"DW2020_e1","DW2020_e1_8","WATER",0,"DemandInstructions",1,1365.938,"Include",25
"DW2020_e1","DW2020_e1_8","SEASON",0,"DemandInstructions",1,5334.987,"Include",26
"DW2020_e1","DW2020_e1_8","GREEN",1,"DemandInstructions",1,1194.902,"Include",27
"DW2020_e1","DW2020_e1_8","CARE",1,"DemandInstructions",3,1803.405,"Include",28
"DW2020_e1","DW2020_e1_8","HOTEL",1,"DemandInstructions",5,1666.831,"Include",29
"DW2020_e1","DW2020_e1_8","HOURS",1,"DemandInstructions",6,1544.492,"Include",30
"DW2020_e1","DW2020_e1_8","FAMILY",1,"DemandInstructions",6,1762.575,"Include",31
"DW2020_e1","DW2020_e1_8","DISTANCE",0,"DemandInstructions",6,1827.406,"Include",32
"DW2020_e1","DW2020_e1_8","FLOOR",0,"DemandInstructions",3,1298.028,"Include",33
"DW2020_e1","DW2020_e1_8","COMPANY",0,"DemandInstructions",3,2534.435,"Include",34
"DW2020_e1","DW2020_e1_8","SERVICE",0,"DemandInstructions",4,4126.554,"Include",35
"DW2020_e1","DW2020_e1_8","DAY",0,"DemandInstructions",2,5074.457,"Include",36
"DW2020_e1","DW2020_e1_8","THINGS",0,"DemandInstructions",1,1224.37,"Include",37
"DW2020_e1","DW2020_e1_8","EXPERIMENT",0,"DemandInstructions",3,2047.467,"Include",38
"DW2020_e1","DW2020_e1_8","LIGHT",0,"DemandInstructions",3,4413.2,"Include",39
"DW2020_e1","DW2020_e1_8","DIFFERENCE",1,"DemandInstructions",6,1350.134,"Include",40
"DW2020_e1","DW2020_e1_8","CORNER",0,"DemandInstructions",2,1751.661,"Include",41
"DW2020_e1","DW2020_e1_8","SOUND",0,"DemandInstructions",2,1551.842,"Include",42
"DW2020_e1","DW2020_e1_8","TABLE",1,"DemandInstructions",6,1425.054,"Include",43
"DW2020_e1","DW2020_e1_8","RANGE",0,"DemandInstructions",3,3471.898,"Include",44
"DW2020_e1","DW2020_e1_8","SON",1,"DemandInstructions",6,1577.605,"Include",45
"DW2020_e1","DW2020_e1_8","DECISION",1,"DemandInstructions",5,1393.183,"Include",46
"DW2020_e1","DW2020_e1_8","HOUR",1,"DemandInstructions",3,1720.859,"Include",47
"DW2020_e1","DW2020_e1_8","STANDARD",0,"DemandInstructions",5,2611.721,"Include",48
"DW2020_e1","DW2020_e1_8","POWER",0,"DemandInstructions",6,1313.487,"Include",49
"DW2020_e1","DW2020_e1_8","LENGTH",0,"DemandInstructions",6,2237.321,"Include",50
"DW2020_e1","DW2020_e1_8","LOCAL",0,"DemandInstructions",3,2027.376,"Include",51
"DW2020_e1","DW2020_e1_8","HUNDRED",1,"DemandInstructions",6,1384.875,"Include",52
"DW2020_e1","DW2020_e1_8","EYES",0,"DemandInstructions",3,2217.801,"Include",53
"DW2020_e1","DW2020_e1_8","NIGHT",0,"DemandInstructions",3,1735.052,"Include",54
"DW2020_e1","DW2020_e1_8","BILL",0,"DemandInstructions",2,2272.549,"Include",55
"DW2020_e1","DW2020_e1_8","COUNTY",0,"DemandInstructions",5,2578.817,"Include",56
"DW2020_e1","DW2020_e1_8","WORDS",0,"DemandInstructions",5,1625.601,"Include",57
"DW2020_e1","DW2020_e1_8","DEVELOPMENT",0,"DemandInstructions",2,3304.737,"Include",58
"DW2020_e1","DW2020_e1_8","MARCH",1,"DemandInstructions",5,2544.313,"Include",59
"DW2020_e1","DW2020_e1_8","INSIDE",1,"DemandInstructions",4,1857.186,"Include",60
"DW2020_e1","DW2020_e1_8","BUSINESS",0,"DemandInstructions",5,2182.743,"Include",61
"DW2020_e1","DW2020_e1_8","RATE",0,"DemandInstructions",4,1813.127,"Include",62
"DW2020_e1","DW2020_e1_8","POLICY",1,"DemandInstructions",4,1572.126,"Include",63
"DW2020_e1","DW2020_e1_8","FOUR",1,"DemandInstructions",2,1829.21,"Include",64
"DW2020_e1","DW2020_e1_8","ISSUE",0,"DemandInstructions",2,1385.096,"Include",65
"DW2020_e1","DW2020_e1_8","STUDY",0,"DemandInstructions",6,1161.369,"Include",66
"DW2020_e1","DW2020_e1_8","WOMAN",0,"DemandInstructions",3,3156.072,"Include",67
"DW2020_e1","DW2020_e1_8","RIVER",1,"DemandInstructions",6,1354.877,"Include",68
"DW2020_e1","DW2020_e1_8","PICTURE",0,"DemandInstructions",5,1973.185,"Include",69
"DW2020_e1","DW2020_e1_8","DISCUSSION",0,"DemandInstructions",6,1933.543,"Include",70
"DW2020_e1","DW2020_e1_8","WHITE",0,"DemandInstructions",1,1639.416,"Include",71
"DW2020_e1","DW2020_e1_8","SYSTEM",1,"DemandInstructions",4,2846.57,"Include",72
"DW2020_e1","DW2020_e1_8","TEETH",0,"DemandInstructions",2,1442.158,"Include",73
"DW2020_e1","DW2020_e1_8","FINE",1,"DemandInstructions",6,1968.057,"Include",74
"DW2020_e1","DW2020_e1_8","WRITING",0,"DemandInstructions",2,2360.702,"Include",75
"DW2020_e1","DW2020_e1_8","ROAD",0,"DemandInstructions",3,1565.243,"Include",76
"DW2020_e1","DW2020_e1_8","METHOD",0,"DemandInstructions",3,1053.933,"Include",77
"DW2020_e1","DW2020_e1_8","SCENE",0,"DemandInstructions",3,2212.061,"Include",78
"DW2020_e1","DW2020_e1_8","NUMBERS",1,"DemandInstructions",4,2026.678,"Include",79
"DW2020_e1","DW2020_e1_8","KNOWLEDGE",1,"DemandInstructions",5,1719.656,"Include",80
"DW2020_e1","DW2020_e1_8","DIRECTOR",0,"DemandInstructions",3,1330.832,"Include",81
"DW2020_e1","DW2020_e1_8","ANALYSIS",0,"DemandInstructions",4,2518.24,"Include",82
"DW2020_e1","DW2020_e1_8","RACE",1,"DemandInstructions",6,1943.729,"Include",83
"DW2020_e1","DW2020_e1_8","EYE",0,"DemandInstructions",3,1928.113,"Include",84
"DW2020_e1","DW2020_e1_8","MONTH",1,"DemandInstructions",6,1546.022,"Include",85
"DW2020_e1","DW2020_e1_8","FEELING",1,"DemandInstructions",3,2028.083,"Include",86
"DW2020_e1","DW2020_e1_8","POPULATION",0,"DemandInstructions",4,1722.387,"Include",87
"DW2020_e1","DW2020_e1_8","FUTURE",1,"DemandInstructions",6,1645.356,"Include",88
"DW2020_e1","DW2020_e1_8","AFTERNOON",1,"DemandInstructions",3,1330.301,"Include",89
"DW2020_e1","DW2020_e1_8","POLICE",0,"DemandInstructions",2,1581.257,"Include",90
"DW2020_e1","DW2020_e1_8","STAFF",1,"DemandInstructions",3,7749.939,"Include",91
"DW2020_e1","DW2020_e1_8","YEAR",0,"DemandInstructions",4,1666.73,"Include",92
"DW2020_e1","DW2020_e1_8","ANSWER",0,"DemandInstructions",4,1071.404,"Include",93
"DW2020_e1","DW2020_e1_8","PERIOD",0,"DemandInstructions",2,3564.897,"Include",94
"DW2020_e1","DW2020_e1_8","FOOD",1,"DemandInstructions",6,1338.16,"Include",95
"DW2020_e1","DW2020_e1_8","TAX",1,"DemandInstructions",4,2196.433,"Include",96
"DW2020_e1","DW2020_e1_8","BROWN",1,"DemandInstructions",6,1131.76,"Include",97
"DW2020_e1","DW2020_e1_8","CUT",1,"DemandInstructions",6,999.3315,"Include",98
"DW2020_e1","DW2020_e1_8","ACTION",0,"DemandInstructions",4,1456.999,"Include",99
"DW2020_e1","DW2020_e1_8","COURSE",0,"DemandInstructions",4,2015.005,"Include",100
"DW2020_e1","DW2020_e1_8","QUESTION",1,"DemandInstructions",3,1405.218,"Include",101
"DW2020_e1","DW2020_e1_8","SENSE",1,"DemandInstructions",3,6645.689,"Include",102
"DW2020_e1","DW2020_e1_8","EFFECT",0,"DemandInstructions",2,1762.232,"Include",103
"DW2020_e1","DW2020_e1_8","OUTSIDE",0,"DemandInstructions",3,2858.991,"Include",104
"DW2020_e1","DW2020_e1_8","MILLION",1,"DemandInstructions",3,2831.075,"Include",105
"DW2020_e1","DW2020_e1_8","DEGREE",1,"DemandInstructions",5,1762.547,"Include",106
"DW2020_e1","DW2020_e1_8","HOME",0,"DemandInstructions",3,3426.638,"Include",107
"DW2020_e1","DW2020_e1_8","SIZE",0,"DemandInstructions",1,1365.772,"Include",108
"DW2020_e1","DW2020_e1_8","FACT",1,"DemandInstructions",3,1671.23,"Include",109
"DW2020_e1","DW2020_e1_8","VALUES",0,"DemandInstructions",3,2051.634,"Include",110
"DW2020_e1","DW2020_e1_8","END",0,"DemandInstructions",3,1992.61,"Include",111
"DW2020_e1","DW2020_e1_8","JOB",1,"DemandInstructions",3,1288.237,"Include",112
"DW2020_e1","DW2020_e1_8","PLANE",1,"DemandInstructions",3,1627.787,"Include",113
"DW2020_e1","DW2020_e1_8","REPORT",1,"DemandInstructions",5,1483.109,"Include",114
"DW2020_e1","DW2020_e1_8","SECTION",0,"DemandInstructions",3,1656.483,"Include",115
"DW2020_e1","DW2020_e1_8","AGE",0,"DemandInstructions",3,1140.56,"Include",116
"DW2020_e1","DW2020_e1_8","LAW",0,"DemandInstructions",4,2527.624,"Include",117
"DW2020_e1","DW2020_e1_8","POSITION",0,"DemandInstructions",3,1321.057,"Include",118
"DW2020_e1","DW2020_e1_8","GROWTH",1,"DemandInstructions",4,3523.254,"Include",119
"DW2020_e1","DW2020_e1_8","NUMBER",1,"DemandInstructions",6,1322.75,"Include",120
"DW2020_e1","DW2020_e1_8","LINE",1,"DemandInstructions",4,1173.64,"Include",121
"DW2020_e1","DW2020_e1_8","WAY",1,"DemandInstructions",3,1343.067,"Include",122
"DW2020_e1","DW2020_e1_8","SPACE",1,"DemandInstructions",3,2081.267,"Include",123
"DW2020_e1","DW2020_e1_8","EXAMPLE",1,"DemandInstructions",3,1380.841,"Include",124
"DW2020_e1","DW2020_e1_8","CHILDREN",0,"DemandInstructions",3,1221.856,"Include",125
"DW2020_e1","DW2020_e1_8","ORGANIZATION",1,"DemandInstructions",4,1829.621,"Include",126
"DW2020_e1","DW2020_e1_8","CHURCH",1,"DemandInstructions",3,1459.758,"Include",127
"DW2020_e1","DW2020_e1_8","SOCIETY",1,"DemandInstructions",4,1312.283,"Include",128
"DW2020_e1","DW2020_e1_8","FORCE",1,"DemandInstructions",4,1267.507,"Include",129
"DW2020_e1","DW2020_e1_8","ART",1,"DemandInstructions",4,1664.679,"Include",130
"DW2020_e1","DW2020_e1_8","CONSIDER",0,"DemandInstructions",3,2412.992,"Include",131
"DW2020_e1","DW2020_e1_8","ACT",1,"DemandInstructions",3,4451.124,"Include",132
"DW2020_e1","DW2020_e1_8","BUILDING",1,"DemandInstructions",4,1363.554,"Include",133
"DW2020_e1","DW2020_e1_8","PRICE",0,"DemandInstructions",3,3444.198,"Include",134
"DW2020_e1","DW2020_e1_8","THIRD",1,"DemandInstructions",5,1943.046,"Include",135
"DW2020_e1","DW2020_e1_8","WALL",0,"DemandInstructions",3,4057.192,"Include",136
"DW2020_e1","DW2020_e1_8","BEGINNING",0,"DemandInstructions",4,1714.249,"Include",137
"DW2020_e1","DW2020_e1_8","GEORGE",1,"DemandInstructions",2,1461.75,"Include",138
"DW2020_e1","DW2020_e1_8","HAIR",1,"DemandInstructions",2,1091.827,"Include",139
"DW2020_e1","DW2020_e1_8","CLASS",1,"DemandInstructions",5,2008.721,"Include",140
"DW2020_e1","DW2020_e1_8","PATTERN",1,"DemandInstructions",6,1063.634,"Include",141
"DW2020_e1","DW2020_e1_8","DEPARTMENT",0,"DemandInstructions",5,1589.843,"Include",142
"DW2020_e1","DW2020_e1_8","STEPS",0,"DemandInstructions",2,1909.056,"Include",143
"DW2020_e1","DW2020_e1_8","NORTH",1,"DemandInstructions",4,1632.337,"Include",144
"DW2020_e1","DW2020_e1_9","PEOPLE",1,"NoDemandInstructions",6,4630.43,"Include",1
"DW2020_e1","DW2020_e1_9","HEALTH",0,"NoDemandInstructions",1,2595.879,"Include",2
"DW2020_e1","DW2020_e1_9","FAMILY",0,"NoDemandInstructions",2,7982.267,"Include",3
"DW2020_e1","DW2020_e1_9","SERIES",1,"NoDemandInstructions",3,3748.675,"Include",4
"DW2020_e1","DW2020_e1_9","READING",1,"NoDemandInstructions",3,2318.169,"Include",5
"DW2020_e1","DW2020_e1_9","KNOWLEDGE",0,"NoDemandInstructions",3,2514.809,"Include",6
"DW2020_e1","DW2020_e1_9","TROUBLE",1,"NoDemandInstructions",4,3768.092,"Include",7
"DW2020_e1","DW2020_e1_9","WELL",0,"NoDemandInstructions",3,1877.988,"Include",8
"DW2020_e1","DW2020_e1_9","MONTH",0,"NoDemandInstructions",3,1749.443,"Include",9
"DW2020_e1","DW2020_e1_9","PERSON",0,"NoDemandInstructions",4,2840.762,"Include",10
"DW2020_e1","DW2020_e1_9","HOTEL",1,"NoDemandInstructions",6,1366.7,"Include",11
"DW2020_e1","DW2020_e1_9","HUSBAND",1,"NoDemandInstructions",6,1059.136,"Include",12
"DW2020_e1","DW2020_e1_9","THOUGHT",0,"NoDemandInstructions",2,1901.709,"Include",13
"DW2020_e1","DW2020_e1_9","INDUSTRY",0,"NoDemandInstructions",2,1218.918,"Include",14
"DW2020_e1","DW2020_e1_9","RESPONSIBILITY",0,"NoDemandInstructions",2,1717.13,"Include",15
"DW2020_e1","DW2020_e1_9","BUILDING",1,"NoDemandInstructions",2,2059.305,"Include",16
"DW2020_e1","DW2020_e1_9","LAW",0,"NoDemandInstructions",2,2001.823,"Include",17
"DW2020_e1","DW2020_e1_9","HALL",0,"NoDemandInstructions",2,1510.101,"Include",18
"DW2020_e1","DW2020_e1_9","FINE",0,"NoDemandInstructions",2,1843.776,"Include",19
"DW2020_e1","DW2020_e1_9","BOYS",0,"NoDemandInstructions",2,1586.609,"Include",20
"DW2020_e1","DW2020_e1_9","DEPARTMENT",0,"NoDemandInstructions",4,2406.398,"Include",21
"DW2020_e1","DW2020_e1_9","GUN",1,"NoDemandInstructions",2,1745.749,"Include",22
"DW2020_e1","DW2020_e1_9","ORGANIZATION",0,"NoDemandInstructions",5,2251.989,"Include",23
"DW2020_e1","DW2020_e1_9","STANDING",0,"NoDemandInstructions",3,3091.795,"Include",24
"DW2020_e1","DW2020_e1_9","GAME",1,"NoDemandInstructions",5,3090.627,"Include",25
"DW2020_e1","DW2020_e1_9","NATURE",0,"NoDemandInstructions",3,2927.963,"Include",26
"DW2020_e1","DW2020_e1_9","ART",1,"NoDemandInstructions",3,1252.066,"Include",27
"DW2020_e1","DW2020_e1_9","ENGLAND",1,"NoDemandInstructions",6,1343.257,"Include",28
"DW2020_e1","DW2020_e1_9","FUNCTION",1,"NoDemandInstructions",6,797.4724,"Include",29
"DW2020_e1","DW2020_e1_9","ANSWER",0,"NoDemandInstructions",3,2187.159,"Include",30
"DW2020_e1","DW2020_e1_9","DEFENSE",0,"NoDemandInstructions",5,4917.514,"Include",31
"DW2020_e1","DW2020_e1_9","LANGUAGE",0,"NoDemandInstructions",6,1173.29,"Include",32
"DW2020_e1","DW2020_e1_9","CLUB",1,"NoDemandInstructions",2,2307.858,"Include",33
"DW2020_e1","DW2020_e1_9","QUALITY",0,"NoDemandInstructions",2,2024.596,"Include",34
"DW2020_e1","DW2020_e1_9","TEMPERATURE",0,"NoDemandInstructions",5,2864.483,"Include",35
"DW2020_e1","DW2020_e1_9","COUPLE",1,"NoDemandInstructions",6,1456.549,"Include",36
"DW2020_e1","DW2020_e1_9","HOSPITAL",1,"NoDemandInstructions",6,1250.57,"Include",37
"DW2020_e1","DW2020_e1_9","ORDER",0,"NoDemandInstructions",4,3835.489,"Include",38
"DW2020_e1","DW2020_e1_9","FELT",1,"NoDemandInstructions",4,1610.7,"Include",39
"DW2020_e1","DW2020_e1_9","TERMS",1,"NoDemandInstructions",6,1317.685,"Include",40
"DW2020_e1","DW2020_e1_9","STAFF",0,"NoDemandInstructions",5,2219.505,"Include",41
"DW2020_e1","DW2020_e1_9","COUNTY",1,"NoDemandInstructions",6,1388.51,"Include",42
"DW2020_e1","DW2020_e1_9","HEAD",0,"NoDemandInstructions",3,2729.993,"Include",43
"DW2020_e1","DW2020_e1_9","FEAR",0,"NoDemandInstructions",5,1781.964,"Include",44
"DW2020_e1","DW2020_e1_9","FEET",1,"NoDemandInstructions",3,1521.032,"Include",45
"DW2020_e1","DW2020_e1_9","NOTE",1,"NoDemandInstructions",3,1760.537,"Include",46
"DW2020_e1","DW2020_e1_9","DAY",0,"NoDemandInstructions",3,2451.476,"Include",47
"DW2020_e1","DW2020_e1_9","BED",0,"NoDemandInstructions",5,7411.48,"Include",48
"DW2020_e1","DW2020_e1_9","NIGHT",1,"NoDemandInstructions",3,3771.725,"Include",49
"DW2020_e1","DW2020_e1_9","TEETH",1,"NoDemandInstructions",4,2466.974,"Include",50
"DW2020_e1","DW2020_e1_9","TRUTH",1,"NoDemandInstructions",6,1379.54,"Include",51
