"exp","id","trial","item","isold","condition1","rating","RT","excluding"
"FO2016_e2a","FO2016_e2a_1","1","prayer",0,"New",1,3434,"Include"
"FO2016_e2a","FO2016_e2a_1","2","cabin",1,"Aloud",4,6250,"Include"
"FO2016_e2a","FO2016_e2a_1","3","idea",0,"New",6,3706,"Include"
"FO2016_e2a","FO2016_e2a_1","4","cotton",0,"New",2,4530,"Include"
"FO2016_e2a","FO2016_e2a_1","5","river",1,"Aloud",5,5434,"Include"
"FO2016_e2a","FO2016_e2a_1","6","competition",1,"Aloud",4,7066,"Include"
"FO2016_e2a","FO2016_e2a_1","7","material",1,"Aloud",6,3250,"Include"
"FO2016_e2a","FO2016_e2a_1","8","facility",0,"New",4,2514,"Include"
"FO2016_e2a","FO2016_e2a_1","9","joke",0,"New",6,2978,"Include"
"FO2016_e2a","FO2016_e2a_1","10","inhabitant",0,"New",1,1298,"Include"
"FO2016_e2a","FO2016_e2a_1","11","rod",1,"Silent",5,3178,"Include"
"FO2016_e2a","FO2016_e2a_1","12","misery",1,"Aloud",6,1202,"Include"
"FO2016_e2a","FO2016_e2a_1","13","money",0,"New",5,1546,"Include"
"FO2016_e2a","FO2016_e2a_1","14","winter",1,"Aloud",6,1330,"Include"
"FO2016_e2a","FO2016_e2a_1","15","charter",1,"Silent",3,2834,"Include"
"FO2016_e2a","FO2016_e2a_1","16","iron",1,"Silent",5,2354,"Include"
"FO2016_e2a","FO2016_e2a_1","17","form",0,"New",3,5770,"Include"
"FO2016_e2a","FO2016_e2a_1","18","monarch",0,"New",4,5202,"Include"
"FO2016_e2a","FO2016_e2a_1","19","costume",1,"Silent",6,2850,"Include"
"FO2016_e2a","FO2016_e2a_1","20","attitude",1,"Aloud",5,1450,"Include"
"FO2016_e2a","FO2016_e2a_1","21","glory",1,"Silent",6,1082,"Include"
"FO2016_e2a","FO2016_e2a_1","22","scarlet",1,"Silent",6,1162,"Include"
"FO2016_e2a","FO2016_e2a_1","23","meeting",1,"Silent",2,5122,"Include"
"FO2016_e2a","FO2016_e2a_1","24","quest",0,"New",3,2618,"Include"
"FO2016_e2a","FO2016_e2a_1","25","chance",0,"New",2,2010,"Include"
"FO2016_e2a","FO2016_e2a_1","26","thorn",1,"Silent",4,2690,"Include"
"FO2016_e2a","FO2016_e2a_1","27","christmas",0,"New",3,3826,"Include"
"FO2016_e2a","FO2016_e2a_1","28","confidence",0,"New",2,2618,"Include"
"FO2016_e2a","FO2016_e2a_1","29","poetry",1,"Silent",2,1242,"Include"
"FO2016_e2a","FO2016_e2a_1","30","garden",1,"Silent",5,3570,"Include"
"FO2016_e2a","FO2016_e2a_1","31","settler",0,"New",2,3490,"Include"
"FO2016_e2a","FO2016_e2a_1","32","reflection",1,"Silent",2,5874,"Include"
"FO2016_e2a","FO2016_e2a_1","33","plain",0,"New",2,1610,"Include"
"FO2016_e2a","FO2016_e2a_1","34","diamond",0,"New",1,1162,"Include"
"FO2016_e2a","FO2016_e2a_1","35","disposition",0,"New",1,1930,"Include"
"FO2016_e2a","FO2016_e2a_1","36","lake",1,"Silent",3,5026,"Include"
"FO2016_e2a","FO2016_e2a_1","37","cat",1,"Aloud",3,2890,"Include"
"FO2016_e2a","FO2016_e2a_1","38","tablespoon",1,"Silent",3,5562,"Include"
"FO2016_e2a","FO2016_e2a_1","39","fox",0,"New",1,2258,"Include"
"FO2016_e2a","FO2016_e2a_1","40","party",0,"New",4,5138,"Include"
"FO2016_e2a","FO2016_e2a_1","43","grass",1,"Silent",4,2098,"Include"
"FO2016_e2a","FO2016_e2a_1","44","soil",1,"Aloud",3,2586,"Include"
"FO2016_e2a","FO2016_e2a_1","45","slipper",1,"Silent",4,7738,"Include"
"FO2016_e2a","FO2016_e2a_1","46","oxygen",1,"Aloud",6,1466,"Include"
"FO2016_e2a","FO2016_e2a_1","47","honour",1,"Silent",2,3282,"Include"
"FO2016_e2a","FO2016_e2a_1","48","warmth",1,"Aloud",6,1546,"Include"
"FO2016_e2a","FO2016_e2a_1","49","baby",1,"Aloud",6,1186,"Include"
"FO2016_e2a","FO2016_e2a_1","50","attendant",1,"Aloud",4,2218,"Include"
"FO2016_e2a","FO2016_e2a_1","51","moral",1,"Silent",6,1978,"Include"
"FO2016_e2a","FO2016_e2a_1","52","ability",0,"New",5,1258,"Include"
"FO2016_e2a","FO2016_e2a_1","53","priest",1,"Silent",3,4410,"Include"
"FO2016_e2a","FO2016_e2a_1","54","elephant",1,"Silent",6,2394,"Include"
"FO2016_e2a","FO2016_e2a_1","55","charm",0,"New",3,6306,"Include"
"FO2016_e2a","FO2016_e2a_1","56","air",0,"New",1,3898,"Include"
"FO2016_e2a","FO2016_e2a_1","57","fowl",1,"Aloud",5,1930,"Include"
"FO2016_e2a","FO2016_e2a_1","58","bowl",0,"New",6,1050,"Include"
"FO2016_e2a","FO2016_e2a_1","59","comrade",0,"New",5,5234,"Include"
"FO2016_e2a","FO2016_e2a_1","60","length",0,"New",2,5434,"Include"
"FO2016_e2a","FO2016_e2a_1","61","product",1,"Aloud",4,2258,"Include"
"FO2016_e2a","FO2016_e2a_1","62","earth",0,"New",3,1842,"Include"
"FO2016_e2a","FO2016_e2a_1","63","trouble",1,"Silent",3,4498,"Include"
"FO2016_e2a","FO2016_e2a_1","64","animal",0,"New",5,2018,"Include"
"FO2016_e2a","FO2016_e2a_1","65","tower",1,"Silent",6,1626,"Include"
"FO2016_e2a","FO2016_e2a_1","66","storm",1,"Silent",2,1770,"Include"
"FO2016_e2a","FO2016_e2a_1","67","forest",1,"Silent",3,3746,"Include"
"FO2016_e2a","FO2016_e2a_1","68","mind",0,"New",4,1826,"Include"
"FO2016_e2a","FO2016_e2a_1","69","grief",1,"Silent",5,3850,"Include"
"FO2016_e2a","FO2016_e2a_1","70","shame",1,"Silent",2,1706,"Include"
"FO2016_e2a","FO2016_e2a_1","71","weapon",1,"Aloud",4,2362,"Include"
"FO2016_e2a","FO2016_e2a_1","72","picture",0,"New",3,1514,"Include"
"FO2016_e2a","FO2016_e2a_1","73","thief",0,"New",4,6130,"Include"
"FO2016_e2a","FO2016_e2a_1","74","hope",1,"Aloud",2,1810,"Include"
"FO2016_e2a","FO2016_e2a_1","75","flesh",0,"New",4,3706,"Include"
"FO2016_e2a","FO2016_e2a_1","76","maker",0,"New",5,1826,"Include"
"FO2016_e2a","FO2016_e2a_1","77","murder",1,"Silent",3,5034,"Include"
"FO2016_e2a","FO2016_e2a_1","78","mercy",0,"New",2,2602,"Include"
"FO2016_e2a","FO2016_e2a_1","79","book",0,"New",5,1698,"Include"
"FO2016_e2a","FO2016_e2a_1","80","sulphur",0,"New",1,1418,"Include"
"FO2016_e2a","FO2016_e2a_1","81","brain",1,"Silent",1,1162,"Include"
"FO2016_e2a","FO2016_e2a_1","82","journal",1,"Silent",2,1522,"Include"
"FO2016_e2a","FO2016_e2a_1","83","butter",0,"New",3,1570,"Include"
"FO2016_e2a","FO2016_e2a_1","84","necessity",0,"New",5,2210,"Include"
"FO2016_e2a","FO2016_e2a_1","85","vessel",0,"New",1,1114,"Include"
"FO2016_e2a","FO2016_e2a_1","86","banker",0,"New",2,2074,"Include"
"FO2016_e2a","FO2016_e2a_1","87","cellar",0,"New",2,802,"Include"
"FO2016_e2a","FO2016_e2a_1","88","folly",0,"New",2,1074,"Include"
"FO2016_e2a","FO2016_e2a_1","89","army",0,"New",3,2034,"Include"
"FO2016_e2a","FO2016_e2a_1","90","marriage",1,"Silent",3,2866,"Include"
"FO2016_e2a","FO2016_e2a_1","91","virtue",1,"Silent",2,3946,"Include"
"FO2016_e2a","FO2016_e2a_1","92","wheat",1,"Aloud",4,5674,"Include"
"FO2016_e2a","FO2016_e2a_1","93","person",0,"New",2,2722,"Include"
"FO2016_e2a","FO2016_e2a_1","94","child",1,"Aloud",1,1226,"Include"
"FO2016_e2a","FO2016_e2a_1","95","valley",0,"New",1,762,"Include"
"FO2016_e2a","FO2016_e2a_1","96","toast",1,"Silent",4,2402,"Include"
"FO2016_e2a","FO2016_e2a_1","97","capacity",1,"Silent",3,6866,"Include"
"FO2016_e2a","FO2016_e2a_1","98","artist",0,"New",2,3386,"Include"
"FO2016_e2a","FO2016_e2a_1","99","ocean",0,"New",3,1138,"Include"
"FO2016_e2a","FO2016_e2a_1","100","comparison",1,"Aloud",6,2250,"Include"
"FO2016_e2a","FO2016_e2a_1","101","item",1,"Aloud",4,1586,"Include"
"FO2016_e2a","FO2016_e2a_1","102","king",1,"Aloud",2,1138,"Include"
"FO2016_e2a","FO2016_e2a_1","103","sickness",1,"Aloud",2,1522,"Include"
"FO2016_e2a","FO2016_e2a_1","104","tomb",0,"New",4,1450,"Include"
"FO2016_e2a","FO2016_e2a_1","105","claw",0,"New",2,1458,"Include"
"FO2016_e2a","FO2016_e2a_1","106","beaver",1,"Silent",4,1146,"Include"
"FO2016_e2a","FO2016_e2a_1","107","atmosphere",0,"New",2,962,"Include"
"FO2016_e2a","FO2016_e2a_1","108","anxiety",0,"New",1,2002,"Include"
"FO2016_e2a","FO2016_e2a_1","109","situation",1,"Aloud",5,2586,"Include"
"FO2016_e2a","FO2016_e2a_1","110","sky",1,"Aloud",3,1290,"Include"
"FO2016_e2a","FO2016_e2a_1","111","vanity",0,"New",2,1146,"Include"
"FO2016_e2a","FO2016_e2a_1","112","series",1,"Aloud",2,1002,"Include"
"FO2016_e2a","FO2016_e2a_1","113","love",1,"Aloud",6,1410,"Include"
"FO2016_e2a","FO2016_e2a_1","114","frog",1,"Silent",2,2650,"Include"
"FO2016_e2a","FO2016_e2a_1","115","majority",1,"Silent",4,4994,"Include"
"FO2016_e2a","FO2016_e2a_1","116","gallery",0,"New",2,1098,"Include"
"FO2016_e2a","FO2016_e2a_1","117","sea",1,"Silent",1,914,"Include"
"FO2016_e2a","FO2016_e2a_1","118","sugar",0,"New",2,962,"Include"
"FO2016_e2a","FO2016_e2a_1","119","death",0,"New",6,1474,"Include"
"FO2016_e2a","FO2016_e2a_1","120","camp",0,"New",2,2482,"Include"
"FO2016_e2a","FO2016_e2a_1","121","rock",0,"New",5,3682,"Include"
"FO2016_e2a","FO2016_e2a_1","122","vapour",1,"Aloud",5,2626,"Include"
"FO2016_e2a","FO2016_e2a_1","123","amount",0,"New",2,1234,"Include"
"FO2016_e2a","FO2016_e2a_1","124","convention",0,"New",2,1114,"Include"
"FO2016_e2a","FO2016_e2a_1","125","direction",0,"New",3,1386,"Include"
"FO2016_e2a","FO2016_e2a_1","126","nail",0,"New",3,1210,"Include"
"FO2016_e2a","FO2016_e2a_1","127","substitute",0,"New",3,2426,"Include"
"FO2016_e2a","FO2016_e2a_1","128","science",0,"New",1,1266,"Include"
"FO2016_e2a","FO2016_e2a_1","129","colony",1,"Silent",5,1450,"Include"
"FO2016_e2a","FO2016_e2a_1","130","ambassador",0,"New",2,2090,"Include"
"FO2016_e2a","FO2016_e2a_1","131","appearance",0,"New",3,1330,"Include"
"FO2016_e2a","FO2016_e2a_1","132","car",0,"New",2,3194,"Include"
"FO2016_e2a","FO2016_e2a_1","133","lark",1,"Aloud",6,1506,"Include"
"FO2016_e2a","FO2016_e2a_1","134","tobacco",0,"New",2,7074,"Include"
"FO2016_e2a","FO2016_e2a_1","135","hatred",1,"Silent",6,6162,"Include"
"FO2016_e2a","FO2016_e2a_1","136","master",1,"Aloud",4,1194,"Include"
"FO2016_e2a","FO2016_e2a_1","137","hammer",1,"Aloud",6,1186,"Include"
"FO2016_e2a","FO2016_e2a_1","138","city",0,"New",3,1194,"Include"
"FO2016_e2a","FO2016_e2a_1","139","excuse",1,"Silent",2,1482,"Include"
"FO2016_e2a","FO2016_e2a_1","140","disease",0,"New",5,1874,"Include"
"FO2016_e2a","FO2016_e2a_1","141","beggar",1,"Aloud",5,1530,"Include"
"FO2016_e2a","FO2016_e2a_1","142","goddess",1,"Aloud",6,2298,"Include"
"FO2016_e2a","FO2016_e2a_1","143","conquest",1,"Aloud",3,2314,"Include"
"FO2016_e2a","FO2016_e2a_1","144","menace",0,"New",3,1242,"Include"
"FO2016_e2a","FO2016_e2a_1","145","effort",1,"Silent",6,1730,"Include"
"FO2016_e2a","FO2016_e2a_1","146","gentleman",0,"New",6,2007,"Include"
"FO2016_e2a","FO2016_e2a_1","147","sovereign",1,"Silent",2,3538,"Include"
"FO2016_e2a","FO2016_e2a_1","148","boss",0,"New",3,1050,"Include"
"FO2016_e2a","FO2016_e2a_1","149","stone",0,"New",4,802,"Include"
"FO2016_e2a","FO2016_e2a_1","150","time",0,"New",1,3050,"Include"
"FO2016_e2a","FO2016_e2a_1","151","procession",0,"New",3,2554,"Include"
"FO2016_e2a","FO2016_e2a_1","152","horse",1,"Aloud",5,1386,"Include"
"FO2016_e2a","FO2016_e2a_1","153","disaster",0,"New",4,1434,"Include"
"FO2016_e2a","FO2016_e2a_1","155","fire",1,"Silent",3,6098,"Include"
"FO2016_e2a","FO2016_e2a_1","156","moisture",1,"Aloud",5,7874,"Include"
"FO2016_e2a","FO2016_e2a_1","158","vision",0,"New",2,2026,"Include"
"FO2016_e2a","FO2016_e2a_1","159","fisherman",0,"New",3,1146,"Include"
"FO2016_e2a","FO2016_e2a_1","160","hint",1,"Silent",4,1298,"Include"
"FO2016_e2a","FO2016_e2a_1","161","vegetable",0,"New",4,1986,"Include"
"FO2016_e2a","FO2016_e2a_1","162","tribute",0,"New",2,1386,"Include"
"FO2016_e2a","FO2016_e2a_1","163","wife",1,"Aloud",2,1442,"Include"
"FO2016_e2a","FO2016_e2a_1","164","ticket",1,"Silent",3,666,"Include"
"FO2016_e2a","FO2016_e2a_1","165","shadow",0,"New",2,954,"Include"
"FO2016_e2a","FO2016_e2a_1","166","quality",1,"Aloud",4,1634,"Include"
"FO2016_e2a","FO2016_e2a_1","167","cash",0,"New",2,1426,"Include"
"FO2016_e2a","FO2016_e2a_1","168","pupil",1,"Silent",2,2034,"Include"
"FO2016_e2a","FO2016_e2a_1","169","bosom",0,"New",3,1162,"Include"
"FO2016_e2a","FO2016_e2a_1","170","robber",0,"New",3,1330,"Include"
"FO2016_e2a","FO2016_e2a_1","171","skin",1,"Aloud",5,2002,"Include"
"FO2016_e2a","FO2016_e2a_1","172","foam",0,"New",4,1178,"Include"
"FO2016_e2a","FO2016_e2a_1","173","salute",0,"New",3,2354,"Include"
"FO2016_e2a","FO2016_e2a_1","174","butterfly",1,"Silent",2,1114,"Include"
"FO2016_e2a","FO2016_e2a_1","175","corner",0,"New",3,634,"Include"
"FO2016_e2a","FO2016_e2a_1","176","leader",1,"Silent",3,1078,"Include"
"FO2016_e2a","FO2016_e2a_1","177","democracy",1,"Aloud",3,1322,"Include"
"FO2016_e2a","FO2016_e2a_1","178","prison",0,"New",4,5098,"Include"
"FO2016_e2a","FO2016_e2a_1","179","deed",1,"Aloud",3,4674,"Include"
"FO2016_e2a","FO2016_e2a_1","180","intellect",1,"Aloud",6,1714,"Include"
"FO2016_e2a","FO2016_e2a_1","181","contents",0,"New",4,1442,"Include"
"FO2016_e2a","FO2016_e2a_1","182","steam",1,"Aloud",3,914,"Include"
"FO2016_e2a","FO2016_e2a_1","183","door",0,"New",4,2666,"Include"
"FO2016_e2a","FO2016_e2a_1","184","jury",1,"Silent",3,1130,"Include"
"FO2016_e2a","FO2016_e2a_1","185","slave",1,"Aloud",3,1522,"Include"
"FO2016_e2a","FO2016_e2a_1","186","link",0,"New",3,898,"Include"
"FO2016_e2a","FO2016_e2a_1","187","sensation",0,"New",3,1434,"Include"
"FO2016_e2a","FO2016_e2a_1","188","baron",0,"New",4,1658,"Include"
"FO2016_e2a","FO2016_e2a_1","189","victim",1,"Aloud",5,1378,"Include"
"FO2016_e2a","FO2016_e2a_1","190","interest",1,"Silent",4,2842,"Include"
"FO2016_e2a","FO2016_e2a_1","191","lecture",0,"New",3,5538,"Include"
"FO2016_e2a","FO2016_e2a_1","192","revolt",0,"New",3,1730,"Include"
"FO2016_e2a","FO2016_e2a_1","193","dirt",1,"Silent",3,818,"Include"
"FO2016_e2a","FO2016_e2a_1","194","array",0,"New",4,1194,"Include"
"FO2016_e2a","FO2016_e2a_1","195","judge",1,"Aloud",4,866,"Include"
"FO2016_e2a","FO2016_e2a_1","196","grandmother",1,"Silent",3,786,"Include"
"FO2016_e2a","FO2016_e2a_1","197","harness",0,"New",3,1210,"Include"
"FO2016_e2a","FO2016_e2a_1","198","sauce",1,"Aloud",3,842,"Include"
"FO2016_e2a","FO2016_e2a_1","199","affection",1,"Silent",3,810,"Include"
"FO2016_e2a","FO2016_e2a_1","200","church",0,"New",4,610,"Include"
"FO2016_e2a","FO2016_e2a_1","201","drama",1,"Silent",2,1850,"Include"
"FO2016_e2a","FO2016_e2a_1","202","impulse",1,"Silent",3,1650,"Include"
"FO2016_e2a","FO2016_e2a_1","203","ankle",1,"Silent",3,2586,"Include"
"FO2016_e2a","FO2016_e2a_1","204","chin",0,"New",2,826,"Include"
"FO2016_e2a","FO2016_e2a_1","205","window",0,"New",3,1039,"Include"
"FO2016_e2a","FO2016_e2a_1","206","duty",1,"Aloud",6,1370,"Include"
"FO2016_e2a","FO2016_e2a_1","207","instance",0,"New",4,1474,"Include"
"FO2016_e2a","FO2016_e2a_1","208","institute",0,"New",4,2218,"Include"
"FO2016_e2a","FO2016_e2a_1","209","decree",0,"New",4,554,"Include"
"FO2016_e2a","FO2016_e2a_1","210","law",1,"Aloud",3,2210,"Include"
"FO2016_e2a","FO2016_e2a_1","211","speech",0,"New",4,2330,"Include"
"FO2016_e2a","FO2016_e2a_1","212","queen",0,"New",3,946,"Include"
"FO2016_e2a","FO2016_e2a_1","213","metal",1,"Aloud",6,1434,"Include"
"FO2016_e2a","FO2016_e2a_1","214","wine",0,"New",4,1274,"Include"
"FO2016_e2a","FO2016_e2a_1","215","captive",0,"New",3,1034,"Include"
"FO2016_e2a","FO2016_e2a_1","216","sunset",0,"New",3,1890,"Include"
"FO2016_e2a","FO2016_e2a_1","217","welfare",1,"Aloud",1,1546,"Include"
"FO2016_e2a","FO2016_e2a_1","218","railroad",1,"Silent",1,1306,"Include"
"FO2016_e2a","FO2016_e2a_1","219","arm",1,"Aloud",2,2530,"Include"
"FO2016_e2a","FO2016_e2a_1","220","spray",0,"New",2,1626,"Include"
"FO2016_e2a","FO2016_e2a_1","221","moss",1,"Aloud",3,1106,"Include"
"FO2016_e2a","FO2016_e2a_1","222","code",1,"Aloud",3,850,"Include"
"FO2016_e2a","FO2016_e2a_1","223","committee",0,"New",3,5130,"Include"
"FO2016_e2a","FO2016_e2a_1","224","nephew",1,"Aloud",3,1146,"Include"
"FO2016_e2a","FO2016_e2a_1","225","chair",0,"New",2,3922,"Include"
"FO2016_e2a","FO2016_e2a_1","226","attribute",0,"New",4,962,"Include"
"FO2016_e2a","FO2016_e2a_1","227","jail",0,"New",5,7562,"Include"
"FO2016_e2a","FO2016_e2a_1","228","headquarters",0,"New",4,2458,"Include"
"FO2016_e2a","FO2016_e2a_1","229","oven",1,"Silent",4,3386,"Include"
"FO2016_e2a","FO2016_e2a_1","230","prairie",0,"New",3,1090,"Include"
"FO2016_e2a","FO2016_e2a_1","231","fork",1,"Aloud",5,1250,"Include"
"FO2016_e2a","FO2016_e2a_1","232","star",0,"New",3,4138,"Include"
"FO2016_e2a","FO2016_e2a_1","233","justice",1,"Silent",5,1082,"Include"
"FO2016_e2a","FO2016_e2a_1","234","moment",0,"New",4,1106,"Include"
"FO2016_e2a","FO2016_e2a_1","235","library",1,"Aloud",6,1674,"Include"
"FO2016_e2a","FO2016_e2a_1","236","assault",1,"Aloud",2,1506,"Include"
"FO2016_e2a","FO2016_e2a_1","237","custom",0,"New",2,1258,"Include"
"FO2016_e2a","FO2016_e2a_1","238","creature",1,"Aloud",6,1706,"Include"
"FO2016_e2a","FO2016_e2a_1","239","boulder",0,"New",4,1554,"Include"
"FO2016_e2a","FO2016_e2a_1","240","physician",0,"New",3,7114,"Include"
"FO2016_e2a","FO2016_e2a_2","2","democracy",0,"New",1,3578,"Include"
"FO2016_e2a","FO2016_e2a_2","3","death",1,"Aloud",6,2362,"Include"
"FO2016_e2a","FO2016_e2a_2","4","link",0,"New",3,2306,"Include"
"FO2016_e2a","FO2016_e2a_2","5","sovereign",1,"Silent",2,1906,"Include"
"FO2016_e2a","FO2016_e2a_2","6","prairie",0,"New",1,1242,"Include"
"FO2016_e2a","FO2016_e2a_2","7","joke",0,"New",2,1218,"Include"
"FO2016_e2a","FO2016_e2a_2","8","maker",1,"Silent",3,2906,"Include"
"FO2016_e2a","FO2016_e2a_2","9","vegetable",1,"Aloud",6,3362,"Include"
"FO2016_e2a","FO2016_e2a_2","10","menace",1,"Aloud",6,1626,"Include"
"FO2016_e2a","FO2016_e2a_2","11","atmosphere",1,"Silent",4,2378,"Include"
"FO2016_e2a","FO2016_e2a_2","12","fisherman",1,"Silent",5,2146,"Include"
"FO2016_e2a","FO2016_e2a_2","13","air",1,"Silent",5,1586,"Include"
"FO2016_e2a","FO2016_e2a_2","14","revolt",1,"Silent",2,2522,"Include"
"FO2016_e2a","FO2016_e2a_2","15","person",0,"New",2,2258,"Include"
"FO2016_e2a","FO2016_e2a_2","16","tablespoon",0,"New",1,1146,"Include"
"FO2016_e2a","FO2016_e2a_2","17","amount",0,"New",3,2874,"Include"
"FO2016_e2a","FO2016_e2a_2","18","party",1,"Silent",3,1650,"Include"
"FO2016_e2a","FO2016_e2a_2","19","cabin",1,"Silent",2,2418,"Include"
"FO2016_e2a","FO2016_e2a_2","20","car",1,"Silent",4,2594,"Include"
"FO2016_e2a","FO2016_e2a_2","21","cash",1,"Silent",3,2538,"Include"
"FO2016_e2a","FO2016_e2a_2","22","wife",0,"New",2,1762,"Include"
"FO2016_e2a","FO2016_e2a_2","23","marriage",0,"New",2,1306,"Include"
"FO2016_e2a","FO2016_e2a_2","24","facility",0,"New",4,2706,"Include"
"FO2016_e2a","FO2016_e2a_2","25","interest",0,"New",3,4354,"Include"
"FO2016_e2a","FO2016_e2a_2","26","river",0,"New",3,1394,"Include"
"FO2016_e2a","FO2016_e2a_2","27","sensation",0,"New",4,2938,"Include"
"FO2016_e2a","FO2016_e2a_2","28","cellar",1,"Silent",4,1538,"Include"
"FO2016_e2a","FO2016_e2a_2","29","justice",0,"New",4,1586,"Include"
"FO2016_e2a","FO2016_e2a_2","30","child",1,"Aloud",3,1714,"Include"
"FO2016_e2a","FO2016_e2a_2","31","army",0,"New",3,2018,"Include"
"FO2016_e2a","FO2016_e2a_2","32","string",1,"Silent",2,2626,"Include"
"FO2016_e2a","FO2016_e2a_2","33","winter",1,"Silent",3,1898,"Include"
"FO2016_e2a","FO2016_e2a_2","34","headquarters",0,"New",1,1210,"Include"
"FO2016_e2a","FO2016_e2a_2","35","cotton",1,"Aloud",6,2570,"Include"
"FO2016_e2a","FO2016_e2a_2","36","book",1,"Silent",3,1690,"Include"
"FO2016_e2a","FO2016_e2a_2","37","cat",0,"New",2,1266,"Include"
"FO2016_e2a","FO2016_e2a_2","38","vessel",1,"Silent",2,1066,"Include"
"FO2016_e2a","FO2016_e2a_2","39","wine",0,"New",2,1586,"Include"
"FO2016_e2a","FO2016_e2a_2","40","flesh",0,"New",2,1282,"Include"
"FO2016_e2a","FO2016_e2a_2","41","reflection",0,"New",2,2098,"Include"
"FO2016_e2a","FO2016_e2a_2","42","horse",1,"Silent",1,1874,"Include"
"FO2016_e2a","FO2016_e2a_2","43","slave",0,"New",2,906,"Include"
"FO2016_e2a","FO2016_e2a_2","44","lecture",1,"Aloud",6,2066,"Include"
"FO2016_e2a","FO2016_e2a_2","45","judge",0,"New",2,3546,"Include"
"FO2016_e2a","FO2016_e2a_2","46","thorn",0,"New",2,1298,"Include"
"FO2016_e2a","FO2016_e2a_2","47","disposition",1,"Aloud",5,2218,"Include"
"FO2016_e2a","FO2016_e2a_2","48","chin",1,"Silent",2,1154,"Include"
"FO2016_e2a","FO2016_e2a_2","49","lake",0,"New",2,2770,"Include"
"FO2016_e2a","FO2016_e2a_2","50","charm",1,"Silent",2,3466,"Include"
"FO2016_e2a","FO2016_e2a_2","51","virtue",1,"Silent",4,1866,"Include"
"FO2016_e2a","FO2016_e2a_2","52","speech",1,"Silent",4,1298,"Include"
"FO2016_e2a","FO2016_e2a_2","53","poetry",1,"Aloud",5,1618,"Include"
"FO2016_e2a","FO2016_e2a_2","54","gallery",0,"New",2,1762,"Include"
"FO2016_e2a","FO2016_e2a_2","55","chair",1,"Aloud",2,1018,"Include"
"FO2016_e2a","FO2016_e2a_2","56","earth",1,"Aloud",3,3202,"Include"
"FO2016_e2a","FO2016_e2a_2","57","baron",1,"Aloud",6,2930,"Include"
"FO2016_e2a","FO2016_e2a_2","58","quest",1,"Aloud",4,3786,"Include"
"FO2016_e2a","FO2016_e2a_2","59","pupil",0,"New",2,2922,"Include"
"FO2016_e2a","FO2016_e2a_2","60","committee",1,"Silent",6,1826,"Include"
"FO2016_e2a","FO2016_e2a_2","61","fire",1,"Aloud",2,3466,"Include"
"FO2016_e2a","FO2016_e2a_2","62","hammer",1,"Silent",2,1378,"Include"
"FO2016_e2a","FO2016_e2a_2","63","physician",1,"Aloud",6,1602,"Include"
"FO2016_e2a","FO2016_e2a_2","64","hint",0,"New",1,1634,"Include"
"FO2016_e2a","FO2016_e2a_2","65","sauce",0,"New",1,866,"Include"
"FO2016_e2a","FO2016_e2a_2","66","salute",0,"New",2,1346,"Include"
"FO2016_e2a","FO2016_e2a_2","67","diamond",0,"New",2,2330,"Include"
"FO2016_e2a","FO2016_e2a_2","68","competition",1,"Aloud",6,1162,"Include"
"FO2016_e2a","FO2016_e2a_2","69","frog",0,"New",2,1322,"Include"
"FO2016_e2a","FO2016_e2a_2","70","church",1,"Silent",2,1026,"Include"
"FO2016_e2a","FO2016_e2a_2","71","spray",1,"Aloud",6,1498,"Include"
"FO2016_e2a","FO2016_e2a_2","72","law",1,"Aloud",4,2234,"Include"
"FO2016_e2a","FO2016_e2a_2","73","oxygen",1,"Aloud",4,4938,"Include"
"FO2016_e2a","FO2016_e2a_2","74","chance",0,"New",3,1690,"Include"
"FO2016_e2a","FO2016_e2a_2","75","time",0,"New",3,3906,"Include"
"FO2016_e2a","FO2016_e2a_2","76","tobacco",1,"Aloud",6,1090,"Include"
"FO2016_e2a","FO2016_e2a_2","77","foam",1,"Aloud",5,1402,"Include"
"FO2016_e2a","FO2016_e2a_2","78","idea",1,"Silent",4,2842,"Include"
"FO2016_e2a","FO2016_e2a_2","79","science",1,"Aloud",6,1474,"Include"
"FO2016_e2a","FO2016_e2a_2","80","baby",1,"Silent",6,1850,"Include"
"FO2016_e2a","FO2016_e2a_2","81","hatred",1,"Silent",3,2770,"Include"
"FO2016_e2a","FO2016_e2a_2","82","journal",0,"New",2,1386,"Include"
"FO2016_e2a","FO2016_e2a_2","83","city",0,"New",2,1946,"Include"
"FO2016_e2a","FO2016_e2a_2","84","shame",1,"Aloud",2,954,"Include"
"FO2016_e2a","FO2016_e2a_2","85","love",1,"Silent",3,2138,"Include"
"FO2016_e2a","FO2016_e2a_2","86","comrade",0,"New",1,1634,"Include"
"FO2016_e2a","FO2016_e2a_2","87","fox",1,"Aloud",6,2210,"Include"
"FO2016_e2a","FO2016_e2a_2","88","christmas",0,"New",1,1042,"Include"
"FO2016_e2a","FO2016_e2a_2","89","brain",1,"Aloud",5,1826,"Include"
"FO2016_e2a","FO2016_e2a_2","90","comparison",1,"Silent",4,1330,"Include"
"FO2016_e2a","FO2016_e2a_2","91","slipper",0,"New",2,1226,"Include"
"FO2016_e2a","FO2016_e2a_2","92","affection",1,"Aloud",6,1618,"Include"
"FO2016_e2a","FO2016_e2a_2","93","honour",0,"New",3,1850,"Include"
"FO2016_e2a","FO2016_e2a_2","94","king",1,"Aloud",6,1202,"Include"
"FO2016_e2a","FO2016_e2a_2","95","queen",0,"New",2,1434,"Include"
"FO2016_e2a","FO2016_e2a_2","96","convention",0,"New",2,1098,"Include"
"FO2016_e2a","FO2016_e2a_2","97","butterfly",0,"New",2,7690,"Include"
"FO2016_e2a","FO2016_e2a_2","98","master",1,"Aloud",3,1282,"Include"
"FO2016_e2a","FO2016_e2a_2","99","jury",1,"Aloud",5,2146,"Include"
"FO2016_e2a","FO2016_e2a_2","100","appearance",0,"New",4,4946,"Include"
"FO2016_e2a","FO2016_e2a_2","101","rock",1,"Silent",2,1138,"Include"
"FO2016_e2a","FO2016_e2a_2","102","meeting",0,"New",2,1674,"Include"
"FO2016_e2a","FO2016_e2a_2","103","moment",1,"Aloud",3,4386,"Include"
"FO2016_e2a","FO2016_e2a_2","104","item",1,"Silent",3,2130,"Include"
"FO2016_e2a","FO2016_e2a_2","105","circuit",1,"Silent",3,1402,"Include"
"FO2016_e2a","FO2016_e2a_2","106","nephew",0,"New",1,1250,"Include"
"FO2016_e2a","FO2016_e2a_2","107","ambassador",1,"Aloud",5,2346,"Include"
"FO2016_e2a","FO2016_e2a_2","108","library",1,"Silent",4,2378,"Include"
"FO2016_e2a","FO2016_e2a_2","109","metal",1,"Silent",4,2050,"Include"
"FO2016_e2a","FO2016_e2a_2","110","robber",1,"Silent",5,3154,"Include"
"FO2016_e2a","FO2016_e2a_2","111","excuse",1,"Silent",2,3306,"Include"
"FO2016_e2a","FO2016_e2a_2","112","sunset",0,"New",1,1354,"Include"
"FO2016_e2a","FO2016_e2a_2","113","woods",0,"New",2,1010,"Include"
"FO2016_e2a","FO2016_e2a_2","114","form",1,"Aloud",2,1246,"Include"
"FO2016_e2a","FO2016_e2a_2","115","weapon",1,"Silent",2,930,"Include"
"FO2016_e2a","FO2016_e2a_2","116","boss",1,"Silent",2,930,"Include"
"FO2016_e2a","FO2016_e2a_2","117","code",1,"Aloud",6,1890,"Include"
"FO2016_e2a","FO2016_e2a_2","118","duty",0,"New",5,2946,"Include"
"FO2016_e2a","FO2016_e2a_2","119","fowl",0,"New",1,1282,"Include"
"FO2016_e2a","FO2016_e2a_2","120","toast",0,"New",2,2290,"Include"
"FO2016_e2a","FO2016_e2a_2","121","intellect",1,"Silent",2,1930,"Include"
"FO2016_e2a","FO2016_e2a_2","122","assault",1,"Silent",2,4290,"Include"
"FO2016_e2a","FO2016_e2a_2","123","sea",1,"Aloud",6,1162,"Include"
"FO2016_e2a","FO2016_e2a_2","124","camp",0,"New",3,1634,"Include"
"FO2016_e2a","FO2016_e2a_2","125","banker",1,"Aloud",4,3714,"Include"
"FO2016_e2a","FO2016_e2a_2","126","disease",1,"Silent",3,1930,"Include"
"FO2016_e2a","FO2016_e2a_2","127","instance",0,"New",4,2978,"Include"
"FO2016_e2a","FO2016_e2a_2","128","drama",0,"New",1,1866,"Include"
"FO2016_e2a","FO2016_e2a_2","129","wheat",0,"New",2,3186,"Include"
"FO2016_e2a","FO2016_e2a_2","130","bosom",1,"Aloud",6,1530,"Include"
"FO2016_e2a","FO2016_e2a_2","131","clock",0,"New",4,1826,"Include"
"FO2016_e2a","FO2016_e2a_2","132","deed",0,"New",2,1082,"Include"
"FO2016_e2a","FO2016_e2a_2","133","attribute",0,"New",5,1946,"Include"
"FO2016_e2a","FO2016_e2a_2","134","animal",0,"New",2,1082,"Include"
"FO2016_e2a","FO2016_e2a_2","135","direction",0,"New",2,1434,"Include"
"FO2016_e2a","FO2016_e2a_2","136","harness",0,"New",3,3514,"Include"
"FO2016_e2a","FO2016_e2a_2","137","scarlet",0,"New",2,1138,"Include"
"FO2016_e2a","FO2016_e2a_2","138","vapour",1,"Silent",2,2010,"Include"
"FO2016_e2a","FO2016_e2a_2","139","railroad",0,"New",2,946,"Include"
"FO2016_e2a","FO2016_e2a_2","140","sulphur",0,"New",2,1946,"Include"
"FO2016_e2a","FO2016_e2a_2","141","dirt",1,"Aloud",6,2674,"Include"
"FO2016_e2a","FO2016_e2a_2","142","rod",0,"New",3,1650,"Include"
"FO2016_e2a","FO2016_e2a_2","143","jail",1,"Aloud",6,1650,"Include"
"FO2016_e2a","FO2016_e2a_2","144","procession",1,"Silent",3,2878,"Include"
"FO2016_e2a","FO2016_e2a_2","145","beaver",1,"Aloud",6,1026,"Include"
"FO2016_e2a","FO2016_e2a_2","146","vanity",1,"Aloud",6,994,"Include"
"FO2016_e2a","FO2016_e2a_2","147","shadow",1,"Aloud",6,1530,"Include"
"FO2016_e2a","FO2016_e2a_2","148","disaster",0,"New",2,1314,"Include"
"FO2016_e2a","FO2016_e2a_2","149","impulse",0,"New",2,1514,"Include"
"FO2016_e2a","FO2016_e2a_2","150","sugar",0,"New",2,1418,"Include"
"FO2016_e2a","FO2016_e2a_2","151","iron",0,"New",3,2338,"Include"
"FO2016_e2a","FO2016_e2a_2","152","settler",0,"New",3,2290,"Include"
"FO2016_e2a","FO2016_e2a_2","153","captive",1,"Silent",4,2946,"Include"
"FO2016_e2a","FO2016_e2a_2","154","victim",1,"Aloud",4,2250,"Include"
"FO2016_e2a","FO2016_e2a_2","155","tomb",0,"New",1,1554,"Include"
"FO2016_e2a","FO2016_e2a_2","156","claw",0,"New",2,1200,"Include"
"FO2016_e2a","FO2016_e2a_2","157","bowl",1,"Aloud",2,706,"Include"
"FO2016_e2a","FO2016_e2a_2","158","capacity",1,"Silent",3,2010,"Include"
"FO2016_e2a","FO2016_e2a_2","159","goddess",0,"New",1,1170,"Include"
"FO2016_e2a","FO2016_e2a_2","160","misery",1,"Silent",2,1010,"Include"
"FO2016_e2a","FO2016_e2a_2","161","creature",1,"Aloud",4,2306,"Include"
"FO2016_e2a","FO2016_e2a_2","162","ability",1,"Aloud",4,2314,"Include"
"FO2016_e2a","FO2016_e2a_2","163","sickness",0,"New",2,1946,"Include"
"FO2016_e2a","FO2016_e2a_2","164","anxiety",0,"New",1,1306,"Include"
"FO2016_e2a","FO2016_e2a_2","165","ankle",0,"New",2,1194,"Include"
"FO2016_e2a","FO2016_e2a_2","166","custom",0,"New",2,2282,"Include"
"FO2016_e2a","FO2016_e2a_2","167","mercy",0,"New",2,730,"Include"
"FO2016_e2a","FO2016_e2a_2","168","necessity",1,"Aloud",4,3426,"Include"
"FO2016_e2a","FO2016_e2a_2","169","inhabitant",0,"New",1,1642,"Include"
"FO2016_e2a","FO2016_e2a_2","170","fork",1,"Silent",4,2066,"Include"
"FO2016_e2a","FO2016_e2a_2","171","substitute",0,"New",3,1738,"Include"
"FO2016_e2a","FO2016_e2a_2","172","grandmother",1,"Aloud",6,2794,"Include"
"FO2016_e2a","FO2016_e2a_2","173","door",1,"Aloud",3,1914,"Include"
"FO2016_e2a","FO2016_e2a_2","174","ocean",0,"New",2,2194,"Include"
"FO2016_e2a","FO2016_e2a_2","175","prison",0,"New",4,2762,"Include"
"FO2016_e2a","FO2016_e2a_2","176","butter",1,"Aloud",6,1178,"Include"
"FO2016_e2a","FO2016_e2a_2","177","murder",0,"New",2,1436,"Include"
"FO2016_e2a","FO2016_e2a_2","178","tribute",1,"Aloud",4,2098,"Include"
"FO2016_e2a","FO2016_e2a_2","179","institute",0,"New",3,5138,"Include"
"FO2016_e2a","FO2016_e2a_2","180","folly",1,"Silent",2,4842,"Include"
"FO2016_e2a","FO2016_e2a_2","181","money",1,"Aloud",2,1130,"Include"
"FO2016_e2a","FO2016_e2a_2","182","vision",1,"Silent",2,1994,"Include"
"FO2016_e2a","FO2016_e2a_2","183","picture",0,"New",2,882,"Include"
"FO2016_e2a","FO2016_e2a_2","184","sky",0,"New",3,1842,"Include"
"FO2016_e2a","FO2016_e2a_2","185","effort",0,"New",3,1098,"Include"
"FO2016_e2a","FO2016_e2a_2","186","decree",1,"Silent",2,1666,"Include"
"FO2016_e2a","FO2016_e2a_2","187","stone",0,"New",2,1362,"Include"
"FO2016_e2a","FO2016_e2a_2","188","costume",0,"New",3,1322,"Include"
"FO2016_e2a","FO2016_e2a_2","189","majority",0,"New",3,1450,"Include"
"FO2016_e2a","FO2016_e2a_2","190","contents",1,"Silent",3,1034,"Include"
"FO2016_e2a","FO2016_e2a_2","191","series",1,"Silent",3,786,"Include"
"FO2016_e2a","FO2016_e2a_2","192","oven",0,"New",2,1578,"Include"
"FO2016_e2a","FO2016_e2a_2","193","moss",0,"New",3,1906,"Include"
"FO2016_e2a","FO2016_e2a_2","194","soil",0,"New",4,1322,"Include"
"FO2016_e2a","FO2016_e2a_2","195","quality",1,"Aloud",3,2874,"Include"
"FO2016_e2a","FO2016_e2a_2","196","moral",1,"Aloud",6,4554,"Include"
"FO2016_e2a","FO2016_e2a_2","197","situation",0,"New",4,5386,"Include"
"FO2016_e2a","FO2016_e2a_2","198","conquest",0,"New",3,5146,"Include"
"FO2016_e2a","FO2016_e2a_2","199","monarch",0,"New",2,1162,"Include"
"FO2016_e2a","FO2016_e2a_2","200","trouble",0,"New",3,1066,"Include"
"FO2016_e2a","FO2016_e2a_2","201","material",0,"New",3,2018,"Include"
"FO2016_e2a","FO2016_e2a_2","202","priest",0,"New",3,1858,"Include"
"FO2016_e2a","FO2016_e2a_2","203","skin",0,"New",3,722,"Include"
"FO2016_e2a","FO2016_e2a_2","204","plain",0,"New",3,914,"Include"
"FO2016_e2a","FO2016_e2a_2","205","leader",1,"Silent",3,898,"Include"
"FO2016_e2a","FO2016_e2a_2","206","artist",0,"New",2,5274,"Include"
"FO2016_e2a","FO2016_e2a_2","207","grass",0,"New",2,986,"Include"
"FO2016_e2a","FO2016_e2a_2","208","valley",0,"New",2,866,"Include"
"FO2016_e2a","FO2016_e2a_2","209","garden",1,"Silent",4,1986,"Include"
"FO2016_e2a","FO2016_e2a_2","210","confidence",1,"Aloud",6,1450,"Include"
"FO2016_e2a","FO2016_e2a_2","211","forest",0,"New",2,2050,"Include"
"FO2016_e2a","FO2016_e2a_2","212","prayer",1,"Silent",3,1850,"Include"
"FO2016_e2a","FO2016_e2a_2","213","moisture",0,"New",1,2242,"Include"
"FO2016_e2a","FO2016_e2a_2","214","arm",1,"Silent",4,2042,"Include"
"FO2016_e2a","FO2016_e2a_2","215","lark",1,"Silent",2,1810,"Include"
"FO2016_e2a","FO2016_e2a_2","216","ticket",1,"Silent",3,2194,"Include"
"FO2016_e2a","FO2016_e2a_2","217","steam",1,"Aloud",4,1290,"Include"
"FO2016_e2a","FO2016_e2a_2","218","boulder",0,"New",2,1074,"Include"
"FO2016_e2a","FO2016_e2a_2","219","storm",0,"New",3,1946,"Include"
"FO2016_e2a","FO2016_e2a_2","220","hope",1,"Aloud",6,1834,"Include"
"FO2016_e2a","FO2016_e2a_2","221","welfare",0,"New",2,1802,"Include"
"FO2016_e2a","FO2016_e2a_2","222","corner",0,"New",3,2298,"Include"
"FO2016_e2a","FO2016_e2a_2","223","gentleman",0,"New",1,1594,"Include"
"FO2016_e2a","FO2016_e2a_2","224","product",1,"Aloud",4,1658,"Include"
"FO2016_e2a","FO2016_e2a_2","225","grief",1,"Aloud",6,1394,"Include"
"FO2016_e2a","FO2016_e2a_2","226","thief",1,"Aloud",6,1330,"Include"
"FO2016_e2a","FO2016_e2a_2","227","colony",0,"New",3,2370,"Include"
"FO2016_e2a","FO2016_e2a_2","228","elephant",0,"New",2,1802,"Include"
"FO2016_e2a","FO2016_e2a_2","229","length",1,"Aloud",3,1794,"Include"
"FO2016_e2a","FO2016_e2a_2","230","glory",1,"Silent",4,2186,"Include"
"FO2016_e2a","FO2016_e2a_2","231","window",0,"New",4,1538,"Include"
"FO2016_e2a","FO2016_e2a_2","232","nail",1,"Aloud",4,1010,"Include"
"FO2016_e2a","FO2016_e2a_2","233","attitude",0,"New",4,3013,"Include"
"FO2016_e2a","FO2016_e2a_2","234","charter",0,"New",2,1658,"Include"
"FO2016_e2a","FO2016_e2a_2","235","warmth",0,"New",3,3186,"Include"
"FO2016_e2a","FO2016_e2a_2","236","beggar",0,"New",3,2410,"Include"
"FO2016_e2a","FO2016_e2a_2","237","mind",1,"Silent",4,2146,"Include"
"FO2016_e2a","FO2016_e2a_2","238","tower",0,"New",2,970,"Include"
"FO2016_e2a","FO2016_e2a_2","239","star",0,"New",3,1690,"Include"
"FO2016_e2a","FO2016_e2a_2","240","attendant",0,"New",5,2162,"Include"
"FO2016_e2a","FO2016_e2a_3","2","product",1,"Silent",6,4538,"Include"
"FO2016_e2a","FO2016_e2a_3","3","instance",1,"Aloud",6,2938,"Include"
"FO2016_e2a","FO2016_e2a_3","4","substitute",1,"Aloud",6,970,"Include"
"FO2016_e2a","FO2016_e2a_3","5","honour",1,"Silent",6,1074,"Include"
"FO2016_e2a","FO2016_e2a_3","6","wine",0,"New",4,3170,"Include"
"FO2016_e2a","FO2016_e2a_3","7","forest",1,"Aloud",6,2754,"Include"
"FO2016_e2a","FO2016_e2a_3","8","necessity",0,"New",2,3114,"Include"
"FO2016_e2a","FO2016_e2a_3","9","hammer",0,"New",4,7234,"Include"
"FO2016_e2a","FO2016_e2a_3","10","animal",1,"Aloud",1,2522,"Include"
"FO2016_e2a","FO2016_e2a_3","11","fisherman",1,"Aloud",2,2146,"Include"
"FO2016_e2a","FO2016_e2a_3","12","interest",0,"New",4,3474,"Include"
"FO2016_e2a","FO2016_e2a_3","13","sky",1,"Aloud",2,1826,"Include"
"FO2016_e2a","FO2016_e2a_3","14","oven",1,"Silent",3,1674,"Include"
"FO2016_e2a","FO2016_e2a_3","15","money",1,"Aloud",4,1778,"Include"
"FO2016_e2a","FO2016_e2a_3","16","diamond",0,"New",1,1618,"Include"
"FO2016_e2a","FO2016_e2a_3","17","jury",1,"Aloud",6,2226,"Include"
"FO2016_e2a","FO2016_e2a_3","18","poetry",1,"Silent",6,1682,"Include"
"FO2016_e2a","FO2016_e2a_3","19","butterfly",0,"New",3,2274,"Include"
"FO2016_e2a","FO2016_e2a_3","20","sickness",0,"New",2,1802,"Include"
"FO2016_e2a","FO2016_e2a_3","21","vanity",0,"New",3,1722,"Include"
"FO2016_e2a","FO2016_e2a_3","22","series",0,"New",1,1850,"Include"
"FO2016_e2a","FO2016_e2a_3","23","ocean",1,"Aloud",2,834,"Include"
"FO2016_e2a","FO2016_e2a_3","24","library",1,"Silent",3,2146,"Include"
"FO2016_e2a","FO2016_e2a_3","25","child",0,"New",3,1338,"Include"
"FO2016_e2a","FO2016_e2a_3","26","car",1,"Aloud",5,2426,"Include"
"FO2016_e2a","FO2016_e2a_3","27","amount",0,"New",4,5194,"Include"
"FO2016_e2a","FO2016_e2a_3","28","intellect",1,"Silent",3,1586,"Include"
"FO2016_e2a","FO2016_e2a_3","29","grief",0,"New",2,1218,"Include"
"FO2016_e2a","FO2016_e2a_3","30","excuse",1,"Silent",5,1802,"Include"
"FO2016_e2a","FO2016_e2a_3","31","revolt",0,"New",2,3874,"Include"
"FO2016_e2a","FO2016_e2a_3","32","oxygen",0,"New",3,1218,"Include"
"FO2016_e2a","FO2016_e2a_3","33","warmth",1,"Aloud",5,3386,"Include"
"FO2016_e2a","FO2016_e2a_3","34","storm",1,"Aloud",5,1954,"Include"
"FO2016_e2a","FO2016_e2a_3","35","slipper",1,"Silent",3,2226,"Include"
"FO2016_e2a","FO2016_e2a_3","36","sunset",0,"New",2,1458,"Include"
"FO2016_e2a","FO2016_e2a_3","37","wife",0,"New",2,2698,"Include"
"FO2016_e2a","FO2016_e2a_3","38","inhabitant",0,"New",3,2178,"Include"
"FO2016_e2a","FO2016_e2a_3","39","elephant",1,"Silent",3,1170,"Include"
"FO2016_e2a","FO2016_e2a_3","40","cat",0,"New",2,1106,"Include"
"FO2016_e2a","FO2016_e2a_3","41","murder",1,"Aloud",5,2050,"Include"
"FO2016_e2a","FO2016_e2a_3","42","length",1,"Aloud",6,1826,"Include"
"FO2016_e2a","FO2016_e2a_3","43","virtue",0,"New",3,1738,"Include"
"FO2016_e2a","FO2016_e2a_3","44","frog",1,"Silent",2,1970,"Include"
"FO2016_e2a","FO2016_e2a_3","45","rock",0,"New",4,2306,"Include"
"FO2016_e2a","FO2016_e2a_3","46","thorn",1,"Aloud",4,1210,"Include"
"FO2016_e2a","FO2016_e2a_3","47","sea",0,"New",3,1394,"Include"
"FO2016_e2a","FO2016_e2a_3","48","menace",1,"Silent",5,1714,"Include"
"FO2016_e2a","FO2016_e2a_3","49","item",1,"Aloud",5,1250,"Include"
"FO2016_e2a","FO2016_e2a_3","50","nail",1,"Aloud",2,874,"Include"
"FO2016_e2a","FO2016_e2a_3","51","mercy",1,"Silent",6,1066,"Include"
"FO2016_e2a","FO2016_e2a_3","52","star",0,"New",3,1042,"Include"
"FO2016_e2a","FO2016_e2a_3","53","city",0,"New",3,834,"Include"
"FO2016_e2a","FO2016_e2a_3","54","beggar",1,"Aloud",6,1162,"Include"
"FO2016_e2a","FO2016_e2a_3","55","weapon",1,"Silent",6,2434,"Include"
"FO2016_e2a","FO2016_e2a_3","57","effort",1,"Aloud",3,1170,"Include"
"FO2016_e2a","FO2016_e2a_3","58","tobacco",0,"New",2,2010,"Include"
"FO2016_e2a","FO2016_e2a_3","59","majority",1,"Silent",4,1954,"Include"
"FO2016_e2a","FO2016_e2a_3","60","beaver",0,"New",1,1762,"Include"
"FO2016_e2a","FO2016_e2a_3","61","tablespoon",1,"Aloud",6,1970,"Include"
"FO2016_e2a","FO2016_e2a_3","62","sugar",1,"Aloud",4,1930,"Include"
"FO2016_e2a","FO2016_e2a_3","63","physician",0,"New",3,1474,"Include"
"FO2016_e2a","FO2016_e2a_3","64","moral",0,"New",2,1338,"Include"
"FO2016_e2a","FO2016_e2a_3","65","tribute",1,"Aloud",5,1666,"Include"
"FO2016_e2a","FO2016_e2a_3","66","marriage",1,"Silent",6,892,"Include"
"FO2016_e2a","FO2016_e2a_3","67","joke",1,"Silent",2,2770,"Include"
"FO2016_e2a","FO2016_e2a_3","68","atmosphere",0,"New",2,2618,"Include"
"FO2016_e2a","FO2016_e2a_3","69","clock",0,"New",2,1970,"Include"
"FO2016_e2a","FO2016_e2a_3","70","goddess",1,"Silent",5,1530,"Include"
"FO2016_e2a","FO2016_e2a_3","71","grass",1,"Aloud",2,890,"Include"
"FO2016_e2a","FO2016_e2a_3","72","master",0,"New",3,3026,"Include"
"FO2016_e2a","FO2016_e2a_3","73","boulder",0,"New",4,962,"Include"
"FO2016_e2a","FO2016_e2a_3","74","cellar",1,"Aloud",4,2426,"Include"
"FO2016_e2a","FO2016_e2a_3","75","anxiety",0,"New",2,1530,"Include"
"FO2016_e2a","FO2016_e2a_3","76","garden",0,"New",3,2530,"Include"
"FO2016_e2a","FO2016_e2a_3","77","welfare",1,"Silent",6,1346,"Include"
"FO2016_e2a","FO2016_e2a_3","78","gentleman",1,"Silent",6,970,"Include"
"FO2016_e2a","FO2016_e2a_3","79","hope",0,"New",1,1530,"Include"
"FO2016_e2a","FO2016_e2a_3","80","convention",0,"New",3,1490,"Include"
"FO2016_e2a","FO2016_e2a_3","82","victim",0,"New",3,762,"Include"
"FO2016_e2a","FO2016_e2a_3","83","air",1,"Silent",2,1034,"Include"
"FO2016_e2a","FO2016_e2a_3","84","competition",1,"Silent",5,1082,"Include"
"FO2016_e2a","FO2016_e2a_3","85","valley",0,"New",2,802,"Include"
"FO2016_e2a","FO2016_e2a_3","86","capacity",0,"New",3,3282,"Include"
"FO2016_e2a","FO2016_e2a_3","87","tomb",0,"New",2,650,"Include"
"FO2016_e2a","FO2016_e2a_3","88","fox",0,"New",2,714,"Include"
"FO2016_e2a","FO2016_e2a_3","89","reflection",0,"New",3,650,"Include"
"FO2016_e2a","FO2016_e2a_3","90","railroad",0,"New",2,722,"Include"
"FO2016_e2a","FO2016_e2a_3","91","material",0,"New",3,2866,"Include"
"FO2016_e2a","FO2016_e2a_3","92","dirt",0,"New",2,1906,"Include"
"FO2016_e2a","FO2016_e2a_3","93","book",0,"New",2,634,"Include"
"FO2016_e2a","FO2016_e2a_3","94","vapour",0,"New",2,794,"Include"
"FO2016_e2a","FO2016_e2a_3","95","leader",1,"Silent",3,3578,"Include"
"FO2016_e2a","FO2016_e2a_3","96","scarlet",0,"New",3,1754,"Include"
"FO2016_e2a","FO2016_e2a_3","97","comparison",0,"New",3,2818,"Include"
"FO2016_e2a","FO2016_e2a_3","98","cash",1,"Silent",3,2090,"Include"
"FO2016_e2a","FO2016_e2a_3","99","sensation",0,"New",2,1322,"Include"
"FO2016_e2a","FO2016_e2a_3","100","disaster",0,"New",3,842,"Include"
"FO2016_e2a","FO2016_e2a_3","101","baby",0,"New",3,666,"Include"
"FO2016_e2a","FO2016_e2a_3","102","hatred",1,"Aloud",3,994,"Include"
"FO2016_e2a","FO2016_e2a_3","103","institute",1,"Silent",3,1466,"Include"
"FO2016_e2a","FO2016_e2a_3","104","skin",1,"Silent",3,562,"Include"
"FO2016_e2a","FO2016_e2a_3","105","prison",1,"Silent",3,3402,"Include"
"FO2016_e2a","FO2016_e2a_3","106","claw",0,"New",3,674,"Include"
"FO2016_e2a","FO2016_e2a_3","107","stone",1,"Silent",3,4898,"Include"
"FO2016_e2a","FO2016_e2a_3","108","code",0,"New",3,674,"Include"
"FO2016_e2a","FO2016_e2a_3","109","hint",0,"New",3,2898,"Include"
"FO2016_e2a","FO2016_e2a_3","110","pupil",0,"New",3,850,"Include"
"FO2016_e2a","FO2016_e2a_3","111","earth",1,"Aloud",4,2994,"Include"
"FO2016_e2a","FO2016_e2a_3","112","moment",0,"New",3,1186,"Include"
"FO2016_e2a","FO2016_e2a_3","113","glory",0,"New",4,1330,"Include"
"FO2016_e2a","FO2016_e2a_3","114","sovereign",1,"Aloud",5,1834,"Include"
"FO2016_e2a","FO2016_e2a_3","115","christmas",0,"New",2,1194,"Include"
"FO2016_e2a","FO2016_e2a_3","116","lark",1,"Aloud",2,578,"Include"
"FO2016_e2a","FO2016_e2a_3","117","sulphur",1,"Aloud",6,1706,"Include"
"FO2016_e2a","FO2016_e2a_3","118","wheat",0,"New",2,1562,"Include"
"FO2016_e2a","FO2016_e2a_3","119","bosom",1,"Aloud",6,1114,"Include"
"FO2016_e2a","FO2016_e2a_3","120","metal",1,"Aloud",5,3762,"Include"
"FO2016_e2a","FO2016_e2a_3","121","lecture",1,"Aloud",2,1130,"Include"
"FO2016_e2a","FO2016_e2a_3","122","monarch",0,"New",4,2202,"Include"
"FO2016_e2a","FO2016_e2a_3","123","sauce",0,"New",3,930,"Include"
"FO2016_e2a","FO2016_e2a_3","124","chance",1,"Aloud",5,4178,"Include"
"FO2016_e2a","FO2016_e2a_3","125","circuit",0,"New",5,1274,"Include"
"FO2016_e2a","FO2016_e2a_3","126","time",1,"Aloud",3,3314,"Include"
"FO2016_e2a","FO2016_e2a_3","127","committee",0,"New",3,1658,"Include"
"FO2016_e2a","FO2016_e2a_3","128","river",0,"New",3,1794,"Include"
"FO2016_e2a","FO2016_e2a_3","129","link",1,"Silent",3,6954,"Include"
"FO2016_e2a","FO2016_e2a_3","130","misery",0,"New",3,6386,"Include"
"FO2016_e2a","FO2016_e2a_3","131","grandmother",0,"New",3,922,"Include"
"FO2016_e2a","FO2016_e2a_3","132","bowl",1,"Aloud",3,770,"Include"
"FO2016_e2a","FO2016_e2a_3","133","ambassador",1,"Silent",4,1666,"Include"
"FO2016_e2a","FO2016_e2a_3","134","tower",1,"Silent",3,626,"Include"
"FO2016_e2a","FO2016_e2a_3","135","vision",1,"Aloud",2,2450,"Include"
"FO2016_e2a","FO2016_e2a_3","136","disposition",1,"Silent",5,1554,"Include"
"FO2016_e2a","FO2016_e2a_3","137","king",0,"New",2,1042,"Include"
"FO2016_e2a","FO2016_e2a_3","138","appearance",0,"New",3,1154,"Include"
"FO2016_e2a","FO2016_e2a_3","139","cotton",0,"New",2,1722,"Include"
"FO2016_e2a","FO2016_e2a_3","140","decree",1,"Silent",5,1786,"Include"
"FO2016_e2a","FO2016_e2a_3","141","attendant",0,"New",2,890,"Include"
"FO2016_e2a","FO2016_e2a_3","142","quest",0,"New",2,890,"Include"
"FO2016_e2a","FO2016_e2a_3","143","brain",1,"Aloud",2,2394,"Include"
"FO2016_e2a","FO2016_e2a_3","144","shadow",0,"New",3,2402,"Include"
"FO2016_e2a","FO2016_e2a_3","145","headquarters",0,"New",2,890,"Include"
"FO2016_e2a","FO2016_e2a_3","146","boss",1,"Aloud",6,2954,"Include"
"FO2016_e2a","FO2016_e2a_3","147","picture",0,"New",2,746,"Include"
"FO2016_e2a","FO2016_e2a_3","148","nephew",1,"Aloud",6,1242,"Include"
"FO2016_e2a","FO2016_e2a_3","149","toast",0,"New",3,7490,"Include"
"FO2016_e2a","FO2016_e2a_3","150","vegetable",0,"New",2,3034,"Include"
"FO2016_e2a","FO2016_e2a_3","151","spray",1,"Aloud",5,4146,"Include"
"FO2016_e2a","FO2016_e2a_3","152","gallery",0,"New",4,7098,"Include"
"FO2016_e2a","FO2016_e2a_3","153","drama",1,"Silent",4,906,"Include"
"FO2016_e2a","FO2016_e2a_3","154","facility",0,"New",3,6970,"Include"
"FO2016_e2a","FO2016_e2a_3","155","fire",0,"New",3,618,"Include"
"FO2016_e2a","FO2016_e2a_3","156","chair",0,"New",3,730,"Include"
"FO2016_e2a","FO2016_e2a_3","157","contents",1,"Silent",3,618,"Include"
"FO2016_e2a","FO2016_e2a_3","158","situation",1,"Silent",3,2714,"Include"
"FO2016_e2a","FO2016_e2a_3","159","ability",0,"New",3,890,"Include"
"FO2016_e2a","FO2016_e2a_3","161","duty",0,"New",3,618,"Include"
"FO2016_e2a","FO2016_e2a_3","162","person",1,"Silent",3,3610,"Include"
"FO2016_e2a","FO2016_e2a_3","163","vessel",1,"Silent",2,1186,"Include"
"FO2016_e2a","FO2016_e2a_3","164","string",1,"Silent",4,2146,"Include"
"FO2016_e2a","FO2016_e2a_3","165","judge",0,"New",2,1402,"Include"
"FO2016_e2a","FO2016_e2a_3","166","rod",1,"Aloud",2,2082,"Include"
"FO2016_e2a","FO2016_e2a_3","167","harness",1,"Aloud",5,1842,"Include"
"FO2016_e2a","FO2016_e2a_3","168","soil",0,"New",2,682,"Include"
"FO2016_e2a","FO2016_e2a_3","169","church",0,"New",2,978,"Include"
"FO2016_e2a","FO2016_e2a_3","170","foam",1,"Silent",3,1746,"Include"
"FO2016_e2a","FO2016_e2a_3","171","disease",0,"New",3,914,"Include"
"FO2016_e2a","FO2016_e2a_3","172","chin",0,"New",2,770,"Include"
"FO2016_e2a","FO2016_e2a_3","173","queen",1,"Aloud",5,1138,"Include"
"FO2016_e2a","FO2016_e2a_3","174","law",0,"New",3,1522,"Include"
"FO2016_e2a","FO2016_e2a_3","175","salute",1,"Silent",4,1434,"Include"
"FO2016_e2a","FO2016_e2a_3","176","confidence",0,"New",4,1898,"Include"
"FO2016_e2a","FO2016_e2a_3","177","conquest",0,"New",2,1474,"Include"
"FO2016_e2a","FO2016_e2a_3","178","settler",0,"New",2,754,"Include"
"FO2016_e2a","FO2016_e2a_3","179","cabin",0,"New",2,746,"Include"
"FO2016_e2a","FO2016_e2a_3","180","robber",1,"Aloud",5,1490,"Include"
"FO2016_e2a","FO2016_e2a_3","181","ankle",0,"New",2,842,"Include"
"FO2016_e2a","FO2016_e2a_3","182","attitude",1,"Silent",3,778,"Include"
"FO2016_e2a","FO2016_e2a_3","183","army",1,"Silent",3,762,"Include"
"FO2016_e2a","FO2016_e2a_3","184","colony",0,"New",3,898,"Include"
"FO2016_e2a","FO2016_e2a_3","185","slave",0,"New",3,682,"Include"
"FO2016_e2a","FO2016_e2a_3","186","thief",1,"Silent",3,994,"Include"
"FO2016_e2a","FO2016_e2a_3","187","comrade",1,"Silent",4,3258,"Include"
"FO2016_e2a","FO2016_e2a_3","188","idea",1,"Silent",5,1202,"Include"
"FO2016_e2a","FO2016_e2a_3","189","steam",0,"New",4,3170,"Include"
"FO2016_e2a","FO2016_e2a_3","190","fork",1,"Silent",3,674,"Include"
"FO2016_e2a","FO2016_e2a_3","191","artist",1,"Aloud",2,1026,"Include"
"FO2016_e2a","FO2016_e2a_3","192","mind",1,"Aloud",3,570,"Include"
"FO2016_e2a","FO2016_e2a_3","193","custom",0,"New",3,874,"Include"
"FO2016_e2a","FO2016_e2a_3","194","assault",0,"New",4,5250,"Include"
"FO2016_e2a","FO2016_e2a_3","195","horse",0,"New",3,858,"Include"
"FO2016_e2a","FO2016_e2a_3","196","flesh",0,"New",2,666,"Include"
"FO2016_e2a","FO2016_e2a_3","197","affection",1,"Aloud",5,1474,"Include"
"FO2016_e2a","FO2016_e2a_3","198","ticket",1,"Silent",4,1305,"Include"
"FO2016_e2a","FO2016_e2a_3","199","jail",1,"Aloud",4,954,"Include"
"FO2016_e2a","FO2016_e2a_3","200","plain",0,"New",2,642,"Include"
"FO2016_e2a","FO2016_e2a_3","201","democracy",0,"New",2,1378,"Include"
"FO2016_e2a","FO2016_e2a_3","202","prairie",1,"Aloud",6,1538,"Include"
"FO2016_e2a","FO2016_e2a_3","203","quality",1,"Aloud",4,1026,"Include"
"FO2016_e2a","FO2016_e2a_3","204","winter",1,"Silent",3,2010,"Include"
"FO2016_e2a","FO2016_e2a_3","205","shame",0,"New",2,1194,"Include"
"FO2016_e2a","FO2016_e2a_3","206","moss",0,"New",3,1418,"Include"
"FO2016_e2a","FO2016_e2a_3","207","camp",1,"Silent",6,1626,"Include"
"FO2016_e2a","FO2016_e2a_3","208","justice",1,"Silent",5,922,"Include"
"FO2016_e2a","FO2016_e2a_3","209","science",1,"Silent",6,1178,"Include"
"FO2016_e2a","FO2016_e2a_3","210","speech",1,"Aloud",4,1538,"Include"
"FO2016_e2a","FO2016_e2a_3","211","creature",0,"New",4,1002,"Include"
"FO2016_e2a","FO2016_e2a_3","212","impulse",1,"Silent",3,3722,"Include"
"FO2016_e2a","FO2016_e2a_3","213","charter",0,"New",3,1778,"Include"
"FO2016_e2a","FO2016_e2a_3","214","costume",1,"Silent",4,778,"Include"
"FO2016_e2a","FO2016_e2a_3","215","charm",0,"New",3,610,"Include"
"FO2016_e2a","FO2016_e2a_3","216","butter",1,"Silent",3,1314,"Include"
"FO2016_e2a","FO2016_e2a_3","217","direction",0,"New",3,906,"Include"
"FO2016_e2a","FO2016_e2a_3","218","maker",0,"New",3,786,"Include"
"FO2016_e2a","FO2016_e2a_3","219","deed",1,"Silent",3,682,"Include"
"FO2016_e2a","FO2016_e2a_3","220","moisture",0,"New",3,3202,"Include"
"FO2016_e2a","FO2016_e2a_3","221","lake",1,"Aloud",3,674,"Include"
"FO2016_e2a","FO2016_e2a_3","222","meeting",0,"New",3,570,"Include"
"FO2016_e2a","FO2016_e2a_3","223","iron",1,"Aloud",4,802,"Include"
"FO2016_e2a","FO2016_e2a_3","224","fowl",0,"New",3,610,"Include"
"FO2016_e2a","FO2016_e2a_3","225","arm",0,"New",2,1256,"Include"
"FO2016_e2a","FO2016_e2a_3","226","priest",1,"Silent",4,1874,"Include"
"FO2016_e2a","FO2016_e2a_3","227","door",0,"New",1,1626,"Include"
"FO2016_e2a","FO2016_e2a_3","228","banker",0,"New",2,714,"Include"
"FO2016_e2a","FO2016_e2a_3","229","journal",1,"Aloud",3,722,"Include"
"FO2016_e2a","FO2016_e2a_3","230","attribute",1,"Aloud",5,1418,"Include"
"FO2016_e2a","FO2016_e2a_3","231","baron",0,"New",2,906,"Include"
"FO2016_e2a","FO2016_e2a_3","232","prayer",1,"Silent",3,3594,"Include"
"FO2016_e2a","FO2016_e2a_3","233","party",0,"New",3,938,"Include"
"FO2016_e2a","FO2016_e2a_3","234","woods",0,"New",3,890,"Include"
"FO2016_e2a","FO2016_e2a_3","235","procession",1,"Aloud",3,1402,"Include"
"FO2016_e2a","FO2016_e2a_3","236","corner",1,"Silent",4,674,"Include"
"FO2016_e2a","FO2016_e2a_3","237","folly",1,"Silent",3,1282,"Include"
"FO2016_e2a","FO2016_e2a_3","238","love",1,"Silent",2,714,"Include"
"FO2016_e2a","FO2016_e2a_3","239","array",0,"New",2,658,"Include"
"FO2016_e2a","FO2016_e2a_3","240","captive",0,"New",2,1906,"Include"
"FO2016_e2a","FO2016_e2a_4","2","woods",0,"New",2,4666,"Include"
"FO2016_e2a","FO2016_e2a_4","3","competition",0,"New",5,2626,"Include"
"FO2016_e2a","FO2016_e2a_4","4","meeting",0,"New",5,1226,"Include"
"FO2016_e2a","FO2016_e2a_4","5","baby",1,"Silent",1,5746,"Include"
"FO2016_e2a","FO2016_e2a_4","6","railroad",1,"Aloud",3,2242,"Include"
"FO2016_e2a","FO2016_e2a_4","7","product",1,"Aloud",6,2906,"Include"
"FO2016_e2a","FO2016_e2a_4","8","institute",0,"New",4,2362,"Include"
"FO2016_e2a","FO2016_e2a_4","9","sunset",0,"New",2,1914,"Include"
"FO2016_e2a","FO2016_e2a_4","10","jury",1,"Silent",6,1570,"Include"
"FO2016_e2a","FO2016_e2a_4","11","settler",1,"Silent",4,2650,"Include"
"FO2016_e2a","FO2016_e2a_4","12","cat",0,"New",1,1314,"Include"
"FO2016_e2a","FO2016_e2a_4","13","intellect",0,"New",2,1626,"Include"
"FO2016_e2a","FO2016_e2a_4","14","claw",0,"New",1,1714,"Include"
"FO2016_e2a","FO2016_e2a_4","15","folly",1,"Aloud",6,2858,"Include"
"FO2016_e2a","FO2016_e2a_4","16","procession",1,"Silent",4,3482,"Include"
"FO2016_e2a","FO2016_e2a_4","17","tobacco",0,"New",1,1922,"Include"
"FO2016_e2a","FO2016_e2a_4","18","drama",1,"Silent",6,1922,"Include"
"FO2016_e2a","FO2016_e2a_4","19","baron",1,"Aloud",6,1114,"Include"
"FO2016_e2a","FO2016_e2a_4","20","river",1,"Aloud",5,2378,"Include"
"FO2016_e2a","FO2016_e2a_4","21","door",1,"Silent",2,2250,"Include"
"FO2016_e2a","FO2016_e2a_4","22","wheat",1,"Silent",3,2562,"Include"
"FO2016_e2a","FO2016_e2a_4","23","anxiety",1,"Aloud",6,1354,"Include"
"FO2016_e2a","FO2016_e2a_4","24","jail",1,"Silent",6,1882,"Include"
"FO2016_e2a","FO2016_e2a_4","25","leader",1,"Silent",3,1746,"Include"
"FO2016_e2a","FO2016_e2a_4","26","virtue",1,"Aloud",4,2370,"Include"
"FO2016_e2a","FO2016_e2a_4","27","grief",1,"Aloud",5,2458,"Include"
"FO2016_e2a","FO2016_e2a_4","28","string",0,"New",2,1506,"Include"
"FO2016_e2a","FO2016_e2a_4","29","vapour",1,"Silent",6,2194,"Include"
"FO2016_e2a","FO2016_e2a_4","30","journal",0,"New",2,3970,"Include"
"FO2016_e2a","FO2016_e2a_4","31","quality",0,"New",5,2314,"Include"
"FO2016_e2a","FO2016_e2a_4","32","victim",0,"New",2,2106,"Include"
"FO2016_e2a","FO2016_e2a_4","33","rod",0,"New",1,1458,"Include"
"FO2016_e2a","FO2016_e2a_4","34","sickness",1,"Aloud",4,3698,"Include"
"FO2016_e2a","FO2016_e2a_4","35","boulder",0,"New",2,2162,"Include"
"FO2016_e2a","FO2016_e2a_4","36","necessity",0,"New",2,1506,"Include"
"FO2016_e2a","FO2016_e2a_4","37","tribute",1,"Silent",4,1650,"Include"
"FO2016_e2a","FO2016_e2a_4","38","wife",0,"New",1,1762,"Include"
"FO2016_e2a","FO2016_e2a_4","39","disposition",0,"New",2,2154,"Include"
"FO2016_e2a","FO2016_e2a_4","40","master",0,"New",2,2738,"Include"
"FO2016_e2a","FO2016_e2a_4","41","contents",1,"Aloud",3,1690,"Include"
"FO2016_e2a","FO2016_e2a_4","42","metal",1,"Aloud",6,1306,"Include"
"FO2016_e2a","FO2016_e2a_4","43","cabin",1,"Aloud",3,1834,"Include"
"FO2016_e2a","FO2016_e2a_4","44","harness",1,"Aloud",5,1706,"Include"
"FO2016_e2a","FO2016_e2a_4","45","fox",1,"Silent",5,1234,"Include"
"FO2016_e2a","FO2016_e2a_4","46","butter",1,"Silent",2,1514,"Include"
"FO2016_e2a","FO2016_e2a_4","47","headquarters",1,"Aloud",6,1290,"Include"
"FO2016_e2a","FO2016_e2a_4","48","dirt",1,"Aloud",2,1962,"Include"
"FO2016_e2a","FO2016_e2a_4","49","army",1,"Silent",4,2298,"Include"
"FO2016_e2a","FO2016_e2a_4","50","library",0,"New",1,1754,"Include"
"FO2016_e2a","FO2016_e2a_4","51","plain",0,"New",2,1618,"Include"
"FO2016_e2a","FO2016_e2a_4","52","substitute",0,"New",3,2082,"Include"
"FO2016_e2a","FO2016_e2a_4","53","rock",1,"Aloud",4,2322,"Include"
"FO2016_e2a","FO2016_e2a_4","54","charm",0,"New",2,1890,"Include"
"FO2016_e2a","FO2016_e2a_4","55","slipper",1,"Silent",2,1098,"Include"
"FO2016_e2a","FO2016_e2a_4","56","fowl",1,"Silent",3,1978,"Include"
"FO2016_e2a","FO2016_e2a_4","57","inhabitant",0,"New",1,1298,"Include"
"FO2016_e2a","FO2016_e2a_4","58","pupil",0,"New",1,978,"Include"
"FO2016_e2a","FO2016_e2a_4","59","monarch",1,"Silent",6,1530,"Include"
"FO2016_e2a","FO2016_e2a_4","60","mind",1,"Aloud",2,1306,"Include"
"FO2016_e2a","FO2016_e2a_4","61","beggar",0,"New",2,3202,"Include"
"FO2016_e2a","FO2016_e2a_4","62","deed",0,"New",1,1602,"Include"
"FO2016_e2a","FO2016_e2a_4","63","prison",1,"Silent",5,2730,"Include"
"FO2016_e2a","FO2016_e2a_4","64","forest",0,"New",4,2778,"Include"
"FO2016_e2a","FO2016_e2a_4","65","mercy",0,"New",2,6274,"Include"
"FO2016_e2a","FO2016_e2a_4","66","priest",1,"Aloud",2,5330,"Include"
"FO2016_e2a","FO2016_e2a_4","67","storm",0,"New",3,1346,"Include"
"FO2016_e2a","FO2016_e2a_4","68","hope",1,"Silent",1,1514,"Include"
"FO2016_e2a","FO2016_e2a_4","69","justice",1,"Aloud",4,3050,"Include"
"FO2016_e2a","FO2016_e2a_4","70","fork",0,"New",3,2330,"Include"
"FO2016_e2a","FO2016_e2a_4","71","judge",0,"New",2,6322,"Include"
"FO2016_e2a","FO2016_e2a_4","72","material",0,"New",2,1506,"Include"
"FO2016_e2a","FO2016_e2a_4","73","joke",0,"New",1,1138,"Include"
"FO2016_e2a","FO2016_e2a_4","74","iron",1,"Aloud",6,1138,"Include"
"FO2016_e2a","FO2016_e2a_4","75","star",1,"Aloud",6,1194,"Include"
"FO2016_e2a","FO2016_e2a_4","76","thief",0,"New",2,3362,"Include"
"FO2016_e2a","FO2016_e2a_4","77","church",0,"New",2,1266,"Include"
"FO2016_e2a","FO2016_e2a_4","78","goddess",0,"New",1,1106,"Include"
"FO2016_e2a","FO2016_e2a_4","79","oxygen",0,"New",1,1018,"Include"
"FO2016_e2a","FO2016_e2a_4","80","animal",0,"New",2,1410,"Include"
"FO2016_e2a","FO2016_e2a_4","81","captive",0,"New",1,2210,"Include"
"FO2016_e2a","FO2016_e2a_4","82","interest",1,"Aloud",3,2074,"Include"
"FO2016_e2a","FO2016_e2a_4","83","car",0,"New",3,1130,"Include"
"FO2016_e2a","FO2016_e2a_4","84","ability",0,"New",3,1410,"Include"
"FO2016_e2a","FO2016_e2a_4","85","queen",0,"New",3,1282,"Include"
"FO2016_e2a","FO2016_e2a_4","86","butterfly",0,"New",1,1226,"Include"
"FO2016_e2a","FO2016_e2a_4","87","murder",0,"New",2,2154,"Include"
"FO2016_e2a","FO2016_e2a_4","88","reflection",1,"Silent",6,1418,"Include"
"FO2016_e2a","FO2016_e2a_4","89","chair",0,"New",3,1090,"Include"
"FO2016_e2a","FO2016_e2a_4","90","affection",0,"New",3,1178,"Include"
"FO2016_e2a","FO2016_e2a_4","91","honour",1,"Silent",3,1186,"Include"
"FO2016_e2a","FO2016_e2a_4","92","chin",0,"New",1,1242,"Include"
"FO2016_e2a","FO2016_e2a_4","93","grass",1,"Silent",2,1522,"Include"
"FO2016_e2a","FO2016_e2a_4","94","moisture",0,"New",1,1114,"Include"
"FO2016_e2a","FO2016_e2a_4","95","time",1,"Aloud",3,1346,"Include"
"FO2016_e2a","FO2016_e2a_4","96","sky",1,"Aloud",6,1218,"Include"
"FO2016_e2a","FO2016_e2a_4","97","grandmother",0,"New",3,1338,"Include"
"FO2016_e2a","FO2016_e2a_4","98","earth",1,"Silent",3,1490,"Include"
"FO2016_e2a","FO2016_e2a_4","99","disaster",1,"Silent",4,1162,"Include"
"FO2016_e2a","FO2016_e2a_4","100","prayer",0,"New",2,2170,"Include"
"FO2016_e2a","FO2016_e2a_4","101","weapon",0,"New",4,1594,"Include"
"FO2016_e2a","FO2016_e2a_4","102","vegetable",0,"New",1,1258,"Include"
"FO2016_e2a","FO2016_e2a_4","103","marriage",0,"New",5,1458,"Include"
"FO2016_e2a","FO2016_e2a_4","104","banker",0,"New",3,1546,"Include"
"FO2016_e2a","FO2016_e2a_4","105","item",1,"Silent",3,1146,"Include"
"FO2016_e2a","FO2016_e2a_4","106","sauce",1,"Silent",2,1330,"Include"
"FO2016_e2a","FO2016_e2a_4","107","capacity",1,"Aloud",6,994,"Include"
"FO2016_e2a","FO2016_e2a_4","108","ticket",0,"New",3,2834,"Include"
"FO2016_e2a","FO2016_e2a_4","109","moral",1,"Aloud",4,1154,"Include"
"FO2016_e2a","FO2016_e2a_4","110","hint",0,"New",3,2034,"Include"
"FO2016_e2a","FO2016_e2a_4","111","steam",1,"Silent",5,1442,"Include"
"FO2016_e2a","FO2016_e2a_4","112","spray",0,"New",2,1234,"Include"
"FO2016_e2a","FO2016_e2a_4","113","code",0,"New",3,1098,"Include"
"FO2016_e2a","FO2016_e2a_4","114","cellar",0,"New",3,1426,"Include"
"FO2016_e2a","FO2016_e2a_4","115","city",1,"Aloud",5,2330,"Include"
"FO2016_e2a","FO2016_e2a_4","116","garden",0,"New",3,3098,"Include"
"FO2016_e2a","FO2016_e2a_4","117","winter",1,"Aloud",4,2202,"Include"
"FO2016_e2a","FO2016_e2a_4","118","fire",0,"New",2,1146,"Include"
"FO2016_e2a","FO2016_e2a_4","119","corner",1,"Silent",6,1394,"Include"
"FO2016_e2a","FO2016_e2a_4","120","idea",1,"Silent",6,2434,"Include"
"FO2016_e2a","FO2016_e2a_4","121","sea",0,"New",4,1634,"Include"
"FO2016_e2a","FO2016_e2a_4","122","ankle",1,"Aloud",6,1362,"Include"
"FO2016_e2a","FO2016_e2a_4","123","bosom",1,"Aloud",6,818,"Include"
"FO2016_e2a","FO2016_e2a_4","124","skin",0,"New",4,2354,"Include"
"FO2016_e2a","FO2016_e2a_4","125","moment",1,"Silent",3,1226,"Include"
"FO2016_e2a","FO2016_e2a_4","126","slave",0,"New",3,1330,"Include"
"FO2016_e2a","FO2016_e2a_4","127","attendant",1,"Silent",6,1226,"Include"
"FO2016_e2a","FO2016_e2a_4","128","amount",1,"Aloud",2,1034,"Include"
"FO2016_e2a","FO2016_e2a_4","129","party",0,"New",1,1074,"Include"
"FO2016_e2a","FO2016_e2a_4","130","frog",0,"New",2,986,"Include"
"FO2016_e2a","FO2016_e2a_4","131","wine",1,"Aloud",2,1410,"Include"
"FO2016_e2a","FO2016_e2a_4","132","foam",0,"New",2,786,"Include"
"FO2016_e2a","FO2016_e2a_4","133","costume",1,"Silent",5,1378,"Include"
"FO2016_e2a","FO2016_e2a_4","134","fisherman",0,"New",2,1322,"Include"
"FO2016_e2a","FO2016_e2a_4","135","money",0,"New",4,1106,"Include"
"FO2016_e2a","FO2016_e2a_4","136","nephew",0,"New",1,946,"Include"
"FO2016_e2a","FO2016_e2a_4","137","christmas",1,"Silent",6,1194,"Include"
"FO2016_e2a","FO2016_e2a_4","138","sulphur",1,"Aloud",5,1298,"Include"
"FO2016_e2a","FO2016_e2a_4","139","bowl",1,"Aloud",4,1290,"Include"
"FO2016_e2a","FO2016_e2a_4","140","cotton",1,"Silent",6,994,"Include"
"FO2016_e2a","FO2016_e2a_4","141","committee",0,"New",5,1522,"Include"
"FO2016_e2a","FO2016_e2a_4","142","king",1,"Aloud",3,991,"Include"
"FO2016_e2a","FO2016_e2a_4","143","duty",0,"New",5,1586,"Include"
"FO2016_e2a","FO2016_e2a_4","144","poetry",0,"New",4,1082,"Include"
"FO2016_e2a","FO2016_e2a_4","145","law",1,"Silent",3,1754,"Include"
"FO2016_e2a","FO2016_e2a_4","146","soil",1,"Aloud",5,1074,"Include"
"FO2016_e2a","FO2016_e2a_4","147","valley",0,"New",4,938,"Include"
"FO2016_e2a","FO2016_e2a_4","148","disease",0,"New",5,2546,"Include"
"FO2016_e2a","FO2016_e2a_4","149","window",1,"Silent",4,1058,"Include"
"FO2016_e2a","FO2016_e2a_4","150","air",1,"Aloud",5,1338,"Include"
"FO2016_e2a","FO2016_e2a_4","151","confidence",0,"New",5,3002,"Include"
"FO2016_e2a","FO2016_e2a_4","152","creature",0,"New",4,2690,"Include"
"FO2016_e2a","FO2016_e2a_4","153","atmosphere",1,"Aloud",6,1434,"Include"
"FO2016_e2a","FO2016_e2a_4","154","warmth",1,"Aloud",4,1082,"Include"
"FO2016_e2a","FO2016_e2a_4","155","science",1,"Silent",6,786,"Include"
"FO2016_e2a","FO2016_e2a_4","156","tomb",0,"New",1,1146,"Include"
"FO2016_e2a","FO2016_e2a_4","157","child",0,"New",3,1138,"Include"
"FO2016_e2a","FO2016_e2a_4","158","person",0,"New",2,1026,"Include"
"FO2016_e2a","FO2016_e2a_4","159","excuse",0,"New",2,1178,"Include"
"FO2016_e2a","FO2016_e2a_4","160","diamond",1,"Silent",4,1210,"Include"
"FO2016_e2a","FO2016_e2a_4","161","colony",1,"Silent",5,1162,"Include"
"FO2016_e2a","FO2016_e2a_4","162","picture",0,"New",3,1314,"Include"
"FO2016_e2a","FO2016_e2a_4","163","decree",1,"Silent",6,1122,"Include"
"FO2016_e2a","FO2016_e2a_4","164","death",1,"Aloud",5,1442,"Include"
"FO2016_e2a","FO2016_e2a_4","165","convention",1,"Aloud",5,1418,"Include"
"FO2016_e2a","FO2016_e2a_4","166","hammer",1,"Aloud",5,802,"Include"
"FO2016_e2a","FO2016_e2a_4","167","salute",1,"Aloud",4,4274,"Include"
"FO2016_e2a","FO2016_e2a_4","168","vanity",1,"Silent",3,1282,"Include"
"FO2016_e2a","FO2016_e2a_4","169","ocean",0,"New",2,1146,"Include"
"FO2016_e2a","FO2016_e2a_4","170","toast",0,"New",2,1434,"Include"
"FO2016_e2a","FO2016_e2a_4","171","hatred",0,"New",1,1194,"Include"
"FO2016_e2a","FO2016_e2a_4","172","charter",1,"Silent",6,1522,"Include"
"FO2016_e2a","FO2016_e2a_4","173","attitude",0,"New",4,1162,"Include"
"FO2016_e2a","FO2016_e2a_4","174","stone",0,"New",3,1042,"Include"
"FO2016_e2a","FO2016_e2a_4","176","scarlet",0,"New",2,1858,"Include"
"FO2016_e2a","FO2016_e2a_4","177","tablespoon",0,"New",1,1050,"Include"
"FO2016_e2a","FO2016_e2a_4","178","love",1,"Aloud",5,2778,"Include"
"FO2016_e2a","FO2016_e2a_4","179","link",1,"Aloud",3,1042,"Include"
"FO2016_e2a","FO2016_e2a_4","180","ambassador",0,"New",2,1178,"Include"
"FO2016_e2a","FO2016_e2a_4","181","sovereign",1,"Silent",3,3018,"Include"
"FO2016_e2a","FO2016_e2a_4","182","prairie",0,"New",2,1306,"Include"
"FO2016_e2a","FO2016_e2a_4","183","camp",0,"New",2,994,"Include"
"FO2016_e2a","FO2016_e2a_4","184","chance",0,"New",2,874,"Include"
"FO2016_e2a","FO2016_e2a_4","185","menace",1,"Silent",3,1466,"Include"
"FO2016_e2a","FO2016_e2a_4","186","impulse",1,"Aloud",2,2050,"Include"
"FO2016_e2a","FO2016_e2a_4","187","effort",0,"New",2,730,"Include"
"FO2016_e2a","FO2016_e2a_4","188","arm",1,"Aloud",2,1586,"Include"
"FO2016_e2a","FO2016_e2a_4","189","thorn",1,"Silent",4,1530,"Include"
"FO2016_e2a","FO2016_e2a_4","190","situation",1,"Silent",4,1738,"Include"
"FO2016_e2a","FO2016_e2a_4","191","artist",0,"New",2,1202,"Include"
"FO2016_e2a","FO2016_e2a_4","192","elephant",1,"Aloud",6,1170,"Include"
"FO2016_e2a","FO2016_e2a_4","193","shadow",0,"New",4,1786,"Include"
"FO2016_e2a","FO2016_e2a_4","194","boss",1,"Aloud",6,954,"Include"
"FO2016_e2a","FO2016_e2a_4","195","comparison",1,"Silent",3,1250,"Include"
"FO2016_e2a","FO2016_e2a_4","196","shame",1,"Aloud",4,1490,"Include"
"FO2016_e2a","FO2016_e2a_4","197","book",1,"Silent",6,1090,"Include"
"FO2016_e2a","FO2016_e2a_4","199","physician",1,"Silent",5,1258,"Include"
"FO2016_e2a","FO2016_e2a_4","200","robber",1,"Silent",6,1034,"Include"
"FO2016_e2a","FO2016_e2a_4","201","beaver",0,"New",1,1026,"Include"
"FO2016_e2a","FO2016_e2a_4","202","comrade",0,"New",1,1140,"Include"
"FO2016_e2a","FO2016_e2a_4","203","speech",0,"New",3,1850,"Include"
"FO2016_e2a","FO2016_e2a_4","204","moss",0,"New",4,898,"Include"
"FO2016_e2a","FO2016_e2a_4","205","appearance",1,"Aloud",3,1370,"Include"
"FO2016_e2a","FO2016_e2a_4","206","maker",1,"Silent",2,1194,"Include"
"FO2016_e2a","FO2016_e2a_4","207","tower",0,"New",2,1122,"Include"
"FO2016_e2a","FO2016_e2a_4","208","length",1,"Aloud",2,906,"Include"
"FO2016_e2a","FO2016_e2a_4","209","lake",0,"New",1,1202,"Include"
"FO2016_e2a","FO2016_e2a_4","210","gentleman",0,"New",1,1194,"Include"
"FO2016_e2a","FO2016_e2a_4","211","revolt",0,"New",2,2162,"Include"
"FO2016_e2a","FO2016_e2a_4","212","welfare",0,"New",2,1050,"Include"
"FO2016_e2a","FO2016_e2a_4","213","nail",1,"Aloud",3,1530,"Include"
"FO2016_e2a","FO2016_e2a_4","214","circuit",0,"New",3,1242,"Include"
"FO2016_e2a","FO2016_e2a_4","215","vessel",1,"Silent",4,1138,"Include"
"FO2016_e2a","FO2016_e2a_4","216","attribute",0,"New",4,1762,"Include"
"FO2016_e2a","FO2016_e2a_4","217","custom",1,"Silent",5,1570,"Include"
"FO2016_e2a","FO2016_e2a_4","218","gallery",0,"New",3,1330,"Include"
"FO2016_e2a","FO2016_e2a_4","219","brain",0,"New",3,802,"Include"
"FO2016_e2a","FO2016_e2a_4","220","trouble",0,"New",3,2058,"Include"
"FO2016_e2a","FO2016_e2a_4","221","lecture",0,"New",4,2306,"Include"
"FO2016_e2a","FO2016_e2a_4","222","horse",1,"Silent",3,1122,"Include"
"FO2016_e2a","FO2016_e2a_4","223","cash",0,"New",2,1074,"Include"
"FO2016_e2a","FO2016_e2a_4","224","oven",0,"New",2,1146,"Include"
"FO2016_e2a","FO2016_e2a_4","225","form",0,"New",2,1442,"Include"
"FO2016_e2a","FO2016_e2a_4","226","direction",1,"Aloud",3,3674,"Include"
"FO2016_e2a","FO2016_e2a_4","227","instance",0,"New",2,922,"Include"
"FO2016_e2a","FO2016_e2a_4","228","majority",1,"Silent",4,1538,"Include"
"FO2016_e2a","FO2016_e2a_4","229","facility",1,"Silent",4,1426,"Include"
"FO2016_e2a","FO2016_e2a_4","230","quest",1,"Silent",4,1042,"Include"
"FO2016_e2a","FO2016_e2a_4","231","sensation",1,"Silent",6,1834,"Include"
"FO2016_e2a","FO2016_e2a_4","232","clock",1,"Aloud",2,1002,"Include"
"FO2016_e2a","FO2016_e2a_4","233","lark",1,"Aloud",6,1210,"Include"
"FO2016_e2a","FO2016_e2a_4","234","sugar",0,"New",4,7338,"Include"
"FO2016_e2a","FO2016_e2a_4","235","glory",1,"Aloud",5,1498,"Include"
"FO2016_e2a","FO2016_e2a_4","236","series",0,"New",2,1730,"Include"
"FO2016_e2a","FO2016_e2a_4","237","misery",1,"Aloud",5,1546,"Include"
"FO2016_e2a","FO2016_e2a_4","238","assault",1,"Aloud",3,2722,"Include"
"FO2016_e2a","FO2016_e2a_4","239","vision",0,"New",4,3194,"Include"
"FO2016_e2a","FO2016_e2a_4","240","flesh",0,"New",2,1098,"Include"
"FO2016_e2a","FO2016_e2a_5","3","church",1,"Silent",2,3362,"Include"
"FO2016_e2a","FO2016_e2a_5","4","idea",0,"New",4,5330,"Include"
"FO2016_e2a","FO2016_e2a_5","5","glory",1,"Silent",5,1818,"Include"
"FO2016_e2a","FO2016_e2a_5","6","atmosphere",1,"Aloud",6,2138,"Include"
"FO2016_e2a","FO2016_e2a_5","7","plain",0,"New",3,3242,"Include"
"FO2016_e2a","FO2016_e2a_5","8","disposition",1,"Silent",2,1874,"Include"
"FO2016_e2a","FO2016_e2a_5","9","flesh",0,"New",4,7946,"Include"
"FO2016_e2a","FO2016_e2a_5","10","victim",0,"New",2,2010,"Include"
"FO2016_e2a","FO2016_e2a_5","11","disaster",0,"New",3,2074,"Include"
"FO2016_e2a","FO2016_e2a_5","12","ocean",0,"New",3,2266,"Include"
"FO2016_e2a","FO2016_e2a_5","13","city",1,"Aloud",4,1866,"Include"
"FO2016_e2a","FO2016_e2a_5","14","item",1,"Aloud",3,1330,"Include"
"FO2016_e2a","FO2016_e2a_5","15","grief",0,"New",3,1738,"Include"
"FO2016_e2a","FO2016_e2a_5","16","attendant",1,"Silent",4,2378,"Include"
"FO2016_e2a","FO2016_e2a_5","17","ability",1,"Aloud",5,2394,"Include"
"FO2016_e2a","FO2016_e2a_5","18","appearance",1,"Silent",6,1522,"Include"
"FO2016_e2a","FO2016_e2a_5","19","virtue",1,"Silent",2,3194,"Include"
"FO2016_e2a","FO2016_e2a_5","20","committee",0,"New",1,1722,"Include"
"FO2016_e2a","FO2016_e2a_5","21","railroad",0,"New",1,842,"Include"
"FO2016_e2a","FO2016_e2a_5","22","cat",0,"New",1,882,"Include"
"FO2016_e2a","FO2016_e2a_5","23","cash",0,"New",4,2562,"Include"
"FO2016_e2a","FO2016_e2a_5","24","stone",0,"New",2,1906,"Include"
"FO2016_e2a","FO2016_e2a_5","25","tomb",1,"Aloud",6,3242,"Include"
"FO2016_e2a","FO2016_e2a_5","26","nephew",1,"Aloud",6,1522,"Include"
"FO2016_e2a","FO2016_e2a_5","27","scarlet",1,"Aloud",1,1970,"Include"
"FO2016_e2a","FO2016_e2a_5","28","comparison",0,"New",1,1498,"Include"
"FO2016_e2a","FO2016_e2a_5","29","captive",1,"Silent",2,3882,"Include"
"FO2016_e2a","FO2016_e2a_5","30","revolt",0,"New",2,1778,"Include"
"FO2016_e2a","FO2016_e2a_5","31","attitude",0,"New",5,2602,"Include"
"FO2016_e2a","FO2016_e2a_5","32","vegetable",0,"New",2,1154,"Include"
"FO2016_e2a","FO2016_e2a_5","33","air",0,"New",2,1354,"Include"
"FO2016_e2a","FO2016_e2a_5","34","sensation",0,"New",3,3666,"Include"
"FO2016_e2a","FO2016_e2a_5","35","string",0,"New",4,2578,"Include"
"FO2016_e2a","FO2016_e2a_5","36","quality",1,"Silent",5,3410,"Include"
"FO2016_e2a","FO2016_e2a_5","37","settler",1,"Aloud",6,1906,"Include"
"FO2016_e2a","FO2016_e2a_5","38","storm",0,"New",6,1914,"Include"
"FO2016_e2a","FO2016_e2a_5","39","beggar",0,"New",1,1762,"Include"
"FO2016_e2a","FO2016_e2a_5","40","tablespoon",1,"Silent",6,1562,"Include"
"FO2016_e2a","FO2016_e2a_5","41","army",1,"Aloud",4,1522,"Include"
"FO2016_e2a","FO2016_e2a_5","42","master",0,"New",2,2706,"Include"
"FO2016_e2a","FO2016_e2a_5","43","salute",0,"New",4,8442,"Include"
"FO2016_e2a","FO2016_e2a_5","44","vessel",1,"Aloud",5,1434,"Include"
"FO2016_e2a","FO2016_e2a_5","45","law",0,"New",3,2314,"Include"
"FO2016_e2a","FO2016_e2a_5","47","sauce",0,"New",2,1434,"Include"
"FO2016_e2a","FO2016_e2a_5","48","sovereign",1,"Aloud",4,1722,"Include"
"FO2016_e2a","FO2016_e2a_5","49","creature",1,"Aloud",5,1039,"Include"
"FO2016_e2a","FO2016_e2a_5","50","baron",0,"New",1,1450,"Include"
"FO2016_e2a","FO2016_e2a_5","51","colony",0,"New",2,1194,"Include"
"FO2016_e2a","FO2016_e2a_5","52","moss",0,"New",2,1234,"Include"
"FO2016_e2a","FO2016_e2a_5","53","boss",1,"Silent",5,1546,"Include"
"FO2016_e2a","FO2016_e2a_5","55","contents",1,"Aloud",2,1882,"Include"
"FO2016_e2a","FO2016_e2a_5","56","sea",1,"Aloud",2,978,"Include"
"FO2016_e2a","FO2016_e2a_5","57","fisherman",0,"New",1,1794,"Include"
"FO2016_e2a","FO2016_e2a_5","58","mercy",0,"New",4,1346,"Include"
"FO2016_e2a","FO2016_e2a_5","59","assault",0,"New",5,4106,"Include"
"FO2016_e2a","FO2016_e2a_5","60","diamond",0,"New",2,1370,"Include"
"FO2016_e2a","FO2016_e2a_5","61","quest",1,"Aloud",4,3986,"Include"
"FO2016_e2a","FO2016_e2a_5","62","death",1,"Aloud",3,1778,"Include"
"FO2016_e2a","FO2016_e2a_5","63","library",1,"Aloud",3,2186,"Include"
"FO2016_e2a","FO2016_e2a_5","64","intellect",0,"New",2,1610,"Include"
"FO2016_e2a","FO2016_e2a_5","65","array",0,"New",4,1538,"Include"
"FO2016_e2a","FO2016_e2a_5","66","nail",1,"Aloud",3,5210,"Include"
"FO2016_e2a","FO2016_e2a_5","67","attribute",1,"Silent",5,1858,"Include"
"FO2016_e2a","FO2016_e2a_5","69","decree",1,"Silent",5,1698,"Include"
"FO2016_e2a","FO2016_e2a_5","70","sickness",1,"Silent",2,2602,"Include"
"FO2016_e2a","FO2016_e2a_5","71","time",0,"New",1,1426,"Include"
"FO2016_e2a","FO2016_e2a_5","72","gentleman",1,"Aloud",6,1250,"Include"
"FO2016_e2a","FO2016_e2a_5","73","money",1,"Silent",6,1178,"Include"
"FO2016_e2a","FO2016_e2a_5","74","baby",0,"New",1,1290,"Include"
"FO2016_e2a","FO2016_e2a_5","75","fox",0,"New",2,2506,"Include"
"FO2016_e2a","FO2016_e2a_5","76","artist",0,"New",2,1930,"Include"
"FO2016_e2a","FO2016_e2a_5","77","weapon",1,"Silent",2,1762,"Include"
"FO2016_e2a","FO2016_e2a_5","78","substitute",0,"New",5,1586,"Include"
"FO2016_e2a","FO2016_e2a_5","79","impulse",1,"Silent",4,2282,"Include"
"FO2016_e2a","FO2016_e2a_5","80","prairie",0,"New",2,2138,"Include"
"FO2016_e2a","FO2016_e2a_5","81","series",1,"Aloud",2,1490,"Include"
"FO2016_e2a","FO2016_e2a_5","82","dirt",0,"New",1,1338,"Include"
"FO2016_e2a","FO2016_e2a_5","83","judge",1,"Aloud",6,1394,"Include"
"FO2016_e2a","FO2016_e2a_5","84","jail",1,"Aloud",6,1770,"Include"
"FO2016_e2a","FO2016_e2a_5","85","affection",0,"New",5,1650,"Include"
"FO2016_e2a","FO2016_e2a_5","86","elephant",0,"New",1,1234,"Include"
"FO2016_e2a","FO2016_e2a_5","87","murder",0,"New",2,1834,"Include"
"FO2016_e2a","FO2016_e2a_5","88","ambassador",0,"New",5,1594,"Include"
"FO2016_e2a","FO2016_e2a_5","89","tobacco",1,"Silent",6,1106,"Include"
"FO2016_e2a","FO2016_e2a_5","90","warmth",0,"New",2,3794,"Include"
"FO2016_e2a","FO2016_e2a_5","91","custom",1,"Aloud",5,2562,"Include"
"FO2016_e2a","FO2016_e2a_5","92","rock",1,"Aloud",5,2458,"Include"
"FO2016_e2a","FO2016_e2a_5","93","costume",1,"Silent",5,1146,"Include"
"FO2016_e2a","FO2016_e2a_5","94","thief",1,"Aloud",6,1322,"Include"
"FO2016_e2a","FO2016_e2a_5","95","facility",0,"New",6,1402,"Include"
"FO2016_e2a","FO2016_e2a_5","96","sulphur",1,"Silent",6,1250,"Include"
"FO2016_e2a","FO2016_e2a_5","97","soil",0,"New",6,1082,"Include"
"FO2016_e2a","FO2016_e2a_5","98","queen",0,"New",5,1634,"Include"
"FO2016_e2a","FO2016_e2a_5","99","rod",1,"Aloud",5,1386,"Include"
"FO2016_e2a","FO2016_e2a_5","100","lake",1,"Aloud",3,1586,"Include"
"FO2016_e2a","FO2016_e2a_5","101","metal",1,"Aloud",3,3578,"Include"
"FO2016_e2a","FO2016_e2a_5","102","product",1,"Silent",4,4378,"Include"
"FO2016_e2a","FO2016_e2a_5","103","convention",0,"New",1,1634,"Include"
"FO2016_e2a","FO2016_e2a_5","104","picture",0,"New",2,7898,"Include"
"FO2016_e2a","FO2016_e2a_5","105","charter",1,"Aloud",5,2178,"Include"
"FO2016_e2a","FO2016_e2a_5","106","oxygen",1,"Silent",3,1842,"Include"
"FO2016_e2a","FO2016_e2a_5","107","skin",1,"Aloud",3,4266,"Include"
"FO2016_e2a","FO2016_e2a_5","108","chair",1,"Silent",4,1082,"Include"
"FO2016_e2a","FO2016_e2a_5","109","direction",0,"New",2,1762,"Include"
"FO2016_e2a","FO2016_e2a_5","110","thorn",1,"Aloud",5,1370,"Include"
"FO2016_e2a","FO2016_e2a_5","111","child",0,"New",2,4002,"Include"
"FO2016_e2a","FO2016_e2a_5","112","sunset",0,"New",2,1722,"Include"
"FO2016_e2a","FO2016_e2a_5","113","lark",1,"Silent",6,1858,"Include"
"FO2016_e2a","FO2016_e2a_5","114","moment",0,"New",3,1802,"Include"
"FO2016_e2a","FO2016_e2a_5","115","circuit",1,"Aloud",5,1994,"Include"
"FO2016_e2a","FO2016_e2a_5","116","misery",1,"Silent",5,1074,"Include"
"FO2016_e2a","FO2016_e2a_5","117","amount",1,"Aloud",2,2994,"Include"
"FO2016_e2a","FO2016_e2a_5","118","hint",1,"Silent",2,1106,"Include"
"FO2016_e2a","FO2016_e2a_5","119","mind",0,"New",3,2786,"Include"
"FO2016_e2a","FO2016_e2a_5","120","procession",0,"New",1,1898,"Include"
"FO2016_e2a","FO2016_e2a_5","121","cabin",0,"New",3,5506,"Include"
"FO2016_e2a","FO2016_e2a_5","122","sky",0,"New",2,1514,"Include"
"FO2016_e2a","FO2016_e2a_5","123","goddess",1,"Aloud",6,1594,"Include"
"FO2016_e2a","FO2016_e2a_5","124","effort",1,"Silent",2,2050,"Include"
"FO2016_e2a","FO2016_e2a_5","125","gallery",0,"New",4,1762,"Include"
"FO2016_e2a","FO2016_e2a_5","127","inhabitant",0,"New",1,1378,"Include"
"FO2016_e2a","FO2016_e2a_5","128","chance",0,"New",3,3050,"Include"
"FO2016_e2a","FO2016_e2a_5","129","interest",0,"New",3,2754,"Include"
"FO2016_e2a","FO2016_e2a_5","130","moisture",1,"Silent",2,1362,"Include"
"FO2016_e2a","FO2016_e2a_5","131","vanity",0,"New",2,1066,"Include"
"FO2016_e2a","FO2016_e2a_5","132","capacity",1,"Aloud",4,1402,"Include"
"FO2016_e2a","FO2016_e2a_5","133","winter",1,"Aloud",1,2266,"Include"
"FO2016_e2a","FO2016_e2a_5","134","length",0,"New",1,3170,"Include"
"FO2016_e2a","FO2016_e2a_5","135","drama",0,"New",1,4578,"Include"
"FO2016_e2a","FO2016_e2a_5","136","window",0,"New",1,2058,"Include"
"FO2016_e2a","FO2016_e2a_5","137","camp",0,"New",1,1258,"Include"
"FO2016_e2a","FO2016_e2a_5","138","claw",0,"New",2,3314,"Include"
"FO2016_e2a","FO2016_e2a_5","139","sugar",0,"New",1,2314,"Include"
"FO2016_e2a","FO2016_e2a_5","140","majority",1,"Aloud",4,1314,"Include"
"FO2016_e2a","FO2016_e2a_5","141","ankle",1,"Silent",3,5194,"Include"
"FO2016_e2a","FO2016_e2a_5","142","maker",1,"Aloud",2,6890,"Include"
"FO2016_e2a","FO2016_e2a_5","143","fire",0,"New",1,1546,"Include"
"FO2016_e2a","FO2016_e2a_5","144","journal",0,"New",1,1266,"Include"
"FO2016_e2a","FO2016_e2a_5","145","code",0,"New",1,1642,"Include"
"FO2016_e2a","FO2016_e2a_5","146","democracy",0,"New",1,1050,"Include"
"FO2016_e2a","FO2016_e2a_5","147","cotton",1,"Silent",2,4354,"Include"
"FO2016_e2a","FO2016_e2a_5","148","clock",1,"Aloud",2,2018,"Include"
"FO2016_e2a","FO2016_e2a_5","149","banker",1,"Silent",1,1570,"Include"
"FO2016_e2a","FO2016_e2a_5","150","river",1,"Silent",4,1442,"Include"
"FO2016_e2a","FO2016_e2a_5","151","love",1,"Aloud",6,2266,"Include"
"FO2016_e2a","FO2016_e2a_5","153","ticket",1,"Silent",4,1562,"Include"
"FO2016_e2a","FO2016_e2a_5","154","shadow",1,"Aloud",3,2338,"Include"
"FO2016_e2a","FO2016_e2a_5","155","lecture",1,"Aloud",2,1978,"Include"
"FO2016_e2a","FO2016_e2a_5","156","beaver",0,"New",1,986,"Include"
"FO2016_e2a","FO2016_e2a_5","157","institute",0,"New",1,1042,"Include"
"FO2016_e2a","FO2016_e2a_5","158","speech",1,"Silent",4,1162,"Include"
"FO2016_e2a","FO2016_e2a_5","159","spray",1,"Aloud",6,1394,"Include"
"FO2016_e2a","FO2016_e2a_5","160","king",1,"Aloud",2,2786,"Include"
"FO2016_e2a","FO2016_e2a_5","161","steam",0,"New",2,4178,"Include"
"FO2016_e2a","FO2016_e2a_5","162","conquest",0,"New",4,7802,"Include"
"FO2016_e2a","FO2016_e2a_5","163","foam",0,"New",1,1314,"Include"
"FO2016_e2a","FO2016_e2a_5","164","shame",0,"New",1,1482,"Include"
"FO2016_e2a","FO2016_e2a_5","165","grass",1,"Aloud",1,1170,"Include"
"FO2016_e2a","FO2016_e2a_5","166","boulder",0,"New",2,1650,"Include"
"FO2016_e2a","FO2016_e2a_5","167","christmas",0,"New",1,1714,"Include"
"FO2016_e2a","FO2016_e2a_5","168","garden",1,"Silent",4,1354,"Include"
"FO2016_e2a","FO2016_e2a_5","169","jury",1,"Silent",5,1378,"Include"
"FO2016_e2a","FO2016_e2a_5","170","party",0,"New",2,1562,"Include"
"FO2016_e2a","FO2016_e2a_5","171","car",1,"Aloud",1,1010,"Include"
"FO2016_e2a","FO2016_e2a_5","172","moral",0,"New",2,2810,"Include"
"FO2016_e2a","FO2016_e2a_5","173","link",1,"Aloud",4,1842,"Include"
"FO2016_e2a","FO2016_e2a_5","174","corner",1,"Silent",4,1314,"Include"
"FO2016_e2a","FO2016_e2a_5","175","oven",1,"Silent",2,2586,"Include"
"FO2016_e2a","FO2016_e2a_5","176","physician",1,"Aloud",6,2114,"Include"
"FO2016_e2a","FO2016_e2a_5","177","science",1,"Silent",2,1450,"Include"
"FO2016_e2a","FO2016_e2a_5","178","horse",0,"New",2,3298,"Include"
"FO2016_e2a","FO2016_e2a_5","179","cellar",1,"Silent",6,1362,"Include"
"FO2016_e2a","FO2016_e2a_5","180","book",0,"New",3,2034,"Include"
"FO2016_e2a","FO2016_e2a_5","181","folly",0,"New",1,1370,"Include"
"FO2016_e2a","FO2016_e2a_5","182","wife",0,"New",1,1466,"Include"
"FO2016_e2a","FO2016_e2a_5","183","bosom",1,"Aloud",6,1490,"Include"
"FO2016_e2a","FO2016_e2a_5","184","butterfly",0,"New",1,2076,"Include"
"FO2016_e2a","FO2016_e2a_5","185","tribute",0,"New",2,1594,"Include"
"FO2016_e2a","FO2016_e2a_5","186","welfare",1,"Silent",6,1258,"Include"
"FO2016_e2a","FO2016_e2a_5","187","situation",0,"New",2,3850,"Include"
"FO2016_e2a","FO2016_e2a_5","188","person",0,"New",1,1466,"Include"
"FO2016_e2a","FO2016_e2a_5","189","slave",1,"Aloud",6,1338,"Include"
"FO2016_e2a","FO2016_e2a_5","190","joke",0,"New",3,2050,"Include"
"FO2016_e2a","FO2016_e2a_5","191","star",1,"Aloud",2,3682,"Include"
"FO2016_e2a","FO2016_e2a_5","192","meeting",1,"Aloud",4,1362,"Include"
"FO2016_e2a","FO2016_e2a_5","193","reflection",1,"Silent",3,1690,"Include"
"FO2016_e2a","FO2016_e2a_5","194","butter",1,"Silent",5,1250,"Include"
"FO2016_e2a","FO2016_e2a_5","195","door",1,"Silent",3,1466,"Include"
"FO2016_e2a","FO2016_e2a_5","196","competition",0,"New",4,2154,"Include"
"FO2016_e2a","FO2016_e2a_5","197","brain",0,"New",2,2474,"Include"
"FO2016_e2a","FO2016_e2a_5","198","leader",0,"New",4,7082,"Include"
"FO2016_e2a","FO2016_e2a_5","199","marriage",1,"Aloud",5,1458,"Include"
"FO2016_e2a","FO2016_e2a_5","200","prayer",0,"New",1,2146,"Include"
"FO2016_e2a","FO2016_e2a_5","201","grandmother",0,"New",1,2082,"Include"
"FO2016_e2a","FO2016_e2a_5","202","forest",1,"Aloud",2,2066,"Include"
"FO2016_e2a","FO2016_e2a_5","204","justice",0,"New",5,1098,"Include"
"FO2016_e2a","FO2016_e2a_5","205","deed",1,"Silent",3,1194,"Include"
"FO2016_e2a","FO2016_e2a_5","206","hatred",0,"New",1,1474,"Include"
"FO2016_e2a","FO2016_e2a_5","207","toast",1,"Aloud",3,3274,"Include"
"FO2016_e2a","FO2016_e2a_5","208","woods",1,"Silent",4,1522,"Include"
"FO2016_e2a","FO2016_e2a_5","209","instance",1,"Silent",3,3634,"Include"
"FO2016_e2a","FO2016_e2a_5","210","charm",0,"New",5,1386,"Include"
"FO2016_e2a","FO2016_e2a_5","211","prison",0,"New",3,4149,"Include"
"FO2016_e2a","FO2016_e2a_5","212","tower",1,"Aloud",3,3090,"Include"
"FO2016_e2a","FO2016_e2a_5","213","duty",0,"New",3,5994,"Include"
"FO2016_e2a","FO2016_e2a_5","214","headquarters",1,"Aloud",1,1178,"Include"
"FO2016_e2a","FO2016_e2a_5","215","priest",0,"New",4,2546,"Include"
"FO2016_e2a","FO2016_e2a_5","216","trouble",1,"Silent",3,2434,"Include"
"FO2016_e2a","FO2016_e2a_5","217","wheat",0,"New",3,1442,"Include"
"FO2016_e2a","FO2016_e2a_5","218","chin",0,"New",3,1634,"Include"
"FO2016_e2a","FO2016_e2a_5","219","monarch",0,"New",2,1522,"Include"
"FO2016_e2a","FO2016_e2a_5","220","pupil",1,"Aloud",5,1402,"Include"
"FO2016_e2a","FO2016_e2a_5","221","poetry",0,"New",2,4202,"Include"
"FO2016_e2a","FO2016_e2a_5","222","confidence",1,"Silent",4,1290,"Include"
"FO2016_e2a","FO2016_e2a_5","223","fork",0,"New",3,1394,"Include"
"FO2016_e2a","FO2016_e2a_5","224","necessity",1,"Silent",5,1218,"Include"
"FO2016_e2a","FO2016_e2a_5","225","iron",1,"Silent",4,1186,"Include"
"FO2016_e2a","FO2016_e2a_5","226","honour",0,"New",3,1154,"Include"
"FO2016_e2a","FO2016_e2a_5","227","vision",1,"Aloud",2,1418,"Include"
"FO2016_e2a","FO2016_e2a_5","228","animal",1,"Silent",1,4674,"Include"
"FO2016_e2a","FO2016_e2a_5","229","disease",0,"New",2,3682,"Include"
"FO2016_e2a","FO2016_e2a_5","230","robber",1,"Silent",4,1330,"Include"
"FO2016_e2a","FO2016_e2a_5","231","valley",0,"New",3,2410,"Include"
"FO2016_e2a","FO2016_e2a_5","232","harness",0,"New",3,1274,"Include"
"FO2016_e2a","FO2016_e2a_5","233","excuse",0,"New",2,1186,"Include"
"FO2016_e2a","FO2016_e2a_5","234","earth",1,"Silent",1,1322,"Include"
"FO2016_e2a","FO2016_e2a_5","235","frog",0,"New",4,1330,"Include"
"FO2016_e2a","FO2016_e2a_5","236","vapour",1,"Aloud",2,1618,"Include"
"FO2016_e2a","FO2016_e2a_5","237","arm",1,"Silent",1,4754,"Include"
"FO2016_e2a","FO2016_e2a_5","238","material",1,"Silent",4,1290,"Include"
"FO2016_e2a","FO2016_e2a_5","239","slipper",0,"New",1,1290,"Include"
"FO2016_e2a","FO2016_e2a_5","240","wine",1,"Silent",5,1778,"Include"
"FO2016_e2a","FO2016_e2a_6","3","ticket",0,"New",3,2890,"Include"
"FO2016_e2a","FO2016_e2a_6","4","skin",1,"Aloud",3,6410,"Include"
"FO2016_e2a","FO2016_e2a_6","5","prairie",0,"New",1,3466,"Include"
"FO2016_e2a","FO2016_e2a_6","6","money",0,"New",2,1778,"Include"
"FO2016_e2a","FO2016_e2a_6","7","lecture",1,"Silent",6,1618,"Include"
"FO2016_e2a","FO2016_e2a_6","8","slave",0,"New",3,2162,"Include"
"FO2016_e2a","FO2016_e2a_6","9","cellar",1,"Aloud",1,3410,"Include"
"FO2016_e2a","FO2016_e2a_6","10","chin",0,"New",1,1418,"Include"
"FO2016_e2a","FO2016_e2a_6","11","grass",1,"Silent",6,1282,"Include"
"FO2016_e2a","FO2016_e2a_6","12","weapon",1,"Aloud",4,3402,"Include"
"FO2016_e2a","FO2016_e2a_6","13","child",1,"Aloud",6,1466,"Include"
"FO2016_e2a","FO2016_e2a_6","14","virtue",0,"New",4,3242,"Include"
"FO2016_e2a","FO2016_e2a_6","15","car",0,"New",1,1330,"Include"
"FO2016_e2a","FO2016_e2a_6","16","church",1,"Aloud",6,1250,"Include"
"FO2016_e2a","FO2016_e2a_6","17","sea",0,"New",1,1746,"Include"
"FO2016_e2a","FO2016_e2a_6","18","vapour",1,"Silent",4,1490,"Include"
"FO2016_e2a","FO2016_e2a_6","19","prison",1,"Silent",6,1178,"Include"
"FO2016_e2a","FO2016_e2a_6","20","picture",0,"New",2,2162,"Include"
"FO2016_e2a","FO2016_e2a_6","21","ankle",0,"New",1,1138,"Include"
"FO2016_e2a","FO2016_e2a_6","22","moisture",1,"Silent",6,1674,"Include"
"FO2016_e2a","FO2016_e2a_6","23","material",0,"New",2,1866,"Include"
"FO2016_e2a","FO2016_e2a_6","24","steam",1,"Silent",2,1098,"Include"
"FO2016_e2a","FO2016_e2a_6","25","sugar",0,"New",1,946,"Include"
"FO2016_e2a","FO2016_e2a_6","26","trouble",1,"Aloud",6,1146,"Include"
"FO2016_e2a","FO2016_e2a_6","27","array",1,"Silent",6,1930,"Include"
"FO2016_e2a","FO2016_e2a_6","28","harness",0,"New",1,1474,"Include"
"FO2016_e2a","FO2016_e2a_6","29","tribute",0,"New",5,1746,"Include"
"FO2016_e2a","FO2016_e2a_6","30","robber",1,"Aloud",6,1242,"Include"
"FO2016_e2a","FO2016_e2a_6","31","garden",0,"New",5,1234,"Include"
"FO2016_e2a","FO2016_e2a_6","32","captive",0,"New",5,1810,"Include"
"FO2016_e2a","FO2016_e2a_6","33","wife",1,"Silent",6,2674,"Include"
"FO2016_e2a","FO2016_e2a_6","34","creature",0,"New",1,4282,"Include"
"FO2016_e2a","FO2016_e2a_6","35","sky",0,"New",1,1026,"Include"
"FO2016_e2a","FO2016_e2a_6","36","butterfly",1,"Aloud",1,1074,"Include"
"FO2016_e2a","FO2016_e2a_6","37","window",0,"New",4,1818,"Include"
"FO2016_e2a","FO2016_e2a_6","38","mind",0,"New",3,2946,"Include"
"FO2016_e2a","FO2016_e2a_6","39","facility",0,"New",5,2538,"Include"
"FO2016_e2a","FO2016_e2a_6","40","woods",0,"New",2,1274,"Include"
"FO2016_e2a","FO2016_e2a_6","41","assault",0,"New",6,1242,"Include"
"FO2016_e2a","FO2016_e2a_6","42","claw",1,"Silent",6,666,"Include"
"FO2016_e2a","FO2016_e2a_6","43","beaver",0,"New",2,1354,"Include"
"FO2016_e2a","FO2016_e2a_6","44","lake",0,"New",2,1282,"Include"
"FO2016_e2a","FO2016_e2a_6","45","chance",1,"Silent",1,1762,"Include"
"FO2016_e2a","FO2016_e2a_6","46","brain",0,"New",1,2434,"Include"
"FO2016_e2a","FO2016_e2a_6","47","law",1,"Silent",6,1170,"Include"
"FO2016_e2a","FO2016_e2a_6","48","revolt",1,"Silent",6,746,"Include"
"FO2016_e2a","FO2016_e2a_6","49","chair",1,"Aloud",6,554,"Include"
"FO2016_e2a","FO2016_e2a_6","50","nephew",0,"New",2,2258,"Include"
"FO2016_e2a","FO2016_e2a_6","51","conquest",0,"New",4,1466,"Include"
"FO2016_e2a","FO2016_e2a_6","52","fowl",1,"Aloud",6,1162,"Include"
"FO2016_e2a","FO2016_e2a_6","53","sensation",0,"New",4,1834,"Include"
"FO2016_e2a","FO2016_e2a_6","54","person",1,"Silent",2,1578,"Include"
"FO2016_e2a","FO2016_e2a_6","55","party",0,"New",1,1098,"Include"
"FO2016_e2a","FO2016_e2a_6","56","artist",1,"Silent",6,1226,"Include"
"FO2016_e2a","FO2016_e2a_6","57","mercy",1,"Silent",6,921,"Include"
"FO2016_e2a","FO2016_e2a_6","58","beggar",0,"New",4,1498,"Include"
"FO2016_e2a","FO2016_e2a_6","59","length",0,"New",2,1362,"Include"
"FO2016_e2a","FO2016_e2a_6","60","custom",0,"New",3,1346,"Include"
"FO2016_e2a","FO2016_e2a_6","61","disaster",0,"New",1,3010,"Include"
"FO2016_e2a","FO2016_e2a_6","62","storm",0,"New",1,1802,"Include"
"FO2016_e2a","FO2016_e2a_6","63","costume",0,"New",1,1658,"Include"
"FO2016_e2a","FO2016_e2a_6","64","dirt",1,"Aloud",5,2042,"Include"
"FO2016_e2a","FO2016_e2a_6","65","vegetable",1,"Silent",6,1106,"Include"
"FO2016_e2a","FO2016_e2a_6","66","love",1,"Aloud",6,714,"Include"
"FO2016_e2a","FO2016_e2a_6","67","intellect",1,"Silent",5,2106,"Include"
"FO2016_e2a","FO2016_e2a_6","68","hope",0,"New",3,2034,"Include"
"FO2016_e2a","FO2016_e2a_6","69","ability",0,"New",5,1650,"Include"
"FO2016_e2a","FO2016_e2a_6","70","scarlet",0,"New",1,1381,"Include"
"FO2016_e2a","FO2016_e2a_6","71","army",1,"Aloud",5,1210,"Include"
"FO2016_e2a","FO2016_e2a_6","72","moral",1,"Silent",6,954,"Include"
"FO2016_e2a","FO2016_e2a_6","73","butter",1,"Aloud",6,714,"Include"
"FO2016_e2a","FO2016_e2a_6","74","forest",1,"Silent",5,1370,"Include"
"FO2016_e2a","FO2016_e2a_6","75","direction",1,"Silent",4,3658,"Include"
"FO2016_e2a","FO2016_e2a_6","76","institute",0,"New",6,1250,"Include"
"FO2016_e2a","FO2016_e2a_6","77","link",1,"Silent",1,1474,"Include"
"FO2016_e2a","FO2016_e2a_6","78","fisherman",0,"New",1,1074,"Include"
"FO2016_e2a","FO2016_e2a_6","79","affection",1,"Silent",2,1370,"Include"
"FO2016_e2a","FO2016_e2a_6","80","fire",0,"New",1,1186,"Include"
"FO2016_e2a","FO2016_e2a_6","81","elephant",0,"New",1,810,"Include"
"FO2016_e2a","FO2016_e2a_6","82","menace",1,"Silent",6,1482,"Include"
"FO2016_e2a","FO2016_e2a_6","83","lark",0,"New",3,1450,"Include"
"FO2016_e2a","FO2016_e2a_6","84","headquarters",0,"New",1,1058,"Include"
"FO2016_e2a","FO2016_e2a_6","85","joke",0,"New",1,762,"Include"
"FO2016_e2a","FO2016_e2a_6","86","attitude",0,"New",5,1314,"Include"
"FO2016_e2a","FO2016_e2a_6","87","anxiety",0,"New",2,1306,"Include"
"FO2016_e2a","FO2016_e2a_6","88","king",0,"New",1,1010,"Include"
"FO2016_e2a","FO2016_e2a_6","89","clock",1,"Aloud",4,2346,"Include"
"FO2016_e2a","FO2016_e2a_6","90","iron",0,"New",2,2906,"Include"
"FO2016_e2a","FO2016_e2a_6","91","vessel",0,"New",2,2186,"Include"
"FO2016_e2a","FO2016_e2a_6","92","banker",1,"Aloud",6,1218,"Include"
"FO2016_e2a","FO2016_e2a_6","93","wheat",0,"New",4,2490,"Include"
"FO2016_e2a","FO2016_e2a_6","94","glory",0,"New",3,1802,"Include"
"FO2016_e2a","FO2016_e2a_6","95","honour",0,"New",5,1426,"Include"
"FO2016_e2a","FO2016_e2a_6","96","wine",0,"New",2,1266,"Include"
"FO2016_e2a","FO2016_e2a_6","97","death",1,"Silent",5,4130,"Include"
"FO2016_e2a","FO2016_e2a_6","98","boss",0,"New",2,1162,"Include"
"FO2016_e2a","FO2016_e2a_6","99","convention",0,"New",4,1794,"Include"
"FO2016_e2a","FO2016_e2a_6","100","reflection",1,"Silent",2,1762,"Include"
"FO2016_e2a","FO2016_e2a_6","101","air",0,"New",1,1082,"Include"
"FO2016_e2a","FO2016_e2a_6","102","idea",1,"Silent",1,786,"Include"
"FO2016_e2a","FO2016_e2a_6","103","boulder",0,"New",1,1938,"Include"
"FO2016_e2a","FO2016_e2a_6","104","charm",1,"Silent",6,1306,"Include"
"FO2016_e2a","FO2016_e2a_6","105","cabin",1,"Aloud",3,2634,"Include"
"FO2016_e2a","FO2016_e2a_6","106","interest",1,"Silent",3,1362,"Include"
"FO2016_e2a","FO2016_e2a_6","107","metal",1,"Aloud",4,1410,"Include"
"FO2016_e2a","FO2016_e2a_6","108","cash",0,"New",1,1306,"Include"
"FO2016_e2a","FO2016_e2a_6","109","nail",0,"New",1,810,"Include"
"FO2016_e2a","FO2016_e2a_6","110","jail",1,"Aloud",6,1154,"Include"
"FO2016_e2a","FO2016_e2a_6","111","sauce",1,"Aloud",6,706,"Include"
"FO2016_e2a","FO2016_e2a_6","112","democracy",0,"New",1,1562,"Include"
"FO2016_e2a","FO2016_e2a_6","113","plain",1,"Silent",4,2170,"Include"
"FO2016_e2a","FO2016_e2a_6","114","procession",0,"New",1,3610,"Include"
"FO2016_e2a","FO2016_e2a_6","115","tobacco",0,"New",1,890,"Include"
"FO2016_e2a","FO2016_e2a_6","116","arm",0,"New",1,1138,"Include"
"FO2016_e2a","FO2016_e2a_6","117","leader",1,"Silent",5,1730,"Include"
"FO2016_e2a","FO2016_e2a_6","118","fox",1,"Silent",6,1226,"Include"
"FO2016_e2a","FO2016_e2a_6","119","thief",0,"New",6,906,"Include"
"FO2016_e2a","FO2016_e2a_6","120","pupil",0,"New",1,1322,"Include"
"FO2016_e2a","FO2016_e2a_6","121","tablespoon",0,"New",1,1058,"Include"
"FO2016_e2a","FO2016_e2a_6","122","victim",1,"Silent",6,1098,"Include"
"FO2016_e2a","FO2016_e2a_6","123","deed",0,"New",1,1602,"Include"
"FO2016_e2a","FO2016_e2a_6","124","contents",0,"New",4,1634,"Include"
"FO2016_e2a","FO2016_e2a_6","125","grief",1,"Aloud",4,1922,"Include"
"FO2016_e2a","FO2016_e2a_6","126","speech",1,"Aloud",3,2738,"Include"
"FO2016_e2a","FO2016_e2a_6","127","rod",1,"Aloud",6,1330,"Include"
"FO2016_e2a","FO2016_e2a_6","128","corner",1,"Aloud",1,1474,"Include"
"FO2016_e2a","FO2016_e2a_6","129","circuit",1,"Silent",4,1698,"Include"
"FO2016_e2a","FO2016_e2a_6","130","code",1,"Silent",1,1122,"Include"
"FO2016_e2a","FO2016_e2a_6","131","welfare",0,"New",4,2690,"Include"
"FO2016_e2a","FO2016_e2a_6","132","settler",0,"New",4,2162,"Include"
"FO2016_e2a","FO2016_e2a_6","133","necessity",1,"Silent",3,1594,"Include"
"FO2016_e2a","FO2016_e2a_6","134","inhabitant",0,"New",1,1570,"Include"
"FO2016_e2a","FO2016_e2a_6","135","poetry",1,"Silent",5,2426,"Include"
"FO2016_e2a","FO2016_e2a_6","136","excuse",1,"Aloud",3,1226,"Include"
"FO2016_e2a","FO2016_e2a_6","137","physician",0,"New",1,1138,"Include"
"FO2016_e2a","FO2016_e2a_6","138","justice",1,"Silent",6,1378,"Include"
"FO2016_e2a","FO2016_e2a_6","139","maker",0,"New",2,1506,"Include"
"FO2016_e2a","FO2016_e2a_6","140","shadow",0,"New",5,1362,"Include"
"FO2016_e2a","FO2016_e2a_6","141","vanity",0,"New",1,1418,"Include"
"FO2016_e2a","FO2016_e2a_6","142","quality",0,"New",1,2098,"Include"
"FO2016_e2a","FO2016_e2a_6","143","rock",0,"New",4,1730,"Include"
"FO2016_e2a","FO2016_e2a_6","144","horse",1,"Aloud",6,1122,"Include"
"FO2016_e2a","FO2016_e2a_6","145","goddess",1,"Silent",6,2762,"Include"
"FO2016_e2a","FO2016_e2a_6","146","murder",0,"New",6,770,"Include"
"FO2016_e2a","FO2016_e2a_6","147","cat",0,"New",1,1130,"Include"
"FO2016_e2a","FO2016_e2a_6","148","sunset",0,"New",1,1098,"Include"
"FO2016_e2a","FO2016_e2a_6","149","time",1,"Aloud",3,1386,"Include"
"FO2016_e2a","FO2016_e2a_6","150","library",0,"New",3,786,"Include"
"FO2016_e2a","FO2016_e2a_6","151","stone",1,"Aloud",5,1450,"Include"
"FO2016_e2a","FO2016_e2a_6","152","ocean",1,"Silent",1,1538,"Include"
"FO2016_e2a","FO2016_e2a_6","153","earth",1,"Aloud",6,1262,"Include"
"FO2016_e2a","FO2016_e2a_6","154","moment",1,"Aloud",6,1634,"Include"
"FO2016_e2a","FO2016_e2a_6","155","attribute",1,"Aloud",5,1314,"Include"
"FO2016_e2a","FO2016_e2a_6","156","ambassador",1,"Silent",6,1170,"Include"
"FO2016_e2a","FO2016_e2a_6","157","bowl",0,"New",2,1538,"Include"
"FO2016_e2a","FO2016_e2a_6","158","majority",0,"New",2,1386,"Include"
"FO2016_e2a","FO2016_e2a_6","159","spray",1,"Silent",1,954,"Include"
"FO2016_e2a","FO2016_e2a_6","160","fork",1,"Aloud",2,3842,"Include"
"FO2016_e2a","FO2016_e2a_6","161","star",1,"Silent",6,1762,"Include"
"FO2016_e2a","FO2016_e2a_6","162","door",1,"Aloud",3,2346,"Include"
"FO2016_e2a","FO2016_e2a_6","163","competition",0,"New",2,1890,"Include"
"FO2016_e2a","FO2016_e2a_6","164","book",0,"New",2,906,"Include"
"FO2016_e2a","FO2016_e2a_6","165","monarch",1,"Silent",6,1346,"Include"
"FO2016_e2a","FO2016_e2a_6","166","railroad",1,"Aloud",6,674,"Include"
"FO2016_e2a","FO2016_e2a_6","167","vision",1,"Aloud",4,1914,"Include"
"FO2016_e2a","FO2016_e2a_6","168","thorn",1,"Silent",2,1018,"Include"
"FO2016_e2a","FO2016_e2a_6","169","capacity",1,"Silent",2,1202,"Include"
"FO2016_e2a","FO2016_e2a_6","170","valley",1,"Aloud",6,1706,"Include"
"FO2016_e2a","FO2016_e2a_6","171","judge",0,"New",5,4546,"Include"
"FO2016_e2a","FO2016_e2a_6","172","science",1,"Silent",6,1890,"Include"
"FO2016_e2a","FO2016_e2a_6","173","camp",1,"Aloud",6,594,"Include"
"FO2016_e2a","FO2016_e2a_6","174","confidence",1,"Silent",4,2890,"Include"
"FO2016_e2a","FO2016_e2a_6","175","comparison",0,"New",2,1210,"Include"
"FO2016_e2a","FO2016_e2a_6","176","sovereign",0,"New",4,2266,"Include"
"FO2016_e2a","FO2016_e2a_6","177","hammer",0,"New",3,1370,"Include"
"FO2016_e2a","FO2016_e2a_6","178","slipper",1,"Silent",1,994,"Include"
"FO2016_e2a","FO2016_e2a_6","179","winter",0,"New",4,1986,"Include"
"FO2016_e2a","FO2016_e2a_6","180","diamond",0,"New",2,1658,"Include"
"FO2016_e2a","FO2016_e2a_6","181","disease",1,"Aloud",4,2074,"Include"
"FO2016_e2a","FO2016_e2a_6","182","product",0,"New",1,1634,"Include"
"FO2016_e2a","FO2016_e2a_6","183","item",0,"New",1,730,"Include"
"FO2016_e2a","FO2016_e2a_6","184","christmas",0,"New",1,866,"Include"
"FO2016_e2a","FO2016_e2a_6","185","tower",0,"New",1,794,"Include"
"FO2016_e2a","FO2016_e2a_6","186","impulse",0,"New",1,930,"Include"
"FO2016_e2a","FO2016_e2a_6","187","shame",0,"New",1,1618,"Include"
"FO2016_e2a","FO2016_e2a_6","188","substitute",0,"New",3,1802,"Include"
"FO2016_e2a","FO2016_e2a_6","189","quest",0,"New",5,1122,"Include"
"FO2016_e2a","FO2016_e2a_6","190","prayer",1,"Aloud",5,1338,"Include"
"FO2016_e2a","FO2016_e2a_6","191","sickness",1,"Silent",3,1730,"Include"
"FO2016_e2a","FO2016_e2a_6","192","moss",1,"Aloud",5,1258,"Include"
"FO2016_e2a","FO2016_e2a_6","193","journal",0,"New",3,2050,"Include"
"FO2016_e2a","FO2016_e2a_6","194","committee",0,"New",2,834,"Include"
"FO2016_e2a","FO2016_e2a_6","195","decree",1,"Silent",1,978,"Include"
"FO2016_e2a","FO2016_e2a_6","196","series",0,"New",3,2274,"Include"
"FO2016_e2a","FO2016_e2a_6","197","effort",1,"Aloud",4,1802,"Include"
"FO2016_e2a","FO2016_e2a_6","198","grandmother",1,"Aloud",6,1194,"Include"
"FO2016_e2a","FO2016_e2a_6","199","master",1,"Aloud",6,1746,"Include"
"FO2016_e2a","FO2016_e2a_6","200","gentleman",1,"Silent",6,570,"Include"
"FO2016_e2a","FO2016_e2a_6","201","soil",0,"New",6,762,"Include"
"FO2016_e2a","FO2016_e2a_6","202","atmosphere",0,"New",4,1250,"Include"
"FO2016_e2a","FO2016_e2a_6","203","marriage",0,"New",1,1482,"Include"
"FO2016_e2a","FO2016_e2a_6","204","city",0,"New",1,1002,"Include"
"FO2016_e2a","FO2016_e2a_6","205","situation",1,"Aloud",5,1866,"Include"
"FO2016_e2a","FO2016_e2a_6","206","jury",1,"Aloud",6,842,"Include"
"FO2016_e2a","FO2016_e2a_6","207","charter",1,"Aloud",6,898,"Include"
"FO2016_e2a","FO2016_e2a_6","208","comrade",1,"Aloud",6,666,"Include"
"FO2016_e2a","FO2016_e2a_6","209","baby",0,"New",1,1090,"Include"
"FO2016_e2a","FO2016_e2a_6","210","cotton",0,"New",2,922,"Include"
"FO2016_e2a","FO2016_e2a_6","211","string",0,"New",1,1138,"Include"
"FO2016_e2a","FO2016_e2a_6","212","instance",1,"Aloud",1,1018,"Include"
"FO2016_e2a","FO2016_e2a_6","213","amount",1,"Aloud",1,754,"Include"
"FO2016_e2a","FO2016_e2a_6","214","queen",1,"Silent",4,2130,"Include"
"FO2016_e2a","FO2016_e2a_6","215","foam",0,"New",1,954,"Include"
"FO2016_e2a","FO2016_e2a_6","216","river",1,"Aloud",5,1154,"Include"
"FO2016_e2a","FO2016_e2a_6","217","meeting",0,"New",1,906,"Include"
"FO2016_e2a","FO2016_e2a_6","218","salute",1,"Silent",6,1450,"Include"
"FO2016_e2a","FO2016_e2a_6","219","hint",1,"Silent",2,1194,"Include"
"FO2016_e2a","FO2016_e2a_6","220","flesh",0,"New",4,1618,"Include"
"FO2016_e2a","FO2016_e2a_6","221","gallery",1,"Silent",6,1338,"Include"
"FO2016_e2a","FO2016_e2a_6","222","appearance",0,"New",2,1050,"Include"
"FO2016_e2a","FO2016_e2a_6","223","warmth",1,"Aloud",2,1010,"Include"
"FO2016_e2a","FO2016_e2a_6","224","hatred",1,"Silent",6,1042,"Include"
"FO2016_e2a","FO2016_e2a_6","225","priest",1,"Aloud",6,802,"Include"
"FO2016_e2a","FO2016_e2a_6","226","misery",1,"Aloud",4,1138,"Include"
"FO2016_e2a","FO2016_e2a_6","227","disposition",1,"Silent",3,778,"Include"
"FO2016_e2a","FO2016_e2a_6","228","frog",1,"Silent",6,1402,"Include"
"FO2016_e2a","FO2016_e2a_6","229","duty",1,"Aloud",6,738,"Include"
"FO2016_e2a","FO2016_e2a_6","230","drama",0,"New",1,1194,"Include"
"FO2016_e2a","FO2016_e2a_6","231","toast",1,"Aloud",1,1474,"Include"
"FO2016_e2a","FO2016_e2a_6","232","colony",1,"Aloud",4,3354,"Include"
"FO2016_e2a","FO2016_e2a_6","233","animal",0,"New",2,1938,"Include"
"FO2016_e2a","FO2016_e2a_6","234","oxygen",0,"New",1,1050,"Include"
"FO2016_e2a","FO2016_e2a_6","235","oven",0,"New",1,1178,"Include"
"FO2016_e2a","FO2016_e2a_6","236","attendant",1,"Aloud",4,1474,"Include"
"FO2016_e2a","FO2016_e2a_6","237","bosom",1,"Aloud",6,1162,"Include"
"FO2016_e2a","FO2016_e2a_6","238","sulphur",1,"Silent",2,1258,"Include"
"FO2016_e2a","FO2016_e2a_6","239","folly",1,"Aloud",6,770,"Include"
"FO2016_e2a","FO2016_e2a_6","240","tomb",1,"Aloud",5,1610,"Include"
"FO2016_e2a","FO2016_e2a_7","2","woods",1,"Silent",2,2706,"Include"
"FO2016_e2a","FO2016_e2a_7","3","convention",1,"Aloud",6,3290,"Include"
"FO2016_e2a","FO2016_e2a_7","4","prairie",1,"Aloud",6,1066,"Include"
"FO2016_e2a","FO2016_e2a_7","5","arm",0,"New",1,1882,"Include"
"FO2016_e2a","FO2016_e2a_7","6","affection",0,"New",1,1130,"Include"
"FO2016_e2a","FO2016_e2a_7","7","inhabitant",1,"Aloud",5,2314,"Include"
"FO2016_e2a","FO2016_e2a_7","8","iron",1,"Silent",1,1314,"Include"
"FO2016_e2a","FO2016_e2a_7","9","conquest",1,"Aloud",6,1378,"Include"
"FO2016_e2a","FO2016_e2a_7","10","majority",1,"Aloud",6,994,"Include"
"FO2016_e2a","FO2016_e2a_7","11","cotton",0,"New",1,1266,"Include"
"FO2016_e2a","FO2016_e2a_7","12","product",0,"New",1,1850,"Include"
"FO2016_e2a","FO2016_e2a_7","13","deed",0,"New",1,1178,"Include"
"FO2016_e2a","FO2016_e2a_7","14","tablespoon",1,"Aloud",1,890,"Include"
"FO2016_e2a","FO2016_e2a_7","15","capacity",0,"New",2,2114,"Include"
"FO2016_e2a","FO2016_e2a_7","16","maker",1,"Silent",1,1618,"Include"
"FO2016_e2a","FO2016_e2a_7","17","ocean",1,"Silent",4,6194,"Include"
"FO2016_e2a","FO2016_e2a_7","18","sickness",1,"Aloud",6,1586,"Include"
"FO2016_e2a","FO2016_e2a_7","19","hammer",0,"New",1,1090,"Include"
"FO2016_e2a","FO2016_e2a_7","20","hint",0,"New",1,850,"Include"
"FO2016_e2a","FO2016_e2a_7","21","slave",0,"New",1,946,"Include"
"FO2016_e2a","FO2016_e2a_7","22","beaver",0,"New",1,1370,"Include"
"FO2016_e2a","FO2016_e2a_7","23","tobacco",0,"New",1,906,"Include"
"FO2016_e2a","FO2016_e2a_7","24","city",1,"Aloud",1,1682,"Include"
"FO2016_e2a","FO2016_e2a_7","25","effort",1,"Aloud",2,994,"Include"
"FO2016_e2a","FO2016_e2a_7","26","bosom",1,"Aloud",6,1250,"Include"
"FO2016_e2a","FO2016_e2a_7","27","bowl",1,"Silent",3,4434,"Include"
"FO2016_e2a","FO2016_e2a_7","28","pupil",1,"Silent",4,2434,"Include"
"FO2016_e2a","FO2016_e2a_7","29","facility",0,"New",2,1882,"Include"
"FO2016_e2a","FO2016_e2a_7","30","quality",0,"New",2,1834,"Include"
"FO2016_e2a","FO2016_e2a_7","31","intellect",1,"Silent",2,1906,"Include"
"FO2016_e2a","FO2016_e2a_7","32","wheat",0,"New",1,2258,"Include"
"FO2016_e2a","FO2016_e2a_7","33","salute",0,"New",1,994,"Include"
"FO2016_e2a","FO2016_e2a_7","34","comrade",1,"Aloud",6,1322,"Include"
"FO2016_e2a","FO2016_e2a_7","35","captive",1,"Aloud",5,1594,"Include"
"FO2016_e2a","FO2016_e2a_7","36","queen",1,"Silent",2,7274,"Include"
