"exp","id","item","isold","condition1","rating","RT","excluding","trial"
"FO2016_e2b","FO2016_e2b_9","committee",0,"Aloud",2,3946,"Include",1
"FO2016_e2b","FO2016_e2b_9","impulse",0,"Aloud",4,5858,"Include",2
"FO2016_e2b","FO2016_e2b_9","physician",0,"Aloud",2,3722,"Include",3
"FO2016_e2b","FO2016_e2b_9","animal",1,"Aloud",4,2578,"Include",4
"FO2016_e2b","FO2016_e2b_9","sulphur",0,"Aloud",1,2682,"Include",5
"FO2016_e2b","FO2016_e2b_9","duty",1,"Aloud",4,3058,"Include",6
"FO2016_e2b","FO2016_e2b_9","city",1,"Aloud",6,2274,"Include",7
"FO2016_e2b","FO2016_e2b_9","spray",1,"Aloud",6,1330,"Include",8
"FO2016_e2b","FO2016_e2b_9","material",1,"Aloud",6,1586,"Include",9
"FO2016_e2b","FO2016_e2b_9","oven",0,"Aloud",1,2802,"Include",10
"FO2016_e2b","FO2016_e2b_9","chin",0,"Aloud",1,1290,"Include",11
"FO2016_e2b","FO2016_e2b_9","slipper",0,"Aloud",1,2570,"Include",12
"FO2016_e2b","FO2016_e2b_9","disposition",0,"Aloud",5,2698,"Include",13
"FO2016_e2b","FO2016_e2b_9","oxygen",1,"Aloud",1,2018,"Include",14
"FO2016_e2b","FO2016_e2b_9","disease",0,"Aloud",4,2714,"Include",15
"FO2016_e2b","FO2016_e2b_9","air",0,"Aloud",3,2170,"Include",16
"FO2016_e2b","FO2016_e2b_9","vegetable",0,"Aloud",2,2794,"Include",17
"FO2016_e2b","FO2016_e2b_9","ability",1,"Aloud",6,1674,"Include",18
"FO2016_e2b","FO2016_e2b_9","artist",0,"Aloud",3,3594,"Include",19
"FO2016_e2b","FO2016_e2b_9","settler",0,"Aloud",3,1842,"Include",20
"FO2016_e2b","FO2016_e2b_9","amount",0,"Aloud",3,4170,"Include",21
"FO2016_e2b","FO2016_e2b_9","prairie",0,"Aloud",2,2154,"Include",22
"FO2016_e2b","FO2016_e2b_9","quest",1,"Aloud",6,1786,"Include",23
"FO2016_e2b","FO2016_e2b_9","river",1,"Aloud",5,1754,"Include",24
"FO2016_e2b","FO2016_e2b_9","disaster",1,"Aloud",6,1362,"Include",25
"FO2016_e2b","FO2016_e2b_9","murder",0,"Aloud",5,1618,"Include",26
"FO2016_e2b","FO2016_e2b_9","headquarters",1,"Aloud",6,978,"Include",27
"FO2016_e2b","FO2016_e2b_9","metal",0,"Aloud",3,4066,"Include",28
"FO2016_e2b","FO2016_e2b_9","horse",0,"Aloud",2,2186,"Include",29
"FO2016_e2b","FO2016_e2b_9","christmas",0,"Aloud",1,938,"Include",30
"FO2016_e2b","FO2016_e2b_9","attitude",1,"Aloud",6,994,"Include",31
"FO2016_e2b","FO2016_e2b_9","death",0,"Aloud",3,3930,"Include",32
"FO2016_e2b","FO2016_e2b_9","string",0,"Aloud",3,1522,"Include",33
"FO2016_e2b","FO2016_e2b_9","intellect",0,"Aloud",3,2586,"Include",34
"FO2016_e2b","FO2016_e2b_9","folly",1,"Aloud",2,2298,"Include",35
"FO2016_e2b","FO2016_e2b_9","vanity",1,"Aloud",5,2370,"Include",36
"FO2016_e2b","FO2016_e2b_9","salute",0,"Aloud",3,2354,"Include",37
"FO2016_e2b","FO2016_e2b_9","colony",0,"Aloud",3,2050,"Include",38
"FO2016_e2b","FO2016_e2b_9","circuit",1,"Aloud",6,1322,"Include",39
"FO2016_e2b","FO2016_e2b_9","dirt",0,"Aloud",2,2290,"Include",40
"FO2016_e2b","FO2016_e2b_9","valley",1,"Aloud",6,1170,"Include",41
"FO2016_e2b","FO2016_e2b_9","window",0,"Aloud",4,3234,"Include",42
"FO2016_e2b","FO2016_e2b_9","capacity",0,"Aloud",4,3394,"Include",43
"FO2016_e2b","FO2016_e2b_9","moisture",0,"Aloud",4,3050,"Include",44
"FO2016_e2b","FO2016_e2b_9","moss",0,"Aloud",2,7458,"Include",45
"FO2016_e2b","FO2016_e2b_9","form",1,"Aloud",2,1026,"Include",46
"FO2016_e2b","FO2016_e2b_9","situation",0,"Aloud",4,2058,"Include",47
"FO2016_e2b","FO2016_e2b_9","direction",0,"Aloud",4,1626,"Include",48
"FO2016_e2b","FO2016_e2b_9","monarch",1,"Aloud",5,3490,"Include",49
"FO2016_e2b","FO2016_e2b_9","weapon",1,"Aloud",6,882,"Include",50
"FO2016_e2b","FO2016_e2b_9","length",0,"Aloud",1,1658,"Include",51
"FO2016_e2b","FO2016_e2b_9","comrade",0,"Aloud",3,3218,"Include",52
"FO2016_e2b","FO2016_e2b_9","warmth",1,"Aloud",3,2578,"Include",53
"FO2016_e2b","FO2016_e2b_9","railroad",0,"Aloud",4,1658,"Include",54
"FO2016_e2b","FO2016_e2b_9","storm",1,"Aloud",6,2738,"Include",55
"FO2016_e2b","FO2016_e2b_9","goddess",1,"Aloud",6,778,"Include",56
"FO2016_e2b","FO2016_e2b_9","garden",0,"Aloud",4,2042,"Include",57
"FO2016_e2b","FO2016_e2b_9","fowl",0,"Aloud",2,2178,"Include",58
"FO2016_e2b","FO2016_e2b_9","robber",1,"Aloud",6,1114,"Include",59
"FO2016_e2b","FO2016_e2b_9","trouble",1,"Aloud",6,738,"Include",60
"FO2016_e2b","FO2016_e2b_9","charter",0,"Aloud",3,3138,"Include",61
"FO2016_e2b","FO2016_e2b_9","thorn",1,"Aloud",6,1602,"Include",62
"FO2016_e2b","FO2016_e2b_9","butter",0,"Aloud",1,1370,"Include",63
"FO2016_e2b","FO2016_e2b_9","fox",0,"Aloud",2,1306,"Include",64
"FO2016_e2b","FO2016_e2b_9","code",1,"Aloud",6,994,"Include",65
"FO2016_e2b","FO2016_e2b_9","atmosphere",0,"Aloud",1,1914,"Include",66
"FO2016_e2b","FO2016_e2b_9","skin",1,"Aloud",6,962,"Include",67
"FO2016_e2b","FO2016_e2b_9","attribute",1,"Aloud",6,1026,"Include",68
"FO2016_e2b","FO2016_e2b_9","excuse",1,"Aloud",6,1434,"Include",69
"FO2016_e2b","FO2016_e2b_9","plain",1,"Aloud",6,914,"Include",70
"FO2016_e2b","FO2016_e2b_9","leader",0,"Aloud",3,4578,"Include",71
"FO2016_e2b","FO2016_e2b_9","democracy",0,"Aloud",6,2610,"Include",72
"FO2016_e2b","FO2016_e2b_9","toast",0,"Aloud",1,1762,"Include",73
"FO2016_e2b","FO2016_e2b_9","inhabitant",1,"Aloud",5,4362,"Include",74
"FO2016_e2b","FO2016_e2b_9","glory",0,"Aloud",2,1386,"Include",75
"FO2016_e2b","FO2016_e2b_9","door",1,"Aloud",6,1762,"Include",76
"FO2016_e2b","FO2016_e2b_9","wheat",1,"Aloud",6,1098,"Include",77
"FO2016_e2b","FO2016_e2b_9","baron",0,"Aloud",2,2130,"Include",78
"FO2016_e2b","FO2016_e2b_9","interest",0,"Aloud",3,1626,"Include",79
"FO2016_e2b","FO2016_e2b_9","ankle",1,"Aloud",6,882,"Include",80
"FO2016_e2b","FO2016_e2b_9","comparison",1,"Aloud",3,3202,"Include",81
"FO2016_e2b","FO2016_e2b_9","welfare",1,"Aloud",4,1322,"Include",82
"FO2016_e2b","FO2016_e2b_9","decree",1,"Aloud",5,2218,"Include",83
"FO2016_e2b","FO2016_e2b_9","captive",0,"Aloud",3,1978,"Include",84
"FO2016_e2b","FO2016_e2b_9","king",0,"Aloud",2,2386,"Include",85
"FO2016_e2b","FO2016_e2b_9","cellar",0,"Aloud",2,1482,"Include",86
"FO2016_e2b","FO2016_e2b_9","gentleman",1,"Aloud",6,978,"Include",87
"FO2016_e2b","FO2016_e2b_9","sauce",0,"Aloud",3,2210,"Include",88
"FO2016_e2b","FO2016_e2b_9","cabin",1,"Aloud",6,1050,"Include",89
"FO2016_e2b","FO2016_e2b_9","mind",0,"Aloud",2,2706,"Include",90
"FO2016_e2b","FO2016_e2b_9","law",0,"Aloud",1,1650,"Include",91
"FO2016_e2b","FO2016_e2b_9","nail",1,"Aloud",6,842,"Include",92
"FO2016_e2b","FO2016_e2b_9","prayer",0,"Aloud",2,1994,"Include",93
"FO2016_e2b","FO2016_e2b_9","time",1,"Aloud",6,1890,"Include",94
"FO2016_e2b","FO2016_e2b_9","product",1,"Aloud",6,1186,"Include",95
"FO2016_e2b","FO2016_e2b_9","queen",1,"Aloud",6,1522,"Include",96
"FO2016_e2b","FO2016_e2b_9","fork",0,"Aloud",1,2794,"Include",97
"FO2016_e2b","FO2016_e2b_9","idea",1,"Aloud",6,1146,"Include",98
"FO2016_e2b","FO2016_e2b_9","hammer",1,"Aloud",4,2778,"Include",99
"FO2016_e2b","FO2016_e2b_9","majority",0,"Aloud",3,2570,"Include",100
"FO2016_e2b","FO2016_e2b_9","woods",1,"Aloud",6,826,"Include",101
"FO2016_e2b","FO2016_e2b_9","moment",0,"Aloud",2,2266,"Include",102
"FO2016_e2b","FO2016_e2b_9","claw",0,"Aloud",4,1586,"Include",103
"FO2016_e2b","FO2016_e2b_9","diamond",1,"Aloud",6,1578,"Include",104
"FO2016_e2b","FO2016_e2b_9","deed",0,"Aloud",2,1914,"Include",105
"FO2016_e2b","FO2016_e2b_9","sickness",0,"Aloud",1,1186,"Include",106
"FO2016_e2b","FO2016_e2b_9","camp",1,"Aloud",3,2018,"Include",107
"FO2016_e2b","FO2016_e2b_9","confidence",1,"Aloud",4,1466,"Include",108
"FO2016_e2b","FO2016_e2b_9","winter",1,"Aloud",3,2322,"Include",109
"FO2016_e2b","FO2016_e2b_9","attendant",1,"Aloud",6,962,"Include",110
"FO2016_e2b","FO2016_e2b_9","rod",0,"Aloud",2,1362,"Include",111
"FO2016_e2b","FO2016_e2b_9","butterfly",0,"Aloud",2,1578,"Include",112
"FO2016_e2b","FO2016_e2b_9","charm",0,"Aloud",3,1418,"Include",113
"FO2016_e2b","FO2016_e2b_9","arm",1,"Aloud",2,1954,"Include",114
"FO2016_e2b","FO2016_e2b_9","hope",1,"Aloud",6,1474,"Include",115
"FO2016_e2b","FO2016_e2b_9","sugar",1,"Aloud",6,1499,"Include",116
"FO2016_e2b","FO2016_e2b_9","revolt",1,"Aloud",6,1970,"Include",117
"FO2016_e2b","FO2016_e2b_9","wine",0,"Aloud",1,1346,"Include",118
"FO2016_e2b","FO2016_e2b_9","vapour",0,"Aloud",3,3682,"Include",119
"FO2016_e2b","FO2016_e2b_9","car",0,"Aloud",4,2282,"Include",120
"FO2016_e2b","FO2016_e2b_9","boss",0,"Aloud",3,1498,"Include",121
"FO2016_e2b","FO2016_e2b_9","tobacco",1,"Aloud",6,946,"Include",122
"FO2016_e2b","FO2016_e2b_9","army",0,"Aloud",3,1610,"Include",123
"FO2016_e2b","FO2016_e2b_9","harness",0,"Aloud",5,1474,"Include",124
"FO2016_e2b","FO2016_e2b_9","elephant",1,"Aloud",6,1034,"Include",125
"FO2016_e2b","FO2016_e2b_9","flesh",0,"Aloud",2,1938,"Include",126
"FO2016_e2b","FO2016_e2b_9","drama",0,"Aloud",3,1258,"Include",127
"FO2016_e2b","FO2016_e2b_9","lake",0,"Aloud",3,1138,"Include",128
"FO2016_e2b","FO2016_e2b_9","lark",1,"Aloud",6,922,"Include",129
"FO2016_e2b","FO2016_e2b_9","brain",1,"Aloud",6,922,"Include",130
"FO2016_e2b","FO2016_e2b_9","fisherman",1,"Aloud",6,1226,"Include",131
"FO2016_e2b","FO2016_e2b_9","money",0,"Aloud",2,3162,"Include",132
"FO2016_e2b","FO2016_e2b_9","frog",1,"Aloud",2,1986,"Include",133
"FO2016_e2b","FO2016_e2b_9","master",1,"Aloud",6,1282,"Include",134
"FO2016_e2b","FO2016_e2b_9","link",1,"Aloud",6,1010,"Include",135
"FO2016_e2b","FO2016_e2b_9","ambassador",0,"Aloud",6,1858,"Include",136
"FO2016_e2b","FO2016_e2b_9","priest",0,"Aloud",3,3818,"Include",137
"FO2016_e2b","FO2016_e2b_9","bowl",0,"Aloud",3,1458,"Include",138
"FO2016_e2b","FO2016_e2b_9","cotton",0,"Aloud",1,1706,"Include",139
"FO2016_e2b","FO2016_e2b_9","conquest",1,"Aloud",6,1194,"Include",140
"FO2016_e2b","FO2016_e2b_9","instance",1,"Aloud",2,2178,"Include",141
"FO2016_e2b","FO2016_e2b_9","beaver",1,"Aloud",6,1187,"Include",142
"FO2016_e2b","FO2016_e2b_9","shadow",0,"Aloud",2,3274,"Include",143
"FO2016_e2b","FO2016_e2b_9","steam",1,"Aloud",6,866,"Include",144
"FO2016_e2b","FO2016_e2b_9","convention",0,"Aloud",4,1434,"Include",145
"FO2016_e2b","FO2016_e2b_9","mercy",1,"Aloud",4,2210,"Include",146
"FO2016_e2b","FO2016_e2b_9","gallery",1,"Aloud",2,2714,"Include",147
"FO2016_e2b","FO2016_e2b_9","lecture",1,"Aloud",6,1090,"Include",148
"FO2016_e2b","FO2016_e2b_9","sovereign",1,"Aloud",3,2122,"Include",149
"FO2016_e2b","FO2016_e2b_9","affection",0,"Aloud",4,2722,"Include",150
"FO2016_e2b","FO2016_e2b_9","banker",1,"Aloud",2,3402,"Include",151
"FO2016_e2b","FO2016_e2b_9","virtue",0,"Aloud",2,1074,"Include",152
"FO2016_e2b","FO2016_e2b_9","earth",0,"Aloud",2,962,"Include",153
"FO2016_e2b","FO2016_e2b_9","book",1,"Aloud",3,2634,"Include",154
"FO2016_e2b","FO2016_e2b_9","love",1,"Aloud",6,1274,"Include",155
"FO2016_e2b","FO2016_e2b_9","tribute",1,"Aloud",6,2058,"Include",156
"FO2016_e2b","FO2016_e2b_9","speech",1,"Aloud",2,2538,"Include",157
"FO2016_e2b","FO2016_e2b_9","hatred",1,"Aloud",4,1594,"Include",158
"FO2016_e2b","FO2016_e2b_9","tower",0,"Aloud",4,3330,"Include",159
"FO2016_e2b","FO2016_e2b_9","custom",1,"Aloud",2,2098,"Include",160
"FO2016_e2b","FO2016_e2b_9","child",0,"Aloud",1,1098,"Include",161
"FO2016_e2b","FO2016_e2b_9","scarlet",1,"Aloud",6,1026,"Include",162
"FO2016_e2b","FO2016_e2b_9","corner",1,"Aloud",6,1386,"Include",163
"FO2016_e2b","FO2016_e2b_9","reflection",0,"Aloud",3,3146,"Include",164
"FO2016_e2b","FO2016_e2b_9","baby",0,"Aloud",1,3543,"Include",165
"FO2016_e2b","FO2016_e2b_9","grandmother",1,"Aloud",6,1018,"Include",166
"FO2016_e2b","FO2016_e2b_9","person",0,"Aloud",2,4778,"Include",167
"FO2016_e2b","FO2016_e2b_9","thief",0,"Aloud",2,1514,"Include",168
"FO2016_e2b","FO2016_e2b_9","slave",0,"Aloud",3,1562,"Include",169
"FO2016_e2b","FO2016_e2b_9","sea",1,"Aloud",6,1354,"Include",170
"FO2016_e2b","FO2016_e2b_9","sunset",1,"Aloud",4,1858,"Include",171
"FO2016_e2b","FO2016_e2b_9","victim",0,"Aloud",2,1810,"Include",172
"FO2016_e2b","FO2016_e2b_9","chair",1,"Aloud",1,2306,"Include",173
"FO2016_e2b","FO2016_e2b_9","shame",0,"Aloud",3,1602,"Include",174
"FO2016_e2b","FO2016_e2b_9","appearance",0,"Aloud",3,1394,"Include",175
"FO2016_e2b","FO2016_e2b_9","star",0,"Aloud",4,1274,"Include",176
"FO2016_e2b","FO2016_e2b_9","necessity",1,"Aloud",5,3490,"Include",177
"FO2016_e2b","FO2016_e2b_9","moral",0,"Aloud",2,2130,"Include",178
"FO2016_e2b","FO2016_e2b_9","ticket",1,"Aloud",2,1586,"Include",179
"FO2016_e2b","FO2016_e2b_9","meeting",0,"Aloud",2,1130,"Include",180
"FO2016_e2b","FO2016_e2b_9","contents",1,"Aloud",3,3634,"Include",181
"FO2016_e2b","FO2016_e2b_9","jail",0,"Aloud",3,2034,"Include",182
"FO2016_e2b","FO2016_e2b_9","wife",1,"Aloud",6,1138,"Include",183
"FO2016_e2b","FO2016_e2b_9","series",0,"Aloud",2,2314,"Include",184
"FO2016_e2b","FO2016_e2b_9","poetry",0,"Aloud",1,1162,"Include",185
"FO2016_e2b","FO2016_e2b_9","hint",0,"Aloud",2,1650,"Include",186
"FO2016_e2b","FO2016_e2b_9","assault",1,"Aloud",6,1106,"Include",187
"FO2016_e2b","FO2016_e2b_9","clock",1,"Aloud",6,2434,"Include",188
"FO2016_e2b","FO2016_e2b_9","forest",1,"Aloud",6,1074,"Include",189
"FO2016_e2b","FO2016_e2b_9","foam",0,"Aloud",2,1562,"Include",190
"FO2016_e2b","FO2016_e2b_9","tablespoon",1,"Aloud",6,1938,"Include",191
"FO2016_e2b","FO2016_e2b_9","ocean",1,"Aloud",2,1746,"Include",192
"FO2016_e2b","FO2016_e2b_9","beggar",0,"Aloud",1,1506,"Include",193
"FO2016_e2b","FO2016_e2b_9","effort",1,"Aloud",5,1706,"Include",194
"FO2016_e2b","FO2016_e2b_9","substitute",1,"Aloud",6,1690,"Include",195
"FO2016_e2b","FO2016_e2b_9","journal",1,"Aloud",3,2666,"Include",196
"FO2016_e2b","FO2016_e2b_9","joke",0,"Aloud",1,1354,"Include",197
"FO2016_e2b","FO2016_e2b_9","prison",1,"Aloud",4,1802,"Include",198
"FO2016_e2b","FO2016_e2b_9","vessel",0,"Aloud",2,3050,"Include",199
"FO2016_e2b","FO2016_e2b_9","maker",1,"Aloud",3,1738,"Include",200
"FO2016_e2b","FO2016_e2b_9","marriage",1,"Aloud",6,1258,"Include",201
"FO2016_e2b","FO2016_e2b_9","facility",1,"Aloud",5,1426,"Include",202
"FO2016_e2b","FO2016_e2b_9","creature",0,"Aloud",4,2010,"Include",203
"FO2016_e2b","FO2016_e2b_9","grief",0,"Aloud",2,1898,"Include",204
"FO2016_e2b","FO2016_e2b_9","misery",1,"Aloud",3,1290,"Include",205
"FO2016_e2b","FO2016_e2b_9","tomb",1,"Aloud",6,1610,"Include",206
"FO2016_e2b","FO2016_e2b_9","chance",1,"Aloud",4,1818,"Include",207
"FO2016_e2b","FO2016_e2b_9","anxiety",1,"Aloud",6,1074,"Include",208
"FO2016_e2b","FO2016_e2b_9","cash",1,"Aloud",6,1066,"Include",209
"FO2016_e2b","FO2016_e2b_9","honour",1,"Aloud",6,898,"Include",210
"FO2016_e2b","FO2016_e2b_9","soil",0,"Aloud",3,1234,"Include",211
"FO2016_e2b","FO2016_e2b_9","justice",1,"Aloud",6,954,"Include",212
"FO2016_e2b","FO2016_e2b_9","pupil",1,"Aloud",5,1226,"Include",213
"FO2016_e2b","FO2016_e2b_9","item",1,"Aloud",5,1714,"Include",214
"FO2016_e2b","FO2016_e2b_9","science",1,"Aloud",5,1402,"Include",215
"FO2016_e2b","FO2016_e2b_9","sky",0,"Aloud",2,1210,"Include",216
"FO2016_e2b","FO2016_e2b_9","boulder",1,"Aloud",6,1034,"Include",217
"FO2016_e2b","FO2016_e2b_9","costume",0,"Aloud",2,2642,"Include",218
"FO2016_e2b","FO2016_e2b_9","bosom",0,"Aloud",1,2378,"Include",219
"FO2016_e2b","FO2016_e2b_9","party",1,"Aloud",6,1074,"Include",220
"FO2016_e2b","FO2016_e2b_9","stone",1,"Aloud",6,1194,"Include",221
"FO2016_e2b","FO2016_e2b_9","iron",0,"Aloud",4,1322,"Include",222
"FO2016_e2b","FO2016_e2b_9","picture",1,"Aloud",4,1818,"Include",223
"FO2016_e2b","FO2016_e2b_9","church",0,"Aloud",4,1186,"Include",224
"FO2016_e2b","FO2016_e2b_9","cat",0,"Aloud",1,2634,"Include",225
"FO2016_e2b","FO2016_e2b_9","library",1,"Aloud",6,1042,"Include",226
"FO2016_e2b","FO2016_e2b_9","jury",0,"Aloud",2,1682,"Include",227
"FO2016_e2b","FO2016_e2b_9","quality",0,"Aloud",4,3786,"Include",228
"FO2016_e2b","FO2016_e2b_9","rock",0,"Aloud",2,2058,"Include",229
"FO2016_e2b","FO2016_e2b_9","array",1,"Aloud",5,2218,"Include",230
"FO2016_e2b","FO2016_e2b_9","grass",1,"Aloud",3,1546,"Include",231
"FO2016_e2b","FO2016_e2b_9","menace",0,"Aloud",4,1322,"Include",232
"FO2016_e2b","FO2016_e2b_9","sensation",1,"Aloud",5,1522,"Include",233
"FO2016_e2b","FO2016_e2b_9","fire",0,"Aloud",2,2042,"Include",234
"FO2016_e2b","FO2016_e2b_9","vision",0,"Aloud",4,5890,"Include",235
"FO2016_e2b","FO2016_e2b_9","competition",0,"Aloud",2,1986,"Include",236
"FO2016_e2b","FO2016_e2b_9","judge",0,"Aloud",2,1762,"Include",237
"FO2016_e2b","FO2016_e2b_9","procession",0,"Aloud",1,2434,"Include",238
"FO2016_e2b","FO2016_e2b_10","love",1,"Aloud",6,3354,"Include",1
"FO2016_e2b","FO2016_e2b_10","banker",1,"Aloud",5,2090,"Include",2
"FO2016_e2b","FO2016_e2b_10","assault",0,"Aloud",1,2410,"Include",3
"FO2016_e2b","FO2016_e2b_10","hope",0,"Aloud",1,2402,"Include",4
"FO2016_e2b","FO2016_e2b_10","excuse",1,"Aloud",3,2450,"Include",5
"FO2016_e2b","FO2016_e2b_10","physician",0,"Aloud",2,1970,"Include",6
"FO2016_e2b","FO2016_e2b_10","series",1,"Aloud",3,2882,"Include",7
"FO2016_e2b","FO2016_e2b_10","leader",0,"Aloud",2,1482,"Include",8
"FO2016_e2b","FO2016_e2b_10","trouble",1,"Aloud",2,2418,"Include",9
"FO2016_e2b","FO2016_e2b_10","diamond",0,"Aloud",1,1818,"Include",10
"FO2016_e2b","FO2016_e2b_10","shadow",0,"Aloud",3,3970,"Include",11
"FO2016_e2b","FO2016_e2b_10","comrade",1,"Aloud",4,3554,"Include",12
"FO2016_e2b","FO2016_e2b_10","lake",0,"Aloud",1,1370,"Include",13
"FO2016_e2b","FO2016_e2b_10","justice",0,"Aloud",1,1482,"Include",14
"FO2016_e2b","FO2016_e2b_10","earth",1,"Aloud",6,2978,"Include",15
"FO2016_e2b","FO2016_e2b_10","king",0,"Aloud",3,1418,"Include",16
"FO2016_e2b","FO2016_e2b_10","custom",1,"Aloud",4,1490,"Include",17
"FO2016_e2b","FO2016_e2b_10","corner",1,"Aloud",2,1642,"Include",18
"FO2016_e2b","FO2016_e2b_10","situation",0,"Aloud",1,1514,"Include",19
"FO2016_e2b","FO2016_e2b_10","nail",0,"Aloud",1,1194,"Include",20
"FO2016_e2b","FO2016_e2b_10","competition",0,"Aloud",5,1698,"Include",21
"FO2016_e2b","FO2016_e2b_10","arm",1,"Aloud",1,1306,"Include",22
"FO2016_e2b","FO2016_e2b_10","garden",1,"Aloud",2,7914,"Include",23
"FO2016_e2b","FO2016_e2b_10","committee",0,"Aloud",2,1322,"Include",24
"FO2016_e2b","FO2016_e2b_10","disposition",0,"Aloud",3,1458,"Include",25
"FO2016_e2b","FO2016_e2b_10","anxiety",0,"Aloud",1,1194,"Include",26
"FO2016_e2b","FO2016_e2b_10","dirt",0,"Aloud",1,2722,"Include",27
"FO2016_e2b","FO2016_e2b_10","misery",0,"Aloud",1,1178,"Include",28
"FO2016_e2b","FO2016_e2b_10","prayer",1,"Aloud",3,2186,"Include",29
"FO2016_e2b","FO2016_e2b_10","effort",0,"Aloud",2,1194,"Include",30
"FO2016_e2b","FO2016_e2b_10","forest",0,"Aloud",1,1058,"Include",31
"FO2016_e2b","FO2016_e2b_10","sovereign",0,"Aloud",1,1082,"Include",32
"FO2016_e2b","FO2016_e2b_10","direction",0,"Aloud",3,1706,"Include",33
"FO2016_e2b","FO2016_e2b_10","meeting",1,"Aloud",5,1546,"Include",34
"FO2016_e2b","FO2016_e2b_10","colony",0,"Aloud",2,1930,"Include",35
"FO2016_e2b","FO2016_e2b_10","intellect",1,"Aloud",5,2058,"Include",36
"FO2016_e2b","FO2016_e2b_10","mercy",1,"Aloud",6,1690,"Include",37
"FO2016_e2b","FO2016_e2b_10","beaver",0,"Aloud",1,1394,"Include",38
"FO2016_e2b","FO2016_e2b_10","charter",1,"Aloud",6,1594,"Include",39
"FO2016_e2b","FO2016_e2b_10","revolt",0,"Aloud",2,1554,"Include",40
"FO2016_e2b","FO2016_e2b_10","marriage",0,"Aloud",1,2930,"Include",41
"FO2016_e2b","FO2016_e2b_10","moral",0,"Aloud",2,1258,"Include",42
"FO2016_e2b","FO2016_e2b_10","frog",0,"Aloud",4,1538,"Include",43
"FO2016_e2b","FO2016_e2b_10","chin",0,"Aloud",3,1442,"Include",44
"FO2016_e2b","FO2016_e2b_10","monarch",0,"Aloud",2,1370,"Include",45
"FO2016_e2b","FO2016_e2b_10","star",0,"Aloud",1,1466,"Include",46
"FO2016_e2b","FO2016_e2b_10","woods",0,"Aloud",3,2514,"Include",47
"FO2016_e2b","FO2016_e2b_10","scarlet",1,"Aloud",6,1514,"Include",48
"FO2016_e2b","FO2016_e2b_10","elephant",0,"Aloud",1,1442,"Include",49
"FO2016_e2b","FO2016_e2b_10","speech",0,"Aloud",3,5066,"Include",50
"FO2016_e2b","FO2016_e2b_10","gentleman",1,"Aloud",2,2138,"Include",51
"FO2016_e2b","FO2016_e2b_10","wine",1,"Aloud",1,1546,"Include",52
"FO2016_e2b","FO2016_e2b_10","fox",1,"Aloud",4,1490,"Include",53
"FO2016_e2b","FO2016_e2b_10","chair",1,"Aloud",5,1218,"Include",54
"FO2016_e2b","FO2016_e2b_10","camp",1,"Aloud",6,1586,"Include",55
"FO2016_e2b","FO2016_e2b_10","hammer",1,"Aloud",6,1466,"Include",56
"FO2016_e2b","FO2016_e2b_10","democracy",1,"Aloud",2,4194,"Include",57
"FO2016_e2b","FO2016_e2b_10","atmosphere",1,"Aloud",6,1386,"Include",58
"FO2016_e2b","FO2016_e2b_10","deed",0,"Aloud",2,4450,"Include",59
"FO2016_e2b","FO2016_e2b_10","circuit",1,"Aloud",6,1282,"Include",60
"FO2016_e2b","FO2016_e2b_10","attribute",0,"Aloud",5,1250,"Include",61
"FO2016_e2b","FO2016_e2b_10","prison",1,"Aloud",2,1170,"Include",62
"FO2016_e2b","FO2016_e2b_10","attendant",1,"Aloud",4,3530,"Include",63
"FO2016_e2b","FO2016_e2b_10","person",1,"Aloud",6,2306,"Include",64
"FO2016_e2b","FO2016_e2b_10","harness",0,"Aloud",5,2322,"Include",65
"FO2016_e2b","FO2016_e2b_10","winter",1,"Aloud",2,5658,"Include",66
"FO2016_e2b","FO2016_e2b_10","folly",1,"Aloud",2,3690,"Include",67
"FO2016_e2b","FO2016_e2b_10","law",1,"Aloud",6,1202,"Include",68
"FO2016_e2b","FO2016_e2b_10","tribute",1,"Aloud",4,1418,"Include",69
"FO2016_e2b","FO2016_e2b_10","jail",0,"Aloud",1,1394,"Include",70
"FO2016_e2b","FO2016_e2b_10","menace",0,"Aloud",5,3434,"Include",71
"FO2016_e2b","FO2016_e2b_10","pupil",1,"Aloud",2,1242,"Include",72
"FO2016_e2b","FO2016_e2b_10","mind",1,"Aloud",4,1090,"Include",73
"FO2016_e2b","FO2016_e2b_10","iron",1,"Aloud",5,1186,"Include",74
"FO2016_e2b","FO2016_e2b_10","vegetable",1,"Aloud",6,1194,"Include",75
"FO2016_e2b","FO2016_e2b_10","money",1,"Aloud",2,1234,"Include",76
"FO2016_e2b","FO2016_e2b_10","boss",1,"Aloud",3,5106,"Include",77
"FO2016_e2b","FO2016_e2b_10","claw",0,"Aloud",2,2242,"Include",78
"FO2016_e2b","FO2016_e2b_10","procession",1,"Aloud",5,1618,"Include",79
"FO2016_e2b","FO2016_e2b_10","lark",1,"Aloud",1,1202,"Include",80
"FO2016_e2b","FO2016_e2b_10","sulphur",0,"Aloud",1,1210,"Include",81
"FO2016_e2b","FO2016_e2b_10","moisture",0,"Aloud",2,1082,"Include",82
"FO2016_e2b","FO2016_e2b_10","queen",1,"Aloud",3,1594,"Include",83
"FO2016_e2b","FO2016_e2b_10","duty",0,"Aloud",2,1186,"Include",84
"FO2016_e2b","FO2016_e2b_10","air",0,"Aloud",4,1546,"Include",85
"FO2016_e2b","FO2016_e2b_10","valley",0,"Aloud",2,1066,"Include",86
"FO2016_e2b","FO2016_e2b_10","joke",1,"Aloud",4,1682,"Include",87
"FO2016_e2b","FO2016_e2b_10","fisherman",0,"Aloud",1,2274,"Include",88
"FO2016_e2b","FO2016_e2b_10","thief",1,"Aloud",3,1378,"Include",89
"FO2016_e2b","FO2016_e2b_10","cat",1,"Aloud",5,1306,"Include",90
"FO2016_e2b","FO2016_e2b_10","steam",1,"Aloud",4,1850,"Include",91
"FO2016_e2b","FO2016_e2b_10","conquest",1,"Aloud",6,1098,"Include",92
"FO2016_e2b","FO2016_e2b_10","storm",0,"Aloud",6,1098,"Include",93
"FO2016_e2b","FO2016_e2b_10","murder",0,"Aloud",4,2138,"Include",94
"FO2016_e2b","FO2016_e2b_10","robber",0,"Aloud",3,1418,"Include",95
"FO2016_e2b","FO2016_e2b_10","ocean",0,"Aloud",5,1226,"Include",96
"FO2016_e2b","FO2016_e2b_10","victim",0,"Aloud",2,1138,"Include",97
"FO2016_e2b","FO2016_e2b_10","window",0,"Aloud",1,1826,"Include",98
"FO2016_e2b","FO2016_e2b_10","picture",1,"Aloud",3,1002,"Include",99
"FO2016_e2b","FO2016_e2b_10","comparison",1,"Aloud",5,1290,"Include",100
"FO2016_e2b","FO2016_e2b_10","item",1,"Aloud",2,1170,"Include",101
"FO2016_e2b","FO2016_e2b_10","maker",0,"Aloud",1,1154,"Include",102
"FO2016_e2b","FO2016_e2b_10","nephew",1,"Aloud",6,1194,"Include",103
"FO2016_e2b","FO2016_e2b_10","sky",0,"Aloud",5,1338,"Include",104
"FO2016_e2b","FO2016_e2b_10","glory",1,"Aloud",6,1202,"Include",105
"FO2016_e2b","FO2016_e2b_10","animal",1,"Aloud",2,1130,"Include",106
"FO2016_e2b","FO2016_e2b_10","convention",1,"Aloud",4,1050,"Include",107
"FO2016_e2b","FO2016_e2b_10","bowl",1,"Aloud",6,1450,"Include",108
"FO2016_e2b","FO2016_e2b_10","slipper",0,"Aloud",3,2114,"Include",109
"FO2016_e2b","FO2016_e2b_10","death",0,"Aloud",2,2386,"Include",110
"FO2016_e2b","FO2016_e2b_10","book",0,"Aloud",3,1418,"Include",111
"FO2016_e2b","FO2016_e2b_10","sunset",0,"Aloud",1,1362,"Include",112
"FO2016_e2b","FO2016_e2b_10","vessel",0,"Aloud",1,1482,"Include",113
"FO2016_e2b","FO2016_e2b_10","fowl",0,"Aloud",1,1226,"Include",114
"FO2016_e2b","FO2016_e2b_10","hint",1,"Aloud",1,1370,"Include",115
"FO2016_e2b","FO2016_e2b_10","substitute",1,"Aloud",6,1386,"Include",116
"FO2016_e2b","FO2016_e2b_10","appearance",0,"Aloud",5,1354,"Include",117
"FO2016_e2b","FO2016_e2b_10","oven",1,"Aloud",6,1914,"Include",118
"FO2016_e2b","FO2016_e2b_10","tower",1,"Aloud",3,2018,"Include",119
"FO2016_e2b","FO2016_e2b_10","grandmother",0,"Aloud",1,1290,"Include",120
"FO2016_e2b","FO2016_e2b_10","weapon",0,"Aloud",2,1306,"Include",121
"FO2016_e2b","FO2016_e2b_10","brain",1,"Aloud",3,1722,"Include",122
"FO2016_e2b","FO2016_e2b_10","gallery",0,"Aloud",1,1314,"Include",123
"FO2016_e2b","FO2016_e2b_10","confidence",0,"Aloud",4,1426,"Include",124
"FO2016_e2b","FO2016_e2b_10","disease",0,"Aloud",5,3546,"Include",125
"FO2016_e2b","FO2016_e2b_10","horse",1,"Aloud",6,1258,"Include",126
"FO2016_e2b","FO2016_e2b_10","contents",0,"Aloud",1,1306,"Include",127
"FO2016_e2b","FO2016_e2b_10","quest",1,"Aloud",6,1746,"Include",128
"FO2016_e2b","FO2016_e2b_10","ambassador",0,"Aloud",2,1482,"Include",129
"FO2016_e2b","FO2016_e2b_10","code",0,"Aloud",4,1314,"Include",130
"FO2016_e2b","FO2016_e2b_10","majority",1,"Aloud",3,1922,"Include",131
"FO2016_e2b","FO2016_e2b_10","fire",1,"Aloud",6,1114,"Include",132
"FO2016_e2b","FO2016_e2b_10","impulse",1,"Aloud",3,1298,"Include",133
"FO2016_e2b","FO2016_e2b_10","moment",1,"Aloud",2,1498,"Include",134
"FO2016_e2b","FO2016_e2b_10","oxygen",0,"Aloud",1,1114,"Include",135
"FO2016_e2b","FO2016_e2b_10","ankle",1,"Aloud",4,1586,"Include",136
"FO2016_e2b","FO2016_e2b_10","ticket",1,"Aloud",3,1530,"Include",137
"FO2016_e2b","FO2016_e2b_10","vision",1,"Aloud",4,1842,"Include",138
"FO2016_e2b","FO2016_e2b_10","baby",0,"Aloud",1,1202,"Include",139
"FO2016_e2b","FO2016_e2b_10","sugar",1,"Aloud",2,1234,"Include",140
"FO2016_e2b","FO2016_e2b_10","door",1,"Aloud",6,1138,"Include",141
"FO2016_e2b","FO2016_e2b_10","sensation",0,"Aloud",4,1610,"Include",142
"FO2016_e2b","FO2016_e2b_10","flesh",1,"Aloud",6,1282,"Include",143
"FO2016_e2b","FO2016_e2b_10","party",1,"Aloud",2,3794,"Include",144
"FO2016_e2b","FO2016_e2b_10","product",1,"Aloud",4,1002,"Include",145
"FO2016_e2b","FO2016_e2b_10","shame",0,"Aloud",3,1434,"Include",146
"FO2016_e2b","FO2016_e2b_10","institute",1,"Aloud",4,1338,"Include",147
"FO2016_e2b","FO2016_e2b_10","affection",0,"Aloud",6,1250,"Include",148
"FO2016_e2b","FO2016_e2b_10","spray",1,"Aloud",2,1330,"Include",149
"FO2016_e2b","FO2016_e2b_10","quality",1,"Aloud",6,2106,"Include",150
"FO2016_e2b","FO2016_e2b_10","boulder",1,"Aloud",5,5210,"Include",151
"FO2016_e2b","FO2016_e2b_10","goddess",1,"Aloud",6,1602,"Include",152
"FO2016_e2b","FO2016_e2b_10","capacity",1,"Aloud",4,1706,"Include",153
"FO2016_e2b","FO2016_e2b_10","chance",1,"Aloud",3,1706,"Include",154
"FO2016_e2b","FO2016_e2b_10","charm",1,"Aloud",3,1554,"Include",155
"FO2016_e2b","FO2016_e2b_10","car",1,"Aloud",2,3898,"Include",156
"FO2016_e2b","FO2016_e2b_10","decree",1,"Aloud",3,1498,"Include",157
"FO2016_e2b","FO2016_e2b_10","clock",1,"Aloud",3,1330,"Include",158
"FO2016_e2b","FO2016_e2b_10","idea",1,"Aloud",2,2162,"Include",159
"FO2016_e2b","FO2016_e2b_10","priest",1,"Aloud",6,3666,"Include",160
"FO2016_e2b","FO2016_e2b_10","foam",0,"Aloud",1,1202,"Include",161
"FO2016_e2b","FO2016_e2b_10","string",0,"Aloud",1,3922,"Include",162
"FO2016_e2b","FO2016_e2b_10","length",1,"Aloud",4,1882,"Include",163
"FO2016_e2b","FO2016_e2b_10","disaster",1,"Aloud",6,1730,"Include",164
"FO2016_e2b","FO2016_e2b_10","railroad",0,"Aloud",2,1386,"Include",165
"FO2016_e2b","FO2016_e2b_10","rod",0,"Aloud",3,2362,"Include",166
"FO2016_e2b","FO2016_e2b_10","link",0,"Aloud",1,1234,"Include",167
"FO2016_e2b","FO2016_e2b_10","prairie",0,"Aloud",4,2194,"Include",168
"FO2016_e2b","FO2016_e2b_10","journal",1,"Aloud",1,1458,"Include",169
"FO2016_e2b","FO2016_e2b_10","master",0,"Aloud",4,1274,"Include",170
"FO2016_e2b","FO2016_e2b_10","jury",1,"Aloud",5,1938,"Include",171
"FO2016_e2b","FO2016_e2b_10","cotton",0,"Aloud",1,1114,"Include",172
"FO2016_e2b","FO2016_e2b_10","skin",1,"Aloud",6,1034,"Include",173
"FO2016_e2b","FO2016_e2b_10","tablespoon",1,"Aloud",6,1138,"Include",174
"FO2016_e2b","FO2016_e2b_10","soil",0,"Aloud",5,1730,"Include",175
"FO2016_e2b","FO2016_e2b_10","fork",0,"Aloud",4,1378,"Include",176
"FO2016_e2b","FO2016_e2b_10","ability",1,"Aloud",2,1650,"Include",177
"FO2016_e2b","FO2016_e2b_10","sickness",0,"Aloud",1,3042,"Include",178
"FO2016_e2b","FO2016_e2b_10","christmas",0,"Aloud",1,1290,"Include",179
"FO2016_e2b","FO2016_e2b_10","creature",0,"Aloud",3,2186,"Include",180
"FO2016_e2b","FO2016_e2b_10","cabin",0,"Aloud",2,1906,"Include",181
"FO2016_e2b","FO2016_e2b_10","butterfly",0,"Aloud",4,2026,"Include",182
"FO2016_e2b","FO2016_e2b_10","cash",1,"Aloud",6,770,"Include",183
"FO2016_e2b","FO2016_e2b_10","warmth",1,"Aloud",6,866,"Include",184
"FO2016_e2b","FO2016_e2b_10","cellar",0,"Aloud",2,1578,"Include",185
"FO2016_e2b","FO2016_e2b_10","army",1,"Aloud",6,1034,"Include",186
"FO2016_e2b","FO2016_e2b_10","form",0,"Aloud",2,1610,"Include",187
"FO2016_e2b","FO2016_e2b_10","river",1,"Aloud",1,1010,"Include",188
"FO2016_e2b","FO2016_e2b_10","vanity",1,"Aloud",6,978,"Include",189
"FO2016_e2b","FO2016_e2b_10","stone",0,"Aloud",3,1226,"Include",190
"FO2016_e2b","FO2016_e2b_10","reflection",1,"Aloud",5,1634,"Include",191
"FO2016_e2b","FO2016_e2b_10","honour",0,"Aloud",4,1434,"Include",192
"FO2016_e2b","FO2016_e2b_10","sea",1,"Aloud",6,1026,"Include",193
"FO2016_e2b","FO2016_e2b_10","city",1,"Aloud",3,1354,"Include",194
"FO2016_e2b","FO2016_e2b_10","attitude",1,"Aloud",6,1578,"Include",195
"FO2016_e2b","FO2016_e2b_10","grass",0,"Aloud",4,1578,"Include",196
"FO2016_e2b","FO2016_e2b_10","tobacco",0,"Aloud",3,1258,"Include",197
"FO2016_e2b","FO2016_e2b_10","judge",0,"Aloud",5,1650,"Include",198
"FO2016_e2b","FO2016_e2b_10","welfare",1,"Aloud",4,1410,"Include",199
"FO2016_e2b","FO2016_e2b_10","artist",0,"Aloud",5,5090,"Include",200
"FO2016_e2b","FO2016_e2b_10","metal",0,"Aloud",2,1138,"Include",201
"FO2016_e2b","FO2016_e2b_10","tomb",0,"Aloud",1,1343,"Include",202
"FO2016_e2b","FO2016_e2b_10","sauce",0,"Aloud",1,938,"Include",203
"FO2016_e2b","FO2016_e2b_10","plain",1,"Aloud",2,1138,"Include",204
"FO2016_e2b","FO2016_e2b_10","poetry",1,"Aloud",3,938,"Include",205
"FO2016_e2b","FO2016_e2b_10","material",0,"Aloud",5,1450,"Include",206
"FO2016_e2b","FO2016_e2b_10","wife",0,"Aloud",4,1802,"Include",207
"FO2016_e2b","FO2016_e2b_10","thorn",1,"Aloud",2,1042,"Include",208
"FO2016_e2b","FO2016_e2b_10","bosom",1,"Aloud",6,1426,"Include",209
"FO2016_e2b","FO2016_e2b_10","time",0,"Aloud",1,1034,"Include",210
"FO2016_e2b","FO2016_e2b_10","child",0,"Aloud",4,1791,"Include",211
"FO2016_e2b","FO2016_e2b_10","array",0,"Aloud",2,1098,"Include",212
"FO2016_e2b","FO2016_e2b_10","interest",1,"Aloud",5,1066,"Include",213
"FO2016_e2b","FO2016_e2b_10","church",0,"Aloud",2,2570,"Include",214
"FO2016_e2b","FO2016_e2b_10","captive",1,"Aloud",3,1554,"Include",215
"FO2016_e2b","FO2016_e2b_10","necessity",1,"Aloud",6,5602,"Include",216
"FO2016_e2b","FO2016_e2b_10","science",0,"Aloud",2,1322,"Include",217
"FO2016_e2b","FO2016_e2b_10","lecture",0,"Aloud",1,1514,"Include",218
"FO2016_e2b","FO2016_e2b_10","grief",0,"Aloud",1,2834,"Include",219
"FO2016_e2b","FO2016_e2b_10","beggar",0,"Aloud",3,1842,"Include",220
"FO2016_e2b","FO2016_e2b_10","wheat",0,"Aloud",4,2570,"Include",221
"FO2016_e2b","FO2016_e2b_10","inhabitant",1,"Aloud",6,1338,"Include",222
"FO2016_e2b","FO2016_e2b_10","butter",0,"Aloud",3,1418,"Include",223
"FO2016_e2b","FO2016_e2b_10","facility",1,"Aloud",6,3274,"Include",224
"FO2016_e2b","FO2016_e2b_10","rock",1,"Aloud",2,2394,"Include",225
"FO2016_e2b","FO2016_e2b_10","virtue",0,"Aloud",1,1346,"Include",226
"FO2016_e2b","FO2016_e2b_10","vapour",1,"Aloud",3,1234,"Include",227
"FO2016_e2b","FO2016_e2b_10","hatred",1,"Aloud",4,1474,"Include",228
"FO2016_e2b","FO2016_e2b_10","slave",0,"Aloud",2,1114,"Include",229
"FO2016_e2b","FO2016_e2b_10","library",0,"Aloud",4,3634,"Include",230
"FO2016_e2b","FO2016_e2b_10","toast",0,"Aloud",1,1106,"Include",231
"FO2016_e2b","FO2016_e2b_10","drama",0,"Aloud",2,986,"Include",232
"FO2016_e2b","FO2016_e2b_10","headquarters",0,"Aloud",1,1818,"Include",233
"FO2016_e2b","FO2016_e2b_10","salute",0,"Aloud",3,1106,"Include",234
"FO2016_e2b","FO2016_e2b_10","amount",0,"Aloud",2,1074,"Include",235
"FO2016_e2b","FO2016_e2b_10","settler",1,"Aloud",4,2210,"Include",236
"FO2016_e2b","FO2016_e2b_10","baron",1,"Aloud",6,1458,"Include",237
"FO2016_e2b","FO2016_e2b_10","instance",0,"Aloud",2,2746,"Include",238
"FO2016_e2b","FO2016_e2b_11","fowl",0,"Silent",1,5458,"Include",1
"FO2016_e2b","FO2016_e2b_11","city",0,"Silent",2,1658,"Include",2
"FO2016_e2b","FO2016_e2b_11","foam",0,"Silent",2,1562,"Include",3
"FO2016_e2b","FO2016_e2b_11","physician",1,"Silent",6,2658,"Include",4
"FO2016_e2b","FO2016_e2b_11","valley",1,"Silent",6,1018,"Include",5
"FO2016_e2b","FO2016_e2b_11","welfare",0,"Silent",6,2498,"Include",6
"FO2016_e2b","FO2016_e2b_11","army",1,"Silent",1,3866,"Include",7
"FO2016_e2b","FO2016_e2b_11","string",1,"Silent",6,1922,"Include",8
"FO2016_e2b","FO2016_e2b_11","shame",0,"Silent",4,5530,"Include",9
"FO2016_e2b","FO2016_e2b_11","window",0,"Silent",3,1770,"Include",10
"FO2016_e2b","FO2016_e2b_11","banker",1,"Silent",4,3850,"Include",11
"FO2016_e2b","FO2016_e2b_11","vessel",0,"Silent",1,1482,"Include",12
"FO2016_e2b","FO2016_e2b_11","vision",0,"Silent",4,3954,"Include",13
"FO2016_e2b","FO2016_e2b_11","creature",1,"Silent",6,2578,"Include",14
"FO2016_e2b","FO2016_e2b_11","party",0,"Silent",1,1626,"Include",15
"FO2016_e2b","FO2016_e2b_11","costume",0,"Silent",2,1578,"Include",16
"FO2016_e2b","FO2016_e2b_11","science",0,"Silent",2,1354,"Include",17
"FO2016_e2b","FO2016_e2b_11","ticket",0,"Silent",2,1314,"Include",18
"FO2016_e2b","FO2016_e2b_11","wine",0,"Silent",1,2058,"Include",19
"FO2016_e2b","FO2016_e2b_11","thorn",1,"Silent",6,1602,"Include",20
"FO2016_e2b","FO2016_e2b_11","competition",1,"Silent",6,1298,"Include",21
"FO2016_e2b","FO2016_e2b_11","vegetable",0,"Silent",3,2810,"Include",22
"FO2016_e2b","FO2016_e2b_11","frog",0,"Silent",2,2234,"Include",23
"FO2016_e2b","FO2016_e2b_11","cabin",0,"Silent",1,1258,"Include",24
"FO2016_e2b","FO2016_e2b_11","slipper",0,"Silent",2,2058,"Include",25
"FO2016_e2b","FO2016_e2b_11","sugar",0,"Silent",2,962,"Include",26
"FO2016_e2b","FO2016_e2b_11","ankle",0,"Silent",3,4250,"Include",27
"FO2016_e2b","FO2016_e2b_11","butterfly",1,"Silent",4,1834,"Include",28
"FO2016_e2b","FO2016_e2b_11","product",0,"Silent",5,2394,"Include",29
"FO2016_e2b","FO2016_e2b_11","child",1,"Silent",6,2626,"Include",30
"FO2016_e2b","FO2016_e2b_11","tower",0,"Silent",2,2282,"Include",31
"FO2016_e2b","FO2016_e2b_11","law",1,"Silent",6,1594,"Include",32
"FO2016_e2b","FO2016_e2b_11","camp",0,"Silent",3,1986,"Include",33
"FO2016_e2b","FO2016_e2b_11","excuse",1,"Silent",6,1834,"Include",34
"FO2016_e2b","FO2016_e2b_11","ocean",0,"Silent",2,4538,"Include",35
"FO2016_e2b","FO2016_e2b_11","metal",0,"Silent",4,3402,"Include",36
"FO2016_e2b","FO2016_e2b_11","grandmother",0,"Silent",3,2834,"Include",37
"FO2016_e2b","FO2016_e2b_11","committee",1,"Silent",6,1906,"Include",38
"FO2016_e2b","FO2016_e2b_11","procession",0,"Silent",4,2706,"Include",39
"FO2016_e2b","FO2016_e2b_11","vanity",1,"Silent",6,3266,"Include",40
"FO2016_e2b","FO2016_e2b_11","capacity",1,"Silent",6,1378,"Include",41
"FO2016_e2b","FO2016_e2b_11","jail",0,"Silent",6,1642,"Include",42
"FO2016_e2b","FO2016_e2b_11","brain",1,"Silent",6,1266,"Include",43
"FO2016_e2b","FO2016_e2b_11","hammer",1,"Silent",4,2274,"Include",44
"FO2016_e2b","FO2016_e2b_11","air",1,"Silent",3,1394,"Include",45
"FO2016_e2b","FO2016_e2b_11","disease",0,"Silent",3,4122,"Include",46
"FO2016_e2b","FO2016_e2b_11","material",1,"Silent",6,1498,"Include",47
"FO2016_e2b","FO2016_e2b_11","fox",1,"Silent",5,1730,"Include",48
"FO2016_e2b","FO2016_e2b_11","chair",0,"Silent",3,2450,"Include",49
"FO2016_e2b","FO2016_e2b_11","misery",0,"Silent",6,3410,"Include",50
"FO2016_e2b","FO2016_e2b_11","lark",1,"Silent",6,834,"Include",51
"FO2016_e2b","FO2016_e2b_11","circuit",0,"Silent",5,1538,"Include",52
"FO2016_e2b","FO2016_e2b_11","intellect",1,"Silent",4,2714,"Include",53
"FO2016_e2b","FO2016_e2b_11","claw",1,"Silent",5,1226,"Include",54
"FO2016_e2b","FO2016_e2b_11","grass",1,"Silent",3,1834,"Include",55
"FO2016_e2b","FO2016_e2b_11","attitude",0,"Silent",5,2082,"Include",56
"FO2016_e2b","FO2016_e2b_11","queen",1,"Silent",6,1322,"Include",57
"FO2016_e2b","FO2016_e2b_11","code",0,"Silent",4,2298,"Include",58
"FO2016_e2b","FO2016_e2b_11","shadow",0,"Silent",3,1554,"Include",59
"FO2016_e2b","FO2016_e2b_11","person",1,"Silent",6,1858,"Include",60
"FO2016_e2b","FO2016_e2b_11","affection",1,"Silent",5,1058,"Include",61
"FO2016_e2b","FO2016_e2b_11","picture",0,"Silent",5,3066,"Include",62
"FO2016_e2b","FO2016_e2b_11","joke",0,"Silent",3,3602,"Include",63
"FO2016_e2b","FO2016_e2b_11","array",0,"Silent",4,5386,"Include",64
"FO2016_e2b","FO2016_e2b_11","majority",0,"Silent",5,1410,"Include",65
"FO2016_e2b","FO2016_e2b_11","attribute",1,"Silent",6,1706,"Include",66
"FO2016_e2b","FO2016_e2b_11","menace",0,"Silent",3,2586,"Include",67
"FO2016_e2b","FO2016_e2b_11","prairie",1,"Silent",4,1610,"Include",68
"FO2016_e2b","FO2016_e2b_11","garden",1,"Silent",4,1370,"Include",69
"FO2016_e2b","FO2016_e2b_11","instance",1,"Silent",3,1114,"Include",70
"FO2016_e2b","FO2016_e2b_11","diamond",1,"Silent",6,1698,"Include",71
"FO2016_e2b","FO2016_e2b_11","anxiety",1,"Silent",6,906,"Include",72
"FO2016_e2b","FO2016_e2b_11","dirt",0,"Silent",3,4082,"Include",73
"FO2016_e2b","FO2016_e2b_11","honour",1,"Silent",6,1650,"Include",74
"FO2016_e2b","FO2016_e2b_11","sickness",1,"Silent",5,1554,"Include",75
"FO2016_e2b","FO2016_e2b_11","flesh",1,"Silent",6,1578,"Include",76
"FO2016_e2b","FO2016_e2b_11","rod",0,"Silent",3,3202,"Include",77
"FO2016_e2b","FO2016_e2b_11","beaver",1,"Silent",3,946,"Include",78
"FO2016_e2b","FO2016_e2b_11","pupil",1,"Silent",4,1914,"Include",79
"FO2016_e2b","FO2016_e2b_11","beggar",0,"Silent",3,1002,"Include",80
"FO2016_e2b","FO2016_e2b_11","stone",1,"Silent",3,1058,"Include",81
"FO2016_e2b","FO2016_e2b_11","chin",1,"Silent",3,554,"Include",82
"FO2016_e2b","FO2016_e2b_11","marriage",1,"Silent",5,1378,"Include",83
"FO2016_e2b","FO2016_e2b_11","sea",0,"Silent",3,1906,"Include",84
"FO2016_e2b","FO2016_e2b_11","quest",0,"Silent",3,746,"Include",85
"FO2016_e2b","FO2016_e2b_11","glory",0,"Silent",4,1938,"Include",86
"FO2016_e2b","FO2016_e2b_11","boulder",0,"Silent",4,818,"Include",87
"FO2016_e2b","FO2016_e2b_11","mind",1,"Silent",3,1978,"Include",88
"FO2016_e2b","FO2016_e2b_11","sulphur",0,"Silent",1,2058,"Include",89
"FO2016_e2b","FO2016_e2b_11","monarch",0,"Silent",1,1130,"Include",90
"FO2016_e2b","FO2016_e2b_11","harness",0,"Silent",2,2026,"Include",91
"FO2016_e2b","FO2016_e2b_11","death",0,"Silent",5,2450,"Include",92
"FO2016_e2b","FO2016_e2b_11","slave",0,"Silent",3,4034,"Include",93
"FO2016_e2b","FO2016_e2b_11","goddess",0,"Silent",2,1482,"Include",94
"FO2016_e2b","FO2016_e2b_11","priest",0,"Silent",2,1098,"Include",95
"FO2016_e2b","FO2016_e2b_11","baby",0,"Silent",2,1042,"Include",96
"FO2016_e2b","FO2016_e2b_11","steam",0,"Silent",5,1402,"Include",97
"FO2016_e2b","FO2016_e2b_11","lecture",1,"Silent",4,1666,"Include",98
"FO2016_e2b","FO2016_e2b_11","hint",1,"Silent",5,2074,"Include",99
"FO2016_e2b","FO2016_e2b_11","confidence",1,"Silent",6,2602,"Include",100
"FO2016_e2b","FO2016_e2b_11","grief",1,"Silent",6,1994,"Include",101
"FO2016_e2b","FO2016_e2b_11","warmth",0,"Silent",3,1906,"Include",102
"FO2016_e2b","FO2016_e2b_11","nail",0,"Silent",4,1290,"Include",103
"FO2016_e2b","FO2016_e2b_11","disposition",1,"Silent",3,1466,"Include",104
"FO2016_e2b","FO2016_e2b_11","appearance",0,"Silent",4,1874,"Include",105
"FO2016_e2b","FO2016_e2b_11","custom",0,"Silent",3,4842,"Include",106
"FO2016_e2b","FO2016_e2b_11","cotton",1,"Silent",3,2642,"Include",107
"FO2016_e2b","FO2016_e2b_11","revolt",1,"Silent",3,1658,"Include",108
"FO2016_e2b","FO2016_e2b_11","nephew",0,"Silent",3,842,"Include",109
"FO2016_e2b","FO2016_e2b_11","library",0,"Silent",4,2554,"Include",110
"FO2016_e2b","FO2016_e2b_11","assault",1,"Silent",3,3978,"Include",111
"FO2016_e2b","FO2016_e2b_11","convention",0,"Silent",5,2850,"Include",112
"FO2016_e2b","FO2016_e2b_11","corner",0,"Silent",2,4202,"Include",113
"FO2016_e2b","FO2016_e2b_11","horse",1,"Silent",5,3226,"Include",114
"FO2016_e2b","FO2016_e2b_11","oxygen",0,"Silent",2,1986,"Include",115
"FO2016_e2b","FO2016_e2b_11","judge",1,"Silent",3,5218,"Include",116
"FO2016_e2b","FO2016_e2b_11","murder",0,"Silent",3,2290,"Include",117
"FO2016_e2b","FO2016_e2b_11","bowl",1,"Silent",6,1650,"Include",118
"FO2016_e2b","FO2016_e2b_11","car",1,"Silent",3,1978,"Include",119
"FO2016_e2b","FO2016_e2b_11","journal",1,"Silent",4,2706,"Include",120
"FO2016_e2b","FO2016_e2b_11","captive",0,"Silent",3,1978,"Include",121
"FO2016_e2b","FO2016_e2b_11","sunset",0,"Silent",5,2018,"Include",122
"FO2016_e2b","FO2016_e2b_11","forest",0,"Silent",4,1642,"Include",123
"FO2016_e2b","FO2016_e2b_11","deed",1,"Silent",6,2026,"Include",124
"FO2016_e2b","FO2016_e2b_11","animal",1,"Silent",6,1954,"Include",125
"FO2016_e2b","FO2016_e2b_11","church",0,"Silent",4,1826,"Include",126
"FO2016_e2b","FO2016_e2b_11","leader",1,"Silent",4,3698,"Include",127
"FO2016_e2b","FO2016_e2b_11","attendant",1,"Silent",6,1794,"Include",128
"FO2016_e2b","FO2016_e2b_11","scarlet",1,"Silent",6,1770,"Include",129
"FO2016_e2b","FO2016_e2b_11","elephant",0,"Silent",2,2122,"Include",130
"FO2016_e2b","FO2016_e2b_11","butter",0,"Silent",2,746,"Include",131
"FO2016_e2b","FO2016_e2b_11","comparison",0,"Silent",4,4618,"Include",132
"FO2016_e2b","FO2016_e2b_11","folly",1,"Silent",3,1426,"Include",133
"FO2016_e2b","FO2016_e2b_11","democracy",0,"Silent",5,2834,"Include",134
"FO2016_e2b","FO2016_e2b_11","storm",1,"Silent",4,3322,"Include",135
"FO2016_e2b","FO2016_e2b_11","institute",0,"Silent",3,1506,"Include",136
"FO2016_e2b","FO2016_e2b_11","skin",1,"Silent",3,2442,"Include",137
"FO2016_e2b","FO2016_e2b_11","fork",0,"Silent",3,1138,"Include",138
"FO2016_e2b","FO2016_e2b_11","maker",1,"Silent",5,3090,"Include",139
"FO2016_e2b","FO2016_e2b_11","interest",1,"Silent",4,2074,"Include",140
"FO2016_e2b","FO2016_e2b_11","hatred",1,"Silent",6,1514,"Include",141
"FO2016_e2b","FO2016_e2b_11","chance",1,"Silent",5,5138,"Include",142
"FO2016_e2b","FO2016_e2b_11","soil",1,"Silent",4,2874,"Include",143
"FO2016_e2b","FO2016_e2b_11","earth",0,"Silent",3,802,"Include",144
"FO2016_e2b","FO2016_e2b_11","winter",1,"Silent",2,1642,"Include",145
"FO2016_e2b","FO2016_e2b_11","baron",0,"Silent",2,1210,"Include",146
"FO2016_e2b","FO2016_e2b_11","tablespoon",0,"Silent",1,1770,"Include",147
"FO2016_e2b","FO2016_e2b_11","tobacco",1,"Silent",5,6194,"Include",148
"FO2016_e2b","FO2016_e2b_11","series",0,"Silent",2,1834,"Include",149
"FO2016_e2b","FO2016_e2b_11","necessity",1,"Silent",3,1306,"Include",150
"FO2016_e2b","FO2016_e2b_11","salute",0,"Silent",2,994,"Include",151
"FO2016_e2b","FO2016_e2b_11","book",1,"Silent",2,1146,"Include",152
"FO2016_e2b","FO2016_e2b_11","king",1,"Silent",6,1594,"Include",153
"FO2016_e2b","FO2016_e2b_11","toast",0,"Silent",3,7130,"Include",154
"FO2016_e2b","FO2016_e2b_11","wife",0,"Silent",4,2634,"Include",155
"FO2016_e2b","FO2016_e2b_11","time",1,"Silent",3,954,"Include",156
"FO2016_e2b","FO2016_e2b_11","hope",0,"Silent",3,1410,"Include",157
"FO2016_e2b","FO2016_e2b_11","speech",1,"Silent",3,1738,"Include",158
"FO2016_e2b","FO2016_e2b_11","moss",1,"Silent",3,4226,"Include",159
"FO2016_e2b","FO2016_e2b_11","quality",1,"Silent",4,2186,"Include",160
"FO2016_e2b","FO2016_e2b_11","lake",1,"Silent",4,2218,"Include",161
"FO2016_e2b","FO2016_e2b_11","meeting",1,"Silent",3,2122,"Include",162
"FO2016_e2b","FO2016_e2b_11","substitute",1,"Silent",6,1562,"Include",163
"FO2016_e2b","FO2016_e2b_11","decree",0,"Silent",3,3482,"Include",164
"FO2016_e2b","FO2016_e2b_11","contents",1,"Silent",3,4938,"Include",165
"FO2016_e2b","FO2016_e2b_11","mercy",0,"Silent",4,1130,"Include",166
"FO2016_e2b","FO2016_e2b_11","atmosphere",0,"Silent",3,1442,"Include",167
"FO2016_e2b","FO2016_e2b_11","artist",1,"Silent",4,6898,"Include",168
"FO2016_e2b","FO2016_e2b_11","oven",0,"Silent",3,1706,"Include",169
"FO2016_e2b","FO2016_e2b_11","headquarters",0,"Silent",3,978,"Include",170
"FO2016_e2b","FO2016_e2b_11","form",0,"Silent",5,2106,"Include",171
"FO2016_e2b","FO2016_e2b_11","sensation",1,"Silent",3,2290,"Include",172
"FO2016_e2b","FO2016_e2b_11","link",1,"Silent",3,1018,"Include",173
"FO2016_e2b","FO2016_e2b_11","inhabitant",0,"Silent",2,1322,"Include",174
"FO2016_e2b","FO2016_e2b_11","drama",1,"Silent",6,1826,"Include",175
"FO2016_e2b","FO2016_e2b_11","item",1,"Silent",5,1362,"Include",176
"FO2016_e2b","FO2016_e2b_11","amount",0,"Silent",3,1714,"Include",177
"FO2016_e2b","FO2016_e2b_11","iron",1,"Silent",3,770,"Include",178
"FO2016_e2b","FO2016_e2b_11","plain",1,"Silent",5,2490,"Include",179
"FO2016_e2b","FO2016_e2b_11","christmas",0,"Silent",1,1554,"Include",180
"FO2016_e2b","FO2016_e2b_11","moisture",1,"Silent",5,2194,"Include",181
"FO2016_e2b","FO2016_e2b_11","reflection",0,"Silent",3,1890,"Include",182
"FO2016_e2b","FO2016_e2b_11","sky",0,"Silent",3,906,"Include",183
"FO2016_e2b","FO2016_e2b_11","door",0,"Silent",3,698,"Include",184
"FO2016_e2b","FO2016_e2b_11","colony",0,"Silent",4,2122,"Include",185
"FO2016_e2b","FO2016_e2b_11","charter",1,"Silent",6,1546,"Include",186
"FO2016_e2b","FO2016_e2b_11","jury",0,"Silent",3,3802,"Include",187
"FO2016_e2b","FO2016_e2b_11","river",1,"Silent",3,2090,"Include",188
"FO2016_e2b","FO2016_e2b_11","ambassador",1,"Silent",6,1906,"Include",189
"FO2016_e2b","FO2016_e2b_11","virtue",1,"Silent",4,2402,"Include",190
"FO2016_e2b","FO2016_e2b_11","prayer",0,"Silent",3,1866,"Include",191
"FO2016_e2b","FO2016_e2b_11","railroad",1,"Silent",6,1458,"Include",192
"FO2016_e2b","FO2016_e2b_11","cash",0,"Silent",3,2866,"Include",193
"FO2016_e2b","FO2016_e2b_11","impulse",1,"Silent",4,2018,"Include",194
"FO2016_e2b","FO2016_e2b_11","duty",1,"Silent",4,1866,"Include",195
"FO2016_e2b","FO2016_e2b_11","robber",1,"Silent",5,3762,"Include",196
"FO2016_e2b","FO2016_e2b_11","direction",1,"Silent",6,1466,"Include",197
"FO2016_e2b","FO2016_e2b_11","moral",1,"Silent",3,1762,"Include",198
"FO2016_e2b","FO2016_e2b_11","charm",0,"Silent",3,1018,"Include",199
"FO2016_e2b","FO2016_e2b_11","comrade",1,"Silent",4,1786,"Include",200
"FO2016_e2b","FO2016_e2b_11","love",0,"Silent",2,2458,"Include",201
"FO2016_e2b","FO2016_e2b_11","gallery",0,"Silent",3,4322,"Include",202
"FO2016_e2b","FO2016_e2b_11","settler",0,"Silent",4,1098,"Include",203
"FO2016_e2b","FO2016_e2b_11","wheat",0,"Silent",3,1066,"Include",204
"FO2016_e2b","FO2016_e2b_11","justice",0,"Silent",5,2378,"Include",205
"FO2016_e2b","FO2016_e2b_11","rock",1,"Silent",2,1578,"Include",206
"FO2016_e2b","FO2016_e2b_11","cat",1,"Silent",6,1410,"Include",207
"FO2016_e2b","FO2016_e2b_11","fire",0,"Silent",4,1514,"Include",208
"FO2016_e2b","FO2016_e2b_11","clock",0,"Silent",3,1362,"Include",209
"FO2016_e2b","FO2016_e2b_11","star",0,"Silent",3,762,"Include",210
"FO2016_e2b","FO2016_e2b_11","vapour",0,"Silent",4,1138,"Include",211
"FO2016_e2b","FO2016_e2b_11","facility",1,"Silent",4,1386,"Include",212
"FO2016_e2b","FO2016_e2b_11","trouble",1,"Silent",3,946,"Include",213
"FO2016_e2b","FO2016_e2b_11","poetry",0,"Silent",2,786,"Include",214
"FO2016_e2b","FO2016_e2b_11","woods",0,"Silent",4,1522,"Include",215
"FO2016_e2b","FO2016_e2b_11","tribute",1,"Silent",5,7010,"Include",216
"FO2016_e2b","FO2016_e2b_11","sovereign",1,"Silent",5,2058,"Include",217
"FO2016_e2b","FO2016_e2b_11","arm",0,"Silent",3,1386,"Include",218
"FO2016_e2b","FO2016_e2b_11","effort",1,"Silent",4,2010,"Include",219
"FO2016_e2b","FO2016_e2b_11","victim",1,"Silent",5,2002,"Include",220
"FO2016_e2b","FO2016_e2b_11","spray",0,"Silent",3,1338,"Include",221
"FO2016_e2b","FO2016_e2b_11","tomb",1,"Silent",6,1466,"Include",222
"FO2016_e2b","FO2016_e2b_11","money",0,"Silent",4,4266,"Include",223
"FO2016_e2b","FO2016_e2b_11","conquest",0,"Silent",4,1378,"Include",224
"FO2016_e2b","FO2016_e2b_11","fisherman",0,"Silent",3,1442,"Include",225
"FO2016_e2b","FO2016_e2b_11","situation",0,"Silent",3,882,"Include",226
"FO2016_e2b","FO2016_e2b_11","weapon",0,"Silent",3,642,"Include",227
"FO2016_e2b","FO2016_e2b_11","moment",1,"Silent",3,690,"Include",228
"FO2016_e2b","FO2016_e2b_11","idea",1,"Silent",4,2290,"Include",229
"FO2016_e2b","FO2016_e2b_11","boss",1,"Silent",4,5354,"Include",230
"FO2016_e2b","FO2016_e2b_11","prison",1,"Silent",5,2466,"Include",231
"FO2016_e2b","FO2016_e2b_11","length",1,"Silent",5,1490,"Include",232
"FO2016_e2b","FO2016_e2b_11","sauce",1,"Silent",5,1330,"Include",233
"FO2016_e2b","FO2016_e2b_11","cellar",1,"Silent",4,3034,"Include",234
"FO2016_e2b","FO2016_e2b_11","master",0,"Silent",3,1370,"Include",235
"FO2016_e2b","FO2016_e2b_11","thief",1,"Silent",6,1290,"Include",236
"FO2016_e2b","FO2016_e2b_11","ability",0,"Silent",4,2162,"Include",237
"FO2016_e2b","FO2016_e2b_11","gentleman",1,"Silent",5,6546,"Include",238
"FO2016_e2b","FO2016_e2b_12","prayer",0,"Silent",1,3562,"Include",1
"FO2016_e2b","FO2016_e2b_12","flesh",1,"Silent",2,4738,"Include",2
"FO2016_e2b","FO2016_e2b_12","river",0,"Silent",3,3482,"Include",3
"FO2016_e2b","FO2016_e2b_12","code",1,"Silent",6,3418,"Include",4
"FO2016_e2b","FO2016_e2b_12","sensation",0,"Silent",2,6378,"Include",5
"FO2016_e2b","FO2016_e2b_12","physician",0,"Silent",2,1914,"Include",6
"FO2016_e2b","FO2016_e2b_12","murder",1,"Silent",5,3762,"Include",7
"FO2016_e2b","FO2016_e2b_12","stone",0,"Silent",3,5226,"Include",8
"FO2016_e2b","FO2016_e2b_12","glory",1,"Silent",5,2106,"Include",9
"FO2016_e2b","FO2016_e2b_12","procession",1,"Silent",6,1698,"Include",10
"FO2016_e2b","FO2016_e2b_12","frog",1,"Silent",6,1842,"Include",11
"FO2016_e2b","FO2016_e2b_12","wife",1,"Silent",3,3218,"Include",12
"FO2016_e2b","FO2016_e2b_12","misery",1,"Silent",6,1618,"Include",13
"FO2016_e2b","FO2016_e2b_12","person",1,"Silent",3,3842,"Include",14
"FO2016_e2b","FO2016_e2b_12","steam",0,"Silent",4,8490,"Include",15
"FO2016_e2b","FO2016_e2b_12","tobacco",0,"Silent",3,3738,"Include",16
"FO2016_e2b","FO2016_e2b_12","boulder",1,"Silent",3,3354,"Include",17
"FO2016_e2b","FO2016_e2b_12","valley",1,"Silent",3,3634,"Include",18
"FO2016_e2b","FO2016_e2b_12","atmosphere",0,"Silent",3,4306,"Include",19
"FO2016_e2b","FO2016_e2b_12","attitude",1,"Silent",6,1882,"Include",20
"FO2016_e2b","FO2016_e2b_12","institute",0,"Silent",3,5570,"Include",21
"FO2016_e2b","FO2016_e2b_12","attribute",1,"Silent",4,1634,"Include",22
"FO2016_e2b","FO2016_e2b_12","iron",1,"Silent",3,6978,"Include",23
"FO2016_e2b","FO2016_e2b_12","virtue",1,"Silent",6,2410,"Include",24
"FO2016_e2b","FO2016_e2b_12","democracy",1,"Silent",6,2410,"Include",25
"FO2016_e2b","FO2016_e2b_12","railroad",1,"Silent",6,1362,"Include",26
"FO2016_e2b","FO2016_e2b_12","grief",1,"Silent",6,946,"Include",27
"FO2016_e2b","FO2016_e2b_12","garden",0,"Silent",3,3546,"Include",28
"FO2016_e2b","FO2016_e2b_12","leader",0,"Silent",4,5674,"Include",29
"FO2016_e2b","FO2016_e2b_12","folly",1,"Silent",6,1506,"Include",30
"FO2016_e2b","FO2016_e2b_12","cotton",0,"Silent",3,6066,"Include",31
"FO2016_e2b","FO2016_e2b_12","sea",0,"Silent",3,2954,"Include",32
"FO2016_e2b","FO2016_e2b_12","cash",0,"Silent",3,3890,"Include",33
"FO2016_e2b","FO2016_e2b_12","convention",1,"Silent",3,6146,"Include",34
"FO2016_e2b","FO2016_e2b_12","shadow",1,"Silent",4,3562,"Include",35
"FO2016_e2b","FO2016_e2b_12","nephew",1,"Silent",6,1586,"Include",36
"FO2016_e2b","FO2016_e2b_12","lecture",1,"Silent",6,1194,"Include",37
"FO2016_e2b","FO2016_e2b_12","settler",0,"Silent",3,6602,"Include",38
"FO2016_e2b","FO2016_e2b_12","lark",1,"Silent",2,3138,"Include",39
"FO2016_e2b","FO2016_e2b_12","earth",1,"Silent",5,3482,"Include",40
"FO2016_e2b","FO2016_e2b_12","storm",0,"Silent",4,2922,"Include",41
"FO2016_e2b","FO2016_e2b_12","law",1,"Silent",6,1890,"Include",42
"FO2016_e2b","FO2016_e2b_12","moment",0,"Silent",2,3986,"Include",43
"FO2016_e2b","FO2016_e2b_12","item",1,"Silent",5,5026,"Include",44
"FO2016_e2b","FO2016_e2b_12","artist",1,"Silent",6,1538,"Include",45
"FO2016_e2b","FO2016_e2b_12","clock",0,"Silent",3,6298,"Include",46
"FO2016_e2b","FO2016_e2b_12","tomb",0,"Silent",5,5058,"Include",47
"FO2016_e2b","FO2016_e2b_12","library",1,"Silent",6,1642,"Include",48
"FO2016_e2b","FO2016_e2b_12","toast",0,"Silent",2,2282,"Include",49
"FO2016_e2b","FO2016_e2b_12","christmas",0,"Silent",1,1754,"Include",50
"FO2016_e2b","FO2016_e2b_12","product",0,"Silent",4,3291,"Include",51
"FO2016_e2b","FO2016_e2b_12","duty",0,"Silent",6,1954,"Include",52
"FO2016_e2b","FO2016_e2b_12","reflection",0,"Silent",2,3346,"Include",53
"FO2016_e2b","FO2016_e2b_12","camp",0,"Silent",5,2706,"Include",54
"FO2016_e2b","FO2016_e2b_12","star",1,"Silent",4,1602,"Include",55
"FO2016_e2b","FO2016_e2b_12","affection",0,"Silent",2,4458,"Include",56
"FO2016_e2b","FO2016_e2b_12","spray",1,"Silent",4,5322,"Include",57
"FO2016_e2b","FO2016_e2b_12","tower",1,"Silent",4,3890,"Include",58
"FO2016_e2b","FO2016_e2b_12","car",1,"Silent",3,5562,"Include",59
"FO2016_e2b","FO2016_e2b_12","impulse",0,"Silent",4,7010,"Include",60
"FO2016_e2b","FO2016_e2b_12","interest",1,"Silent",3,3650,"Include",61
"FO2016_e2b","FO2016_e2b_12","cellar",1,"Silent",5,3578,"Include",62
"FO2016_e2b","FO2016_e2b_12","forest",1,"Silent",6,3146,"Include",63
"FO2016_e2b","FO2016_e2b_12","charter",0,"Silent",5,3586,"Include",64
"FO2016_e2b","FO2016_e2b_12","elephant",1,"Silent",6,1218,"Include",65
"FO2016_e2b","FO2016_e2b_12","window",0,"Silent",2,2874,"Include",66
"FO2016_e2b","FO2016_e2b_12","colony",1,"Silent",6,1234,"Include",67
"FO2016_e2b","FO2016_e2b_12","sovereign",0,"Silent",4,2610,"Include",68
"FO2016_e2b","FO2016_e2b_12","moisture",0,"Silent",2,3562,"Include",69
"FO2016_e2b","FO2016_e2b_12","idea",0,"Silent",3,4322,"Include",70
"FO2016_e2b","FO2016_e2b_12","death",1,"Silent",5,2106,"Include",71
"FO2016_e2b","FO2016_e2b_12","tablespoon",1,"Silent",6,2666,"Include",72
"FO2016_e2b","FO2016_e2b_12","majority",0,"Silent",4,1722,"Include",73
"FO2016_e2b","FO2016_e2b_12","length",0,"Silent",3,2706,"Include",74
"FO2016_e2b","FO2016_e2b_12","diamond",0,"Silent",2,2938,"Include",75
"FO2016_e2b","FO2016_e2b_12","rod",1,"Silent",5,1458,"Include",76
"FO2016_e2b","FO2016_e2b_12","gentleman",0,"Silent",2,2746,"Include",77
"FO2016_e2b","FO2016_e2b_12","maker",1,"Silent",6,2234,"Include",78
"FO2016_e2b","FO2016_e2b_12","butter",1,"Silent",6,1114,"Include",79
"FO2016_e2b","FO2016_e2b_12","shame",1,"Silent",4,1850,"Include",80
"FO2016_e2b","FO2016_e2b_12","form",1,"Silent",4,5498,"Include",81
"FO2016_e2b","FO2016_e2b_12","mercy",0,"Silent",5,2090,"Include",82
"FO2016_e2b","FO2016_e2b_12","thief",0,"Silent",3,3218,"Include",83
"FO2016_e2b","FO2016_e2b_12","menace",0,"Silent",3,1914,"Include",84
"FO2016_e2b","FO2016_e2b_12","money",0,"Silent",3,3914,"Include",85
"FO2016_e2b","FO2016_e2b_12","rock",0,"Silent",3,5586,"Include",86
"FO2016_e2b","FO2016_e2b_12","banker",1,"Silent",5,6314,"Include",87
"FO2016_e2b","FO2016_e2b_12","competition",0,"Silent",3,3842,"Include",88
"FO2016_e2b","FO2016_e2b_12","welfare",0,"Silent",3,2226,"Include",89
"FO2016_e2b","FO2016_e2b_12","hint",1,"Silent",3,2314,"Include",90
"FO2016_e2b","FO2016_e2b_12","material",0,"Silent",4,4386,"Include",91
"FO2016_e2b","FO2016_e2b_12","headquarters",1,"Silent",3,3946,"Include",92
"FO2016_e2b","FO2016_e2b_12","comparison",1,"Silent",4,2970,"Include",93
"FO2016_e2b","FO2016_e2b_12","capacity",0,"Silent",4,4802,"Include",94
"FO2016_e2b","FO2016_e2b_12","deed",1,"Silent",4,2994,"Include",95
"FO2016_e2b","FO2016_e2b_12","hammer",0,"Silent",2,3162,"Include",96
"FO2016_e2b","FO2016_e2b_12","beaver",0,"Silent",2,1050,"Include",97
"FO2016_e2b","FO2016_e2b_12","thorn",1,"Silent",1,1690,"Include",98
"FO2016_e2b","FO2016_e2b_12","grandmother",0,"Silent",1,1162,"Include",99
"FO2016_e2b","FO2016_e2b_12","party",1,"Silent",3,3042,"Include",100
"FO2016_e2b","FO2016_e2b_12","contents",0,"Silent",3,1882,"Include",101
"FO2016_e2b","FO2016_e2b_12","substitute",1,"Silent",4,1866,"Include",102
"FO2016_e2b","FO2016_e2b_12","corner",0,"Silent",3,1978,"Include",103
"FO2016_e2b","FO2016_e2b_12","journal",1,"Silent",2,3970,"Include",104
"FO2016_e2b","FO2016_e2b_12","attendant",0,"Silent",2,2906,"Include",105
"FO2016_e2b","FO2016_e2b_12","lake",0,"Silent",3,1458,"Include",106
"FO2016_e2b","FO2016_e2b_12","marriage",1,"Silent",3,2626,"Include",107
"FO2016_e2b","FO2016_e2b_12","prison",0,"Silent",5,1434,"Include",108
"FO2016_e2b","FO2016_e2b_12","chair",1,"Silent",6,2602,"Include",109
"FO2016_e2b","FO2016_e2b_12","ambassador",1,"Silent",4,2882,"Include",110
"FO2016_e2b","FO2016_e2b_12","vegetable",0,"Silent",2,5186,"Include",111
"FO2016_e2b","FO2016_e2b_12","chance",1,"Silent",4,2290,"Include",112
"FO2016_e2b","FO2016_e2b_12","honour",1,"Silent",5,2330,"Include",113
"FO2016_e2b","FO2016_e2b_12","sauce",1,"Silent",3,2602,"Include",114
"FO2016_e2b","FO2016_e2b_12","fire",1,"Silent",4,1634,"Include",115
"FO2016_e2b","FO2016_e2b_12","grass",0,"Silent",5,2770,"Include",116
"FO2016_e2b","FO2016_e2b_12","slipper",0,"Silent",2,2746,"Include",117
"FO2016_e2b","FO2016_e2b_12","nail",1,"Silent",4,2818,"Include",118
"FO2016_e2b","FO2016_e2b_12","door",1,"Silent",3,3274,"Include",119
"FO2016_e2b","FO2016_e2b_12","ability",0,"Silent",4,3106,"Include",120
"FO2016_e2b","FO2016_e2b_12","circuit",0,"Silent",2,2434,"Include",121
"FO2016_e2b","FO2016_e2b_12","metal",0,"Silent",3,2962,"Include",122
"FO2016_e2b","FO2016_e2b_12","oven",0,"Silent",2,1794,"Include",123
"FO2016_e2b","FO2016_e2b_12","fisherman",1,"Silent",3,2866,"Include",124
"FO2016_e2b","FO2016_e2b_12","scarlet",0,"Silent",2,1786,"Include",125
"FO2016_e2b","FO2016_e2b_12","jail",1,"Silent",5,4434,"Include",126
"FO2016_e2b","FO2016_e2b_12","arm",1,"Silent",6,1298,"Include",127
"FO2016_e2b","FO2016_e2b_12","book",1,"Silent",5,2178,"Include",128
"FO2016_e2b","FO2016_e2b_12","air",0,"Silent",4,1274,"Include",129
"FO2016_e2b","FO2016_e2b_12","disaster",0,"Silent",3,3690,"Include",130
"FO2016_e2b","FO2016_e2b_12","oxygen",1,"Silent",2,1258,"Include",131
"FO2016_e2b","FO2016_e2b_12","facility",0,"Silent",4,1378,"Include",132
"FO2016_e2b","FO2016_e2b_12","church",0,"Silent",4,1170,"Include",133
"FO2016_e2b","FO2016_e2b_12","drama",1,"Silent",3,4842,"Include",134
"FO2016_e2b","FO2016_e2b_12","bosom",0,"Silent",4,2162,"Include",135
"FO2016_e2b","FO2016_e2b_12","vapour",1,"Silent",6,2810,"Include",136
"FO2016_e2b","FO2016_e2b_12","ankle",1,"Silent",2,1698,"Include",137
"FO2016_e2b","FO2016_e2b_12","instance",0,"Silent",4,1850,"Include",138
"FO2016_e2b","FO2016_e2b_12","costume",0,"Silent",4,4442,"Include",139
"FO2016_e2b","FO2016_e2b_12","bowl",0,"Silent",4,7218,"Include",140
"FO2016_e2b","FO2016_e2b_12","committee",1,"Silent",4,2202,"Include",141
"FO2016_e2b","FO2016_e2b_12","dirt",1,"Silent",4,1730,"Include",142
"FO2016_e2b","FO2016_e2b_12","anxiety",1,"Silent",6,1498,"Include",143
"FO2016_e2b","FO2016_e2b_12","speech",1,"Silent",5,2770,"Include",144
"FO2016_e2b","FO2016_e2b_12","picture",1,"Silent",4,1410,"Include",145
"FO2016_e2b","FO2016_e2b_12","charm",0,"Silent",3,5746,"Include",146
"FO2016_e2b","FO2016_e2b_12","hope",1,"Silent",3,3666,"Include",147
"FO2016_e2b","FO2016_e2b_12","queen",0,"Silent",2,1306,"Include",148
"FO2016_e2b","FO2016_e2b_12","conquest",0,"Silent",4,1826,"Include",149
"FO2016_e2b","FO2016_e2b_12","judge",1,"Silent",6,1146,"Include",150
"FO2016_e2b","FO2016_e2b_12","justice",1,"Silent",6,970,"Include",151
"FO2016_e2b","FO2016_e2b_12","butterfly",0,"Silent",4,5386,"Include",152
"FO2016_e2b","FO2016_e2b_12","fowl",1,"Silent",5,2178,"Include",153
"FO2016_e2b","FO2016_e2b_12","gallery",1,"Silent",3,4218,"Include",154
"FO2016_e2b","FO2016_e2b_12","soil",1,"Silent",4,4034,"Include",155
"FO2016_e2b","FO2016_e2b_12","king",0,"Silent",3,5738,"Include",156
"FO2016_e2b","FO2016_e2b_12","horse",0,"Silent",2,1810,"Include",157
"FO2016_e2b","FO2016_e2b_12","sickness",1,"Silent",5,1738,"Include",158
"FO2016_e2b","FO2016_e2b_12","harness",0,"Silent",3,2570,"Include",159
"FO2016_e2b","FO2016_e2b_12","foam",1,"Silent",6,1882,"Include",160
"FO2016_e2b","FO2016_e2b_12","baron",1,"Silent",6,1082,"Include",161
"FO2016_e2b","FO2016_e2b_12","series",1,"Silent",4,2250,"Include",162
"FO2016_e2b","FO2016_e2b_12","confidence",0,"Silent",3,4338,"Include",163
"FO2016_e2b","FO2016_e2b_12","moral",0,"Silent",4,3786,"Include",164
"FO2016_e2b","FO2016_e2b_12","revolt",1,"Silent",5,1426,"Include",165
"FO2016_e2b","FO2016_e2b_12","ticket",1,"Silent",4,1610,"Include",166
"FO2016_e2b","FO2016_e2b_12","time",1,"Silent",3,2538,"Include",167
"FO2016_e2b","FO2016_e2b_12","goddess",1,"Silent",6,1170,"Include",168
"FO2016_e2b","FO2016_e2b_12","jury",1,"Silent",5,2834,"Include",169
"FO2016_e2b","FO2016_e2b_12","sky",1,"Silent",6,2546,"Include",170
"FO2016_e2b","FO2016_e2b_12","quest",1,"Silent",4,1578,"Include",171
"FO2016_e2b","FO2016_e2b_12","victim",0,"Silent",4,1210,"Include",172
"FO2016_e2b","FO2016_e2b_12","inhabitant",0,"Silent",2,3314,"Include",173
"FO2016_e2b","FO2016_e2b_12","joke",1,"Silent",2,3650,"Include",174
"FO2016_e2b","FO2016_e2b_12","priest",0,"Silent",3,4226,"Include",175
"FO2016_e2b","FO2016_e2b_12","assault",0,"Silent",4,2466,"Include",176
"FO2016_e2b","FO2016_e2b_12","city",0,"Silent",4,3546,"Include",177
"FO2016_e2b","FO2016_e2b_12","quality",0,"Silent",3,6658,"Include",178
"FO2016_e2b","FO2016_e2b_12","sunset",0,"Silent",2,2810,"Include",179
"FO2016_e2b","FO2016_e2b_12","beggar",1,"Silent",5,2242,"Include",180
"FO2016_e2b","FO2016_e2b_12","intellect",0,"Silent",4,6202,"Include",181
"FO2016_e2b","FO2016_e2b_12","cat",0,"Silent",2,2138,"Include",182
"FO2016_e2b","FO2016_e2b_12","plain",1,"Silent",2,2970,"Include",183
"FO2016_e2b","FO2016_e2b_12","hatred",1,"Silent",4,1554,"Include",184
"FO2016_e2b","FO2016_e2b_12","amount",0,"Silent",4,3882,"Include",185
"FO2016_e2b","FO2016_e2b_12","monarch",0,"Silent",3,3602,"Include",186
"FO2016_e2b","FO2016_e2b_12","trouble",0,"Silent",3,4554,"Include",187
"FO2016_e2b","FO2016_e2b_12","captive",1,"Silent",4,2082,"Include",188
"FO2016_e2b","FO2016_e2b_12","fork",1,"Silent",3,7818,"Include",189
"FO2016_e2b","FO2016_e2b_12","disposition",1,"Silent",5,5066,"Include",190
"FO2016_e2b","FO2016_e2b_12","woods",1,"Silent",4,2658,"Include",191
"FO2016_e2b","FO2016_e2b_12","situation",1,"Silent",4,1770,"Include",192
"FO2016_e2b","FO2016_e2b_12","child",1,"Silent",3,3002,"Include",193
"FO2016_e2b","FO2016_e2b_12","claw",0,"Silent",4,3602,"Include",194
"FO2016_e2b","FO2016_e2b_12","comrade",0,"Silent",4,3194,"Include",195
"FO2016_e2b","FO2016_e2b_12","skin",0,"Silent",3,1554,"Include",196
"FO2016_e2b","FO2016_e2b_12","warmth",0,"Silent",3,1770,"Include",197
"FO2016_e2b","FO2016_e2b_12","wheat",0,"Silent",2,3554,"Include",198
"FO2016_e2b","FO2016_e2b_12","love",0,"Silent",2,1730,"Include",199
"FO2016_e2b","FO2016_e2b_12","disease",1,"Silent",5,1242,"Include",200
"FO2016_e2b","FO2016_e2b_12","tribute",0,"Silent",5,1650,"Include",201
"FO2016_e2b","FO2016_e2b_12","brain",1,"Silent",6,2786,"Include",202
"FO2016_e2b","FO2016_e2b_12","array",1,"Silent",4,2730,"Include",203
"FO2016_e2b","FO2016_e2b_12","prairie",1,"Silent",6,1226,"Include",204
"FO2016_e2b","FO2016_e2b_12","salute",1,"Silent",6,1130,"Include",205
"FO2016_e2b","FO2016_e2b_12","poetry",0,"Silent",2,2466,"Include",206
"FO2016_e2b","FO2016_e2b_12","appearance",0,"Silent",3,3298,"Include",207
"FO2016_e2b","FO2016_e2b_12","cabin",0,"Silent",3,6418,"Include",208
"FO2016_e2b","FO2016_e2b_12","vessel",0,"Silent",2,1498,"Include",209
"FO2016_e2b","FO2016_e2b_12","custom",0,"Silent",4,1258,"Include",210
"FO2016_e2b","FO2016_e2b_12","winter",0,"Silent",3,3906,"Include",211
"FO2016_e2b","FO2016_e2b_12","ocean",1,"Silent",4,3666,"Include",212
"FO2016_e2b","FO2016_e2b_12","effort",0,"Silent",4,3330,"Include",213
"FO2016_e2b","FO2016_e2b_12","decree",1,"Silent",4,3178,"Include",214
"FO2016_e2b","FO2016_e2b_12","baby",0,"Silent",2,1218,"Include",215
"FO2016_e2b","FO2016_e2b_12","science",1,"Silent",4,1410,"Include",216
"FO2016_e2b","FO2016_e2b_12","string",1,"Silent",3,1738,"Include",217
"FO2016_e2b","FO2016_e2b_12","robber",0,"Silent",4,2610,"Include",218
"FO2016_e2b","FO2016_e2b_12","pupil",1,"Silent",5,3242,"Include",219
"FO2016_e2b","FO2016_e2b_12","boss",0,"Silent",4,1474,"Include",220
"FO2016_e2b","FO2016_e2b_12","excuse",1,"Silent",4,3074,"Include",221
"FO2016_e2b","FO2016_e2b_12","chin",0,"Silent",2,1538,"Include",222
"FO2016_e2b","FO2016_e2b_12","moss",1,"Silent",4,1058,"Include",223
"FO2016_e2b","FO2016_e2b_12","necessity",1,"Silent",4,1378,"Include",224
"FO2016_e2b","FO2016_e2b_12","wine",0,"Silent",4,2906,"Include",225
"FO2016_e2b","FO2016_e2b_12","link",1,"Silent",3,7122,"Include",226
"FO2016_e2b","FO2016_e2b_12","sulphur",0,"Silent",2,2722,"Include",227
"FO2016_e2b","FO2016_e2b_12","weapon",0,"Silent",4,1314,"Include",228
"FO2016_e2b","FO2016_e2b_12","master",1,"Silent",6,6994,"Include",229
"FO2016_e2b","FO2016_e2b_12","animal",0,"Silent",4,3234,"Include",230
"FO2016_e2b","FO2016_e2b_12","direction",0,"Silent",3,3634,"Include",231
"FO2016_e2b","FO2016_e2b_12","slave",1,"Silent",6,1562,"Include",232
"FO2016_e2b","FO2016_e2b_12","creature",0,"Silent",3,2386,"Include",233
"FO2016_e2b","FO2016_e2b_12","fox",0,"Silent",2,2074,"Include",234
"FO2016_e2b","FO2016_e2b_12","vision",0,"Silent",4,2066,"Include",235
"FO2016_e2b","FO2016_e2b_12","army",1,"Silent",6,1026,"Include",236
"FO2016_e2b","FO2016_e2b_12","vanity",0,"Silent",4,1290,"Include",237
"FO2016_e2b","FO2016_e2b_14","cellar",1,"Aloud",6,1714,"Include",1
"FO2016_e2b","FO2016_e2b_14","fox",1,"Aloud",6,1018,"Include",2
"FO2016_e2b","FO2016_e2b_14","costume",0,"Aloud",2,7730,"Include",3
"FO2016_e2b","FO2016_e2b_14","hope",0,"Aloud",2,1250,"Include",4
"FO2016_e2b","FO2016_e2b_14","impulse",1,"Aloud",6,1714,"Include",5
"FO2016_e2b","FO2016_e2b_14","picture",0,"Aloud",2,2274,"Include",6
"FO2016_e2b","FO2016_e2b_14","metal",0,"Aloud",1,1050,"Include",7
"FO2016_e2b","FO2016_e2b_14","vessel",1,"Aloud",6,4418,"Include",8
"FO2016_e2b","FO2016_e2b_14","competition",0,"Aloud",3,4170,"Include",9
"FO2016_e2b","FO2016_e2b_14","murder",1,"Aloud",6,1674,"Include",10
"FO2016_e2b","FO2016_e2b_14","trouble",0,"Aloud",1,1474,"Include",11
"FO2016_e2b","FO2016_e2b_14","animal",1,"Aloud",3,3738,"Include",12
"FO2016_e2b","FO2016_e2b_14","victim",1,"Aloud",2,3626,"Include",13
"FO2016_e2b","FO2016_e2b_14","grandmother",0,"Aloud",1,2226,"Include",14
"FO2016_e2b","FO2016_e2b_14","sky",0,"Aloud",1,618,"Include",15
"FO2016_e2b","FO2016_e2b_14","soil",1,"Aloud",4,2930,"Include",16
"FO2016_e2b","FO2016_e2b_14","conquest",1,"Aloud",6,1490,"Include",17
"FO2016_e2b","FO2016_e2b_14","love",1,"Aloud",2,2514,"Include",18
"FO2016_e2b","FO2016_e2b_14","circuit",1,"Aloud",6,1530,"Include",19
"FO2016_e2b","FO2016_e2b_14","grass",1,"Aloud",1,2194,"Include",20
"FO2016_e2b","FO2016_e2b_14","lecture",0,"Aloud",1,1130,"Include",21
"FO2016_e2b","FO2016_e2b_14","christmas",0,"Aloud",1,810,"Include",22
"FO2016_e2b","FO2016_e2b_14","sugar",0,"Aloud",1,946,"Include",23
"FO2016_e2b","FO2016_e2b_14","party",1,"Aloud",1,1218,"Include",24
"FO2016_e2b","FO2016_e2b_14","frog",0,"Aloud",1,666,"Include",25
"FO2016_e2b","FO2016_e2b_14","marriage",0,"Aloud",3,3090,"Include",26
"FO2016_e2b","FO2016_e2b_14","boulder",0,"Aloud",1,1426,"Include",27
"FO2016_e2b","FO2016_e2b_14","oxygen",0,"Aloud",1,866,"Include",28
"FO2016_e2b","FO2016_e2b_14","chair",1,"Aloud",5,2658,"Include",29
"FO2016_e2b","FO2016_e2b_14","attendant",1,"Aloud",3,4738,"Include",30
"FO2016_e2b","FO2016_e2b_14","committee",1,"Aloud",6,1698,"Include",31
"FO2016_e2b","FO2016_e2b_14","rock",1,"Aloud",1,2042,"Include",32
"FO2016_e2b","FO2016_e2b_14","banker",0,"Aloud",1,994,"Include",33
"FO2016_e2b","FO2016_e2b_14","toast",1,"Aloud",1,1634,"Include",34
"FO2016_e2b","FO2016_e2b_14","string",0,"Aloud",1,642,"Include",35
"FO2016_e2b","FO2016_e2b_14","arm",0,"Aloud",1,722,"Include",36
"FO2016_e2b","FO2016_e2b_14","door",0,"Aloud",1,586,"Include",37
"FO2016_e2b","FO2016_e2b_14","revolt",1,"Aloud",5,2768,"Include",38
"FO2016_e2b","FO2016_e2b_14","misery",1,"Aloud",5,2138,"Include",39
"FO2016_e2b","FO2016_e2b_14","excuse",1,"Aloud",6,1522,"Include",40
"FO2016_e2b","FO2016_e2b_14","baron",0,"Aloud",1,3234,"Include",41
"FO2016_e2b","FO2016_e2b_14","fowl",1,"Aloud",2,1674,"Include",42
"FO2016_e2b","FO2016_e2b_14","charm",1,"Aloud",5,6034,"Include",43
"FO2016_e2b","FO2016_e2b_14","link",1,"Aloud",2,922,"Include",44
"FO2016_e2b","FO2016_e2b_14","ambassador",1,"Aloud",1,1242,"Include",45
"FO2016_e2b","FO2016_e2b_14","anxiety",1,"Aloud",5,3090,"Include",46
"FO2016_e2b","FO2016_e2b_14","drama",0,"Aloud",1,1498,"Include",47
"FO2016_e2b","FO2016_e2b_14","idea",0,"Aloud",2,3074,"Include",48
"FO2016_e2b","FO2016_e2b_14","stone",0,"Aloud",1,1234,"Include",49
"FO2016_e2b","FO2016_e2b_14","horse",0,"Aloud",1,642,"Include",50
"FO2016_e2b","FO2016_e2b_14","window",1,"Aloud",1,538,"Include",51
"FO2016_e2b","FO2016_e2b_14","grief",1,"Aloud",3,3906,"Include",52
"FO2016_e2b","FO2016_e2b_14","menace",0,"Aloud",1,914,"Include",53
"FO2016_e2b","FO2016_e2b_14","facility",1,"Aloud",4,4218,"Include",54
"FO2016_e2b","FO2016_e2b_14","scarlet",0,"Aloud",1,1386,"Include",55
"FO2016_e2b","FO2016_e2b_14","claw",1,"Aloud",5,1826,"Include",56
"FO2016_e2b","FO2016_e2b_14","skin",0,"Aloud",1,874,"Include",57
"FO2016_e2b","FO2016_e2b_14","winter",0,"Aloud",1,866,"Include",58
"FO2016_e2b","FO2016_e2b_14","folly",0,"Aloud",1,1154,"Include",59
"FO2016_e2b","FO2016_e2b_14","sea",0,"Aloud",1,570,"Include",60
"FO2016_e2b","FO2016_e2b_14","sunset",0,"Aloud",1,602,"Include",61
"FO2016_e2b","FO2016_e2b_14","hammer",0,"Aloud",1,450,"Include",62
"FO2016_e2b","FO2016_e2b_14","capacity",1,"Aloud",2,2586,"Include",63
"FO2016_e2b","FO2016_e2b_14","valley",0,"Aloud",1,994,"Include",64
"FO2016_e2b","FO2016_e2b_14","item",1,"Aloud",5,2378,"Include",65
"FO2016_e2b","FO2016_e2b_14","corner",1,"Aloud",2,2818,"Include",66
"FO2016_e2b","FO2016_e2b_14","effort",1,"Aloud",1,1002,"Include",67
"FO2016_e2b","FO2016_e2b_14","chin",0,"Aloud",1,746,"Include",68
"FO2016_e2b","FO2016_e2b_14","monarch",0,"Aloud",1,1874,"Include",69
"FO2016_e2b","FO2016_e2b_14","vanity",0,"Aloud",1,1570,"Include",70
"FO2016_e2b","FO2016_e2b_14","slipper",0,"Aloud",1,882,"Include",71
"FO2016_e2b","FO2016_e2b_14","chance",0,"Aloud",1,754,"Include",72
"FO2016_e2b","FO2016_e2b_14","journal",1,"Aloud",5,1714,"Include",73
"FO2016_e2b","FO2016_e2b_14","garden",1,"Aloud",2,4370,"Include",74
"FO2016_e2b","FO2016_e2b_14","sovereign",0,"Aloud",1,1322,"Include",75
"FO2016_e2b","FO2016_e2b_14","foam",0,"Aloud",1,834,"Include",76
"FO2016_e2b","FO2016_e2b_14","iron",0,"Aloud",1,738,"Include",77
"FO2016_e2b","FO2016_e2b_14","ocean",0,"Aloud",1,842,"Include",78
"FO2016_e2b","FO2016_e2b_14","substitute",0,"Aloud",1,858,"Include",79
"FO2016_e2b","FO2016_e2b_14","mind",0,"Aloud",1,986,"Include",80
"FO2016_e2b","FO2016_e2b_14","welfare",1,"Aloud",2,2122,"Include",81
"FO2016_e2b","FO2016_e2b_14","master",1,"Aloud",6,1442,"Include",82
"FO2016_e2b","FO2016_e2b_14","product",0,"Aloud",1,1178,"Include",83
"FO2016_e2b","FO2016_e2b_14","thorn",1,"Aloud",6,1354,"Include",84
"FO2016_e2b","FO2016_e2b_14","tablespoon",1,"Aloud",6,722,"Include",85
"FO2016_e2b","FO2016_e2b_14","hatred",0,"Aloud",1,1170,"Include",86
"FO2016_e2b","FO2016_e2b_14","wife",1,"Aloud",6,1066,"Include",87
"FO2016_e2b","FO2016_e2b_14","array",0,"Aloud",2,986,"Include",88
"FO2016_e2b","FO2016_e2b_14","virtue",1,"Aloud",1,1074,"Include",89
"FO2016_e2b","FO2016_e2b_14","fisherman",1,"Aloud",1,2170,"Include",90
"FO2016_e2b","FO2016_e2b_14","car",1,"Aloud",1,698,"Include",91
"FO2016_e2b","FO2016_e2b_14","democracy",0,"Aloud",1,1226,"Include",92
"FO2016_e2b","FO2016_e2b_14","air",0,"Aloud",1,626,"Include",93
"FO2016_e2b","FO2016_e2b_14","intellect",0,"Aloud",1,682,"Include",94
"FO2016_e2b","FO2016_e2b_14","physician",1,"Aloud",3,1554,"Include",95
"FO2016_e2b","FO2016_e2b_14","warmth",1,"Aloud",1,1842,"Include",96
"FO2016_e2b","FO2016_e2b_14","glory",0,"Aloud",3,1530,"Include",97
"FO2016_e2b","FO2016_e2b_14","form",1,"Aloud",1,1458,"Include",98
"FO2016_e2b","FO2016_e2b_14","lark",0,"Aloud",1,666,"Include",99
"FO2016_e2b","FO2016_e2b_14","moss",0,"Aloud",1,922,"Include",100
"FO2016_e2b","FO2016_e2b_14","comparison",0,"Aloud",4,6810,"Include",101
"FO2016_e2b","FO2016_e2b_14","situation",0,"Aloud",1,1578,"Include",102
"FO2016_e2b","FO2016_e2b_14","law",0,"Aloud",3,2626,"Include",103
"FO2016_e2b","FO2016_e2b_14","gentleman",1,"Aloud",6,1746,"Include",104
"FO2016_e2b","FO2016_e2b_14","ticket",1,"Aloud",2,1394,"Include",105
"FO2016_e2b","FO2016_e2b_14","rod",1,"Aloud",1,978,"Include",106
"FO2016_e2b","FO2016_e2b_14","confidence",1,"Aloud",6,1938,"Include",107
"FO2016_e2b","FO2016_e2b_14","inhabitant",0,"Aloud",1,2546,"Include",108
"FO2016_e2b","FO2016_e2b_14","beggar",1,"Aloud",1,1050,"Include",109
"FO2016_e2b","FO2016_e2b_14","disposition",1,"Aloud",4,2258,"Include",110
"FO2016_e2b","FO2016_e2b_14","church",0,"Aloud",1,714,"Include",111
"FO2016_e2b","FO2016_e2b_14","disaster",0,"Aloud",1,834,"Include",112
"FO2016_e2b","FO2016_e2b_14","convention",0,"Aloud",1,954,"Include",113
"FO2016_e2b","FO2016_e2b_14","gallery",0,"Aloud",4,1827,"Include",114
"FO2016_e2b","FO2016_e2b_14","beaver",1,"Aloud",1,2938,"Include",115
"FO2016_e2b","FO2016_e2b_14","headquarters",1,"Aloud",5,2794,"Include",116
"FO2016_e2b","FO2016_e2b_14","cabin",0,"Aloud",1,1266,"Include",117
"FO2016_e2b","FO2016_e2b_14","weapon",1,"Aloud",1,1202,"Include",118
"FO2016_e2b","FO2016_e2b_14","city",0,"Aloud",1,986,"Include",119
"FO2016_e2b","FO2016_e2b_14","prison",1,"Aloud",1,954,"Include",120
"FO2016_e2b","FO2016_e2b_14","reflection",0,"Aloud",1,714,"Include",121
"FO2016_e2b","FO2016_e2b_14","contents",1,"Aloud",1,3426,"Include",122
"FO2016_e2b","FO2016_e2b_14","affection",1,"Aloud",1,610,"Include",123
"FO2016_e2b","FO2016_e2b_14","priest",1,"Aloud",1,1042,"Include",124
"FO2016_e2b","FO2016_e2b_14","child",0,"Aloud",1,1394,"Include",125
"FO2016_e2b","FO2016_e2b_14","storm",0,"Aloud",1,4530,"Include",126
"FO2016_e2b","FO2016_e2b_14","decree",1,"Aloud",4,3754,"Include",127
"FO2016_e2b","FO2016_e2b_14","railroad",0,"Aloud",1,1450,"Include",128
"FO2016_e2b","FO2016_e2b_14","tomb",1,"Aloud",3,3090,"Include",129
"FO2016_e2b","FO2016_e2b_14","instance",0,"Aloud",1,1322,"Include",130
"FO2016_e2b","FO2016_e2b_14","money",0,"Aloud",1,602,"Include",131
"FO2016_e2b","FO2016_e2b_14","sauce",0,"Aloud",1,826,"Include",132
"FO2016_e2b","FO2016_e2b_14","time",1,"Aloud",1,730,"Include",133
"FO2016_e2b","FO2016_e2b_14","spray",0,"Aloud",1,850,"Include",134
"FO2016_e2b","FO2016_e2b_14","oven",1,"Aloud",1,842,"Include",135
"FO2016_e2b","FO2016_e2b_14","dirt",1,"Aloud",5,1722,"Include",136
"FO2016_e2b","FO2016_e2b_14","justice",1,"Aloud",6,2138,"Include",137
"FO2016_e2b","FO2016_e2b_14","nephew",0,"Aloud",1,2074,"Include",138
"FO2016_e2b","FO2016_e2b_14","maker",1,"Aloud",1,786,"Include",139
"FO2016_e2b","FO2016_e2b_14","fork",1,"Aloud",1,1506,"Include",140
"FO2016_e2b","FO2016_e2b_14","king",1,"Aloud",6,1506,"Include",141
"FO2016_e2b","FO2016_e2b_14","material",0,"Aloud",2,8506,"Include",142
"FO2016_e2b","FO2016_e2b_14","river",1,"Aloud",1,874,"Include",143
"FO2016_e2b","FO2016_e2b_14","vapour",1,"Aloud",1,610,"Include",144
"FO2016_e2b","FO2016_e2b_14","lake",0,"Aloud",1,530,"Include",145
"FO2016_e2b","FO2016_e2b_14","star",1,"Aloud",1,666,"Include",146
"FO2016_e2b","FO2016_e2b_14","wheat",0,"Aloud",1,522,"Include",147
"FO2016_e2b","FO2016_e2b_14","boss",1,"Aloud",4,2039,"Include",148
"FO2016_e2b","FO2016_e2b_14","artist",0,"Aloud",4,2466,"Include",149
"FO2016_e2b","FO2016_e2b_14","wine",0,"Aloud",1,666,"Include",150
"FO2016_e2b","FO2016_e2b_14","queen",1,"Aloud",6,1202,"Include",151
"FO2016_e2b","FO2016_e2b_14","goddess",0,"Aloud",2,2034,"Include",152
"FO2016_e2b","FO2016_e2b_14","thief",0,"Aloud",6,1362,"Include",153
"FO2016_e2b","FO2016_e2b_14","charter",0,"Aloud",1,1522,"Include",154
"FO2016_e2b","FO2016_e2b_14","institute",1,"Aloud",5,2218,"Include",155
"FO2016_e2b","FO2016_e2b_14","baby",1,"Aloud",1,2146,"Include",156
"FO2016_e2b","FO2016_e2b_14","tribute",1,"Aloud",1,1202,"Include",157
"FO2016_e2b","FO2016_e2b_14","shame",1,"Aloud",1,618,"Include",158
"FO2016_e2b","FO2016_e2b_14","attribute",1,"Aloud",6,1170,"Include",159
"FO2016_e2b","FO2016_e2b_14","moral",0,"Aloud",1,1562,"Include",160
"FO2016_e2b","FO2016_e2b_14","tobacco",0,"Aloud",1,842,"Include",161
"FO2016_e2b","FO2016_e2b_14","series",1,"Aloud",1,1906,"Include",162
"FO2016_e2b","FO2016_e2b_14","assault",0,"Aloud",1,954,"Include",163
"FO2016_e2b","FO2016_e2b_14","hint",0,"Aloud",1,682,"Include",164
"FO2016_e2b","FO2016_e2b_14","deed",0,"Aloud",1,818,"Include",165
"FO2016_e2b","FO2016_e2b_14","fire",1,"Aloud",1,722,"Include",166
"FO2016_e2b","FO2016_e2b_14","honour",0,"Aloud",1,978,"Include",167
"FO2016_e2b","FO2016_e2b_14","forest",1,"Aloud",1,938,"Include",168
"FO2016_e2b","FO2016_e2b_14","captive",0,"Aloud",2,2274,"Include",169
"FO2016_e2b","FO2016_e2b_14","vegetable",0,"Aloud",1,922,"Include",170
"FO2016_e2b","FO2016_e2b_14","code",1,"Aloud",4,2786,"Include",171
"FO2016_e2b","FO2016_e2b_14","shadow",0,"Aloud",1,1490,"Include",172
"FO2016_e2b","FO2016_e2b_14","direction",1,"Aloud",1,1042,"Include",173
"FO2016_e2b","FO2016_e2b_14","procession",1,"Aloud",5,3426,"Include",174
"FO2016_e2b","FO2016_e2b_14","clock",1,"Aloud",1,786,"Include",175
"FO2016_e2b","FO2016_e2b_14","science",1,"Aloud",1,866,"Include",176
"FO2016_e2b","FO2016_e2b_14","moment",0,"Aloud",1,1122,"Include",177
"FO2016_e2b","FO2016_e2b_14","sickness",0,"Aloud",1,842,"Include",178
"FO2016_e2b","FO2016_e2b_14","death",1,"Aloud",1,682,"Include",179
"FO2016_e2b","FO2016_e2b_14","duty",1,"Aloud",1,530,"Include",180
"FO2016_e2b","FO2016_e2b_14","amount",0,"Aloud",1,826,"Include",181
"FO2016_e2b","FO2016_e2b_14","appearance",0,"Aloud",5,1834,"Include",182
"FO2016_e2b","FO2016_e2b_14","judge",1,"Aloud",4,5194,"Include",183
"FO2016_e2b","FO2016_e2b_14","cash",0,"Aloud",1,3074,"Include",184
"FO2016_e2b","FO2016_e2b_14","diamond",0,"Aloud",1,1186,"Include",185
"FO2016_e2b","FO2016_e2b_14","cat",1,"Aloud",1,994,"Include",186
"FO2016_e2b","FO2016_e2b_14","brain",1,"Aloud",1,738,"Include",187
"FO2016_e2b","FO2016_e2b_14","elephant",0,"Aloud",1,1330,"Include",188
"FO2016_e2b","FO2016_e2b_14","interest",1,"Aloud",3,2610,"Include",189
"FO2016_e2b","FO2016_e2b_14","meeting",0,"Aloud",1,2298,"Include",190
"FO2016_e2b","FO2016_e2b_14","colony",1,"Aloud",3,2498,"Include",191
"FO2016_e2b","FO2016_e2b_14","camp",1,"Aloud",1,674,"Include",192
"FO2016_e2b","FO2016_e2b_14","vision",1,"Aloud",1,3626,"Include",193
"FO2016_e2b","FO2016_e2b_14","length",1,"Aloud",1,626,"Include",194
"FO2016_e2b","FO2016_e2b_14","quality",0,"Aloud",3,1146,"Include",195
"FO2016_e2b","FO2016_e2b_14","woods",1,"Aloud",1,1018,"Include",196
"FO2016_e2b","FO2016_e2b_14","plain",0,"Aloud",1,1042,"Include",197
"FO2016_e2b","FO2016_e2b_14","salute",0,"Aloud",1,610,"Include",198
"FO2016_e2b","FO2016_e2b_14","ability",0,"Aloud",4,1978,"Include",199
"FO2016_e2b","FO2016_e2b_14","flesh",0,"Aloud",1,642,"Include",200
"FO2016_e2b","FO2016_e2b_14","bowl",1,"Aloud",1,514,"Include",201
"FO2016_e2b","FO2016_e2b_14","poetry",1,"Aloud",1,594,"Include",202
"FO2016_e2b","FO2016_e2b_14","butter",0,"Aloud",1,4106,"Include",203
"FO2016_e2b","FO2016_e2b_14","book",1,"Aloud",1,546,"Include",204
"FO2016_e2b","FO2016_e2b_14","atmosphere",0,"Aloud",3,2274,"Include",205
"FO2016_e2b","FO2016_e2b_14","prayer",1,"Aloud",4,1490,"Include",206
"FO2016_e2b","FO2016_e2b_14","mercy",0,"Aloud",5,3234,"Include",207
"FO2016_e2b","FO2016_e2b_14","bosom",1,"Aloud",5,786,"Include",208
"FO2016_e2b","FO2016_e2b_14","army",0,"Aloud",1,2306,"Include",209
"FO2016_e2b","FO2016_e2b_14","attitude",1,"Aloud",4,3786,"Include",210
"FO2016_e2b","FO2016_e2b_14","robber",1,"Aloud",1,978,"Include",211
"FO2016_e2b","FO2016_e2b_14","butterfly",0,"Aloud",1,626,"Include",212
"FO2016_e2b","FO2016_e2b_14","moisture",1,"Aloud",1,1066,"Include",213
"FO2016_e2b","FO2016_e2b_14","settler",0,"Aloud",1,1610,"Include",214
"FO2016_e2b","FO2016_e2b_14","quest",1,"Aloud",4,1970,"Include",215
"FO2016_e2b","FO2016_e2b_14","comrade",1,"Aloud",1,786,"Include",216
"FO2016_e2b","FO2016_e2b_14","joke",0,"Aloud",1,594,"Include",217
"FO2016_e2b","FO2016_e2b_14","library",1,"Aloud",1,754,"Include",218
"FO2016_e2b","FO2016_e2b_14","cotton",1,"Aloud",5,2538,"Include",219
"FO2016_e2b","FO2016_e2b_14","custom",0,"Aloud",3,2842,"Include",220
"FO2016_e2b","FO2016_e2b_14","disease",0,"Aloud",1,1970,"Include",221
"FO2016_e2b","FO2016_e2b_14","nail",0,"Aloud",1,570,"Include",222
"FO2016_e2b","FO2016_e2b_14","sensation",1,"Aloud",4,2338,"Include",223
"FO2016_e2b","FO2016_e2b_14","majority",1,"Aloud",1,1706,"Include",224
"FO2016_e2b","FO2016_e2b_14","steam",0,"Aloud",1,666,"Include",225
"FO2016_e2b","FO2016_e2b_14","speech",1,"Aloud",1,962,"Include",226
"FO2016_e2b","FO2016_e2b_14","person",0,"Aloud",1,922,"Include",227
"FO2016_e2b","FO2016_e2b_14","sulphur",0,"Aloud",1,1082,"Include",228
"FO2016_e2b","FO2016_e2b_14","necessity",1,"Aloud",1,2218,"Include",229
"FO2016_e2b","FO2016_e2b_14","pupil",0,"Aloud",1,1754,"Include",230
"FO2016_e2b","FO2016_e2b_14","leader",0,"Aloud",1,746,"Include",231
"FO2016_e2b","FO2016_e2b_14","earth",1,"Aloud",1,1792,"Include",232
"FO2016_e2b","FO2016_e2b_14","jail",1,"Aloud",5,2978,"Include",233
"FO2016_e2b","FO2016_e2b_14","tower",1,"Aloud",1,682,"Include",234
"FO2016_e2b","FO2016_e2b_14","harness",1,"Aloud",1,914,"Include",235
"FO2016_e2b","FO2016_e2b_14","ankle",0,"Aloud",1,1146,"Include",236
"FO2016_e2b","FO2016_e2b_14","prairie",0,"Aloud",1,602,"Include",237
"FO2016_e2b","FO2016_e2b_14","creature",0,"Aloud",1,634,"Include",238
"FO2016_e2b","FO2016_e2b_15","earth",1,"Aloud",6,3690,"Include",1
"FO2016_e2b","FO2016_e2b_15","beggar",1,"Aloud",6,5042,"Include",2
"FO2016_e2b","FO2016_e2b_15","clock",0,"Aloud",1,4074,"Include",3
"FO2016_e2b","FO2016_e2b_15","camp",0,"Aloud",2,2834,"Include",4
"FO2016_e2b","FO2016_e2b_15","situation",1,"Aloud",6,2250,"Include",5
"FO2016_e2b","FO2016_e2b_15","committee",0,"Aloud",1,2074,"Include",6
"FO2016_e2b","FO2016_e2b_15","vanity",1,"Aloud",3,4498,"Include",7
"FO2016_e2b","FO2016_e2b_15","elephant",0,"Aloud",3,5018,"Include",8
"FO2016_e2b","FO2016_e2b_15","quest",1,"Aloud",2,5202,"Include",9
"FO2016_e2b","FO2016_e2b_15","grandmother",1,"Aloud",6,1794,"Include",10
"FO2016_e2b","FO2016_e2b_15","drama",1,"Aloud",1,3466,"Include",11
"FO2016_e2b","FO2016_e2b_15","wife",1,"Aloud",6,1890,"Include",12
"FO2016_e2b","FO2016_e2b_15","trouble",0,"Aloud",3,5658,"Include",13
"FO2016_e2b","FO2016_e2b_15","gentleman",0,"Aloud",1,2290,"Include",14
"FO2016_e2b","FO2016_e2b_15","book",1,"Aloud",1,2154,"Include",15
"FO2016_e2b","FO2016_e2b_15","frog",0,"Aloud",1,962,"Include",16
"FO2016_e2b","FO2016_e2b_15","moss",0,"Aloud",1,1098,"Include",17
"FO2016_e2b","FO2016_e2b_15","sickness",0,"Aloud",2,1834,"Include",18
"FO2016_e2b","FO2016_e2b_15","cabin",1,"Aloud",1,1042,"Include",19
"FO2016_e2b","FO2016_e2b_15","item",0,"Aloud",1,1738,"Include",20
"FO2016_e2b","FO2016_e2b_15","excuse",0,"Aloud",2,1546,"Include",21
"FO2016_e2b","FO2016_e2b_15","claw",0,"Aloud",1,1122,"Include",22
"FO2016_e2b","FO2016_e2b_15","charm",1,"Aloud",6,2482,"Include",23
"FO2016_e2b","FO2016_e2b_15","flesh",1,"Aloud",4,3034,"Include",24
"FO2016_e2b","FO2016_e2b_15","library",1,"Aloud",6,1314,"Include",25
"FO2016_e2b","FO2016_e2b_15","link",0,"Aloud",3,2850,"Include",26
"FO2016_e2b","FO2016_e2b_15","nail",1,"Aloud",6,1450,"Include",27
"FO2016_e2b","FO2016_e2b_15","butterfly",1,"Aloud",4,3050,"Include",28
"FO2016_e2b","FO2016_e2b_15","goddess",1,"Aloud",5,2290,"Include",29
"FO2016_e2b","FO2016_e2b_15","tribute",1,"Aloud",6,1274,"Include",30
"FO2016_e2b","FO2016_e2b_15","prairie",0,"Aloud",1,1786,"Include",31
"FO2016_e2b","FO2016_e2b_15","folly",0,"Aloud",1,1370,"Include",32
"FO2016_e2b","FO2016_e2b_15","grass",0,"Aloud",4,4834,"Include",33
"FO2016_e2b","FO2016_e2b_15","boss",0,"Aloud",1,2138,"Include",34
"FO2016_e2b","FO2016_e2b_15","fire",1,"Aloud",6,2402,"Include",35
"FO2016_e2b","FO2016_e2b_15","captive",0,"Aloud",1,1570,"Include",36
"FO2016_e2b","FO2016_e2b_15","grief",1,"Aloud",5,3178,"Include",37
"FO2016_e2b","FO2016_e2b_15","revolt",0,"Aloud",1,2050,"Include",38
"FO2016_e2b","FO2016_e2b_15","rod",1,"Aloud",1,1426,"Include",39
"FO2016_e2b","FO2016_e2b_15","cat",1,"Aloud",6,1866,"Include",40
"FO2016_e2b","FO2016_e2b_15","horse",0,"Aloud",1,1682,"Include",41
"FO2016_e2b","FO2016_e2b_15","procession",0,"Aloud",1,3642,"Include",42
"FO2016_e2b","FO2016_e2b_15","corner",1,"Aloud",5,1434,"Include",43
"FO2016_e2b","FO2016_e2b_15","judge",0,"Aloud",3,2394,"Include",44
"FO2016_e2b","FO2016_e2b_15","decree",0,"Aloud",1,1930,"Include",45
"FO2016_e2b","FO2016_e2b_15","jail",1,"Aloud",6,1570,"Include",46
"FO2016_e2b","FO2016_e2b_15","array",1,"Aloud",6,738,"Include",47
"FO2016_e2b","FO2016_e2b_15","star",1,"Aloud",6,690,"Include",48
"FO2016_e2b","FO2016_e2b_15","necessity",0,"Aloud",5,2474,"Include",49
"FO2016_e2b","FO2016_e2b_15","majority",1,"Aloud",2,3274,"Include",50
"FO2016_e2b","FO2016_e2b_15","thorn",0,"Aloud",1,1322,"Include",51
"FO2016_e2b","FO2016_e2b_15","interest",1,"Aloud",5,3634,"Include",52
"FO2016_e2b","FO2016_e2b_15","monarch",0,"Aloud",1,874,"Include",53
"FO2016_e2b","FO2016_e2b_15","sugar",0,"Aloud",2,2610,"Include",54
"FO2016_e2b","FO2016_e2b_15","nephew",0,"Aloud",1,1250,"Include",55
"FO2016_e2b","FO2016_e2b_15","victim",0,"Aloud",1,2458,"Include",56
"FO2016_e2b","FO2016_e2b_15","oxygen",0,"Aloud",1,978,"Include",57
"FO2016_e2b","FO2016_e2b_15","settler",0,"Aloud",1,866,"Include",58
"FO2016_e2b","FO2016_e2b_15","hope",1,"Aloud",5,1594,"Include",59
"FO2016_e2b","FO2016_e2b_15","money",0,"Aloud",6,1178,"Include",60
"FO2016_e2b","FO2016_e2b_15","ocean",1,"Aloud",1,3794,"Include",61
"FO2016_e2b","FO2016_e2b_15","fowl",1,"Aloud",6,1418,"Include",62
"FO2016_e2b","FO2016_e2b_15","attendant",0,"Aloud",2,3650,"Include",63
"FO2016_e2b","FO2016_e2b_15","slipper",0,"Aloud",1,1194,"Include",64
"FO2016_e2b","FO2016_e2b_15","mind",1,"Aloud",1,794,"Include",65
"FO2016_e2b","FO2016_e2b_15","comparison",1,"Aloud",4,3530,"Include",66
"FO2016_e2b","FO2016_e2b_15","glory",0,"Aloud",4,5018,"Include",67
"FO2016_e2b","FO2016_e2b_15","door",0,"Aloud",2,1570,"Include",68
"FO2016_e2b","FO2016_e2b_15","atmosphere",1,"Aloud",6,1498,"Include",69
"FO2016_e2b","FO2016_e2b_15","boulder",0,"Aloud",1,1106,"Include",70
"FO2016_e2b","FO2016_e2b_15","forest",1,"Aloud",6,1170,"Include",71
"FO2016_e2b","FO2016_e2b_15","democracy",1,"Aloud",5,3114,"Include",72
"FO2016_e2b","FO2016_e2b_15","sauce",0,"Aloud",1,778,"Include",73
"FO2016_e2b","FO2016_e2b_15","instance",1,"Aloud",6,1570,"Include",74
"FO2016_e2b","FO2016_e2b_15","moral",1,"Aloud",3,4386,"Include",75
"FO2016_e2b","FO2016_e2b_15","chair",1,"Aloud",1,1466,"Include",76
"FO2016_e2b","FO2016_e2b_15","church",1,"Aloud",6,1386,"Include",77
"FO2016_e2b","FO2016_e2b_15","baby",1,"Aloud",6,770,"Include",78
"FO2016_e2b","FO2016_e2b_15","attitude",1,"Aloud",6,1242,"Include",79
"FO2016_e2b","FO2016_e2b_15","ankle",1,"Aloud",1,1322,"Include",80
"FO2016_e2b","FO2016_e2b_15","institute",1,"Aloud",6,1330,"Include",81
"FO2016_e2b","FO2016_e2b_15","competition",1,"Aloud",4,4234,"Include",82
"FO2016_e2b","FO2016_e2b_15","fox",1,"Aloud",6,1394,"Include",83
"FO2016_e2b","FO2016_e2b_15","joke",1,"Aloud",6,722,"Include",84
"FO2016_e2b","FO2016_e2b_15","sky",0,"Aloud",1,1370,"Include",85
"FO2016_e2b","FO2016_e2b_15","air",0,"Aloud",1,1386,"Include",86
"FO2016_e2b","FO2016_e2b_15","length",1,"Aloud",6,1402,"Include",87
"FO2016_e2b","FO2016_e2b_15","queen",1,"Aloud",5,2394,"Include",88
"FO2016_e2b","FO2016_e2b_15","priest",1,"Aloud",1,1242,"Include",89
"FO2016_e2b","FO2016_e2b_15","lake",0,"Aloud",1,778,"Include",90
"FO2016_e2b","FO2016_e2b_15","vegetable",0,"Aloud",1,794,"Include",91
"FO2016_e2b","FO2016_e2b_15","gallery",0,"Aloud",1,1954,"Include",92
"FO2016_e2b","FO2016_e2b_15","moisture",1,"Aloud",6,1274,"Include",93
"FO2016_e2b","FO2016_e2b_15","scarlet",0,"Aloud",1,1938,"Include",94
"FO2016_e2b","FO2016_e2b_15","direction",1,"Aloud",6,1386,"Include",95
"FO2016_e2b","FO2016_e2b_15","tobacco",1,"Aloud",6,1530,"Include",96
"FO2016_e2b","FO2016_e2b_15","skin",0,"Aloud",6,1442,"Include",97
"FO2016_e2b","FO2016_e2b_15","chance",0,"Aloud",1,4482,"Include",98
"FO2016_e2b","FO2016_e2b_15","window",0,"Aloud",1,994,"Include",99
"FO2016_e2b","FO2016_e2b_15","deed",1,"Aloud",1,818,"Include",100
"FO2016_e2b","FO2016_e2b_15","valley",1,"Aloud",3,2786,"Include",101
"FO2016_e2b","FO2016_e2b_15","woods",0,"Aloud",1,2066,"Include",102
"FO2016_e2b","FO2016_e2b_15","car",1,"Aloud",6,1658,"Include",103
"FO2016_e2b","FO2016_e2b_15","animal",1,"Aloud",4,4210,"Include",104
"FO2016_e2b","FO2016_e2b_15","vessel",0,"Aloud",1,1194,"Include",105
"FO2016_e2b","FO2016_e2b_15","form",1,"Aloud",4,3834,"Include",106
"FO2016_e2b","FO2016_e2b_15","christmas",1,"Aloud",6,1122,"Include",107
"FO2016_e2b","FO2016_e2b_15","banker",1,"Aloud",2,2074,"Include",108
"FO2016_e2b","FO2016_e2b_15","disaster",0,"Aloud",2,5506,"Include",109
"FO2016_e2b","FO2016_e2b_15","welfare",0,"Aloud",1,1050,"Include",110
"FO2016_e2b","FO2016_e2b_15","material",1,"Aloud",1,970,"Include",111
"FO2016_e2b","FO2016_e2b_15","storm",1,"Aloud",1,1730,"Include",112
"FO2016_e2b","FO2016_e2b_15","warmth",1,"Aloud",6,1194,"Include",113
"FO2016_e2b","FO2016_e2b_15","conquest",1,"Aloud",5,1890,"Include",114
"FO2016_e2b","FO2016_e2b_15","cash",1,"Aloud",1,1626,"Include",115
"FO2016_e2b","FO2016_e2b_15","maker",0,"Aloud",1,1314,"Include",116
"FO2016_e2b","FO2016_e2b_15","iron",1,"Aloud",6,1266,"Include",117
"FO2016_e2b","FO2016_e2b_15","ambassador",1,"Aloud",6,1226,"Include",118
"FO2016_e2b","FO2016_e2b_15","colony",1,"Aloud",6,842,"Include",119
"FO2016_e2b","FO2016_e2b_15","bowl",0,"Aloud",2,2122,"Include",120
"FO2016_e2b","FO2016_e2b_15","artist",0,"Aloud",1,802,"Include",121
"FO2016_e2b","FO2016_e2b_15","law",0,"Aloud",1,1202,"Include",122
"FO2016_e2b","FO2016_e2b_15","physician",1,"Aloud",4,5770,"Include",123
"FO2016_e2b","FO2016_e2b_15","king",0,"Aloud",1,1514,"Include",124
"FO2016_e2b","FO2016_e2b_15","contents",0,"Aloud",2,2474,"Include",125
"FO2016_e2b","FO2016_e2b_15","reflection",0,"Aloud",1,1114,"Include",126
"FO2016_e2b","FO2016_e2b_15","facility",1,"Aloud",5,2514,"Include",127
"FO2016_e2b","FO2016_e2b_15","jury",0,"Aloud",1,1114,"Include",128
"FO2016_e2b","FO2016_e2b_15","sulphur",1,"Aloud",6,1602,"Include",129
"FO2016_e2b","FO2016_e2b_15","sovereign",0,"Aloud",1,1738,"Include",130
"FO2016_e2b","FO2016_e2b_15","convention",1,"Aloud",2,1842,"Include",131
"FO2016_e2b","FO2016_e2b_15","rock",1,"Aloud",1,1194,"Include",132
"FO2016_e2b","FO2016_e2b_15","lecture",1,"Aloud",5,2154,"Include",133
"FO2016_e2b","FO2016_e2b_15","disposition",1,"Aloud",6,2010,"Include",134
"FO2016_e2b","FO2016_e2b_15","pupil",1,"Aloud",6,810,"Include",135
"FO2016_e2b","FO2016_e2b_15","moment",0,"Aloud",4,2866,"Include",136
"FO2016_e2b","FO2016_e2b_15","creature",0,"Aloud",1,1330,"Include",137
"FO2016_e2b","FO2016_e2b_15","picture",0,"Aloud",1,858,"Include",138
"FO2016_e2b","FO2016_e2b_15","love",0,"Aloud",1,930,"Include",139
"FO2016_e2b","FO2016_e2b_15","journal",0,"Aloud",1,1458,"Include",140
"FO2016_e2b","FO2016_e2b_15","chin",0,"Aloud",1,2202,"Include",141
"FO2016_e2b","FO2016_e2b_15","robber",0,"Aloud",2,3602,"Include",142
"FO2016_e2b","FO2016_e2b_15","honour",0,"Aloud",1,786,"Include",143
"FO2016_e2b","FO2016_e2b_15","affection",1,"Aloud",6,1610,"Include",144
"FO2016_e2b","FO2016_e2b_15","attribute",0,"Aloud",6,1402,"Include",145
"FO2016_e2b","FO2016_e2b_15","railroad",0,"Aloud",1,1074,"Include",146
"FO2016_e2b","FO2016_e2b_15","tower",1,"Aloud",1,842,"Include",147
"FO2016_e2b","FO2016_e2b_15","hatred",0,"Aloud",1,930,"Include",148
"FO2016_e2b","FO2016_e2b_15","dirt",0,"Aloud",1,794,"Include",149
"FO2016_e2b","FO2016_e2b_15","inhabitant",0,"Aloud",1,1050,"Include",150
"FO2016_e2b","FO2016_e2b_15","baron",0,"Aloud",1,1346,"Include",151
"FO2016_e2b","FO2016_e2b_15","sensation",0,"Aloud",1,738,"Include",152
"FO2016_e2b","FO2016_e2b_15","assault",1,"Aloud",2,2714,"Include",153
"FO2016_e2b","FO2016_e2b_15","impulse",0,"Aloud",1,2746,"Include",154
"FO2016_e2b","FO2016_e2b_15","time",0,"Aloud",3,2874,"Include",155
"FO2016_e2b","FO2016_e2b_15","sea",0,"Aloud",1,746,"Include",156
"FO2016_e2b","FO2016_e2b_15","intellect",1,"Aloud",5,1666,"Include",157
"FO2016_e2b","FO2016_e2b_15","cellar",1,"Aloud",6,3290,"Include",158
"FO2016_e2b","FO2016_e2b_15","salute",0,"Aloud",1,1130,"Include",159
"FO2016_e2b","FO2016_e2b_15","virtue",0,"Aloud",1,762,"Include",160
"FO2016_e2b","FO2016_e2b_15","harness",1,"Aloud",3,2586,"Include",161
"FO2016_e2b","FO2016_e2b_15","hammer",1,"Aloud",6,1458,"Include",162
"FO2016_e2b","FO2016_e2b_15","wine",0,"Aloud",1,1178,"Include",163
"FO2016_e2b","FO2016_e2b_15","ticket",0,"Aloud",1,1018,"Include",164
"FO2016_e2b","FO2016_e2b_15","thief",0,"Aloud",1,1362,"Include",165
"FO2016_e2b","FO2016_e2b_15","anxiety",1,"Aloud",6,1298,"Include",166
"FO2016_e2b","FO2016_e2b_15","effort",0,"Aloud",1,1682,"Include",167
"FO2016_e2b","FO2016_e2b_15","charter",1,"Aloud",5,1922,"Include",168
"FO2016_e2b","FO2016_e2b_15","bosom",1,"Aloud",6,1178,"Include",169
"FO2016_e2b","FO2016_e2b_15","weapon",1,"Aloud",1,954,"Include",170
"FO2016_e2b","FO2016_e2b_15","fisherman",0,"Aloud",1,834,"Include",171
"FO2016_e2b","FO2016_e2b_15","menace",1,"Aloud",6,1362,"Include",172
"FO2016_e2b","FO2016_e2b_15","beaver",1,"Aloud",6,706,"Include",173
"FO2016_e2b","FO2016_e2b_15","river",0,"Aloud",4,3154,"Include",174
"FO2016_e2b","FO2016_e2b_15","party",1,"Aloud",6,986,"Include",175
"FO2016_e2b","FO2016_e2b_15","toast",1,"Aloud",1,1592,"Include",176
"FO2016_e2b","FO2016_e2b_15","tomb",0,"Aloud",1,826,"Include",177
"FO2016_e2b","FO2016_e2b_15","steam",1,"Aloud",2,2138,"Include",178
"FO2016_e2b","FO2016_e2b_15","leader",1,"Aloud",5,1994,"Include",179
"FO2016_e2b","FO2016_e2b_15","amount",1,"Aloud",6,1162,"Include",180
"FO2016_e2b","FO2016_e2b_15","arm",0,"Aloud",1,2354,"Include",181
"FO2016_e2b","FO2016_e2b_15","fork",1,"Aloud",1,1138,"Include",182
"FO2016_e2b","FO2016_e2b_15","wheat",1,"Aloud",6,1090,"Include",183
"FO2016_e2b","FO2016_e2b_15","murder",0,"Aloud",4,3882,"Include",184
"FO2016_e2b","FO2016_e2b_15","foam",1,"Aloud",6,1314,"Include",185
"FO2016_e2b","FO2016_e2b_15","speech",0,"Aloud",1,1226,"Include",186
"FO2016_e2b","FO2016_e2b_15","vapour",0,"Aloud",1,1634,"Include",187
"FO2016_e2b","FO2016_e2b_15","tablespoon",1,"Aloud",6,722,"Include",188
"FO2016_e2b","FO2016_e2b_15","idea",0,"Aloud",6,1130,"Include",189
"FO2016_e2b","FO2016_e2b_15","shadow",0,"Aloud",1,1834,"Include",190
"FO2016_e2b","FO2016_e2b_15","shame",0,"Aloud",2,2082,"Include",191
"FO2016_e2b","FO2016_e2b_15","hint",0,"Aloud",1,4026,"Include",192
"FO2016_e2b","FO2016_e2b_15","appearance",0,"Aloud",5,2290,"Include",193
"FO2016_e2b","FO2016_e2b_15","spray",1,"Aloud",6,1042,"Include",194
"FO2016_e2b","FO2016_e2b_15","sunset",1,"Aloud",6,1042,"Include",195
"FO2016_e2b","FO2016_e2b_15","comrade",0,"Aloud",1,2178,"Include",196
"FO2016_e2b","FO2016_e2b_15","army",0,"Aloud",1,1154,"Include",197
"FO2016_e2b","FO2016_e2b_15","plain",1,"Aloud",6,2954,"Include",198
"FO2016_e2b","FO2016_e2b_15","science",0,"Aloud",1,1866,"Include",199
"FO2016_e2b","FO2016_e2b_15","city",0,"Aloud",1,1146,"Include",200
"FO2016_e2b","FO2016_e2b_15","custom",1,"Aloud",4,4802,"Include",201
"FO2016_e2b","FO2016_e2b_15","capacity",0,"Aloud",6,1178,"Include",202
"FO2016_e2b","FO2016_e2b_15","string",0,"Aloud",1,1554,"Include",203
"FO2016_e2b","FO2016_e2b_15","garden",1,"Aloud",6,1306,"Include",204
"FO2016_e2b","FO2016_e2b_15","headquarters",0,"Aloud",4,3162,"Include",205
"FO2016_e2b","FO2016_e2b_15","series",0,"Aloud",1,1554,"Include",206
"FO2016_e2b","FO2016_e2b_15","vision",1,"Aloud",5,3090,"Include",207
"FO2016_e2b","FO2016_e2b_15","prison",1,"Aloud",6,1794,"Include",208
"FO2016_e2b","FO2016_e2b_15","substitute",0,"Aloud",5,2930,"Include",209
"FO2016_e2b","FO2016_e2b_15","product",1,"Aloud",2,1714,"Include",210
"FO2016_e2b","FO2016_e2b_15","cotton",0,"Aloud",1,1234,"Include",211
"FO2016_e2b","FO2016_e2b_15","misery",1,"Aloud",6,1498,"Include",212
"FO2016_e2b","FO2016_e2b_15","marriage",1,"Aloud",6,778,"Include",213
"FO2016_e2b","FO2016_e2b_15","diamond",1,"Aloud",6,978,"Include",214
"FO2016_e2b","FO2016_e2b_15","ability",1,"Aloud",4,1754,"Include",215
"FO2016_e2b","FO2016_e2b_15","confidence",1,"Aloud",4,3522,"Include",216
"FO2016_e2b","FO2016_e2b_15","prayer",1,"Aloud",6,1346,"Include",217
"FO2016_e2b","FO2016_e2b_15","butter",0,"Aloud",1,1586,"Include",218
"FO2016_e2b","FO2016_e2b_15","justice",0,"Aloud",1,4458,"Include",219
"FO2016_e2b","FO2016_e2b_15","lark",0,"Aloud",1,978,"Include",220
"FO2016_e2b","FO2016_e2b_15","costume",1,"Aloud",6,1410,"Include",221
"FO2016_e2b","FO2016_e2b_15","quality",1,"Aloud",4,2114,"Include",222
"FO2016_e2b","FO2016_e2b_15","person",0,"Aloud",1,1250,"Include",223
"FO2016_e2b","FO2016_e2b_15","slave",0,"Aloud",1,914,"Include",224
"FO2016_e2b","FO2016_e2b_15","poetry",1,"Aloud",6,1522,"Include",225
"FO2016_e2b","FO2016_e2b_15","master",1,"Aloud",6,4642,"Include",226
"FO2016_e2b","FO2016_e2b_15","code",0,"Aloud",2,1738,"Include",227
"FO2016_e2b","FO2016_e2b_15","winter",0,"Aloud",1,2010,"Include",228
"FO2016_e2b","FO2016_e2b_15","circuit",0,"Aloud",3,3210,"Include",229
"FO2016_e2b","FO2016_e2b_15","death",1,"Aloud",6,1298,"Include",230
"FO2016_e2b","FO2016_e2b_15","duty",1,"Aloud",1,1013,"Include",231
"FO2016_e2b","FO2016_e2b_15","metal",0,"Aloud",1,1010,"Include",232
"FO2016_e2b","FO2016_e2b_15","brain",1,"Aloud",3,1922,"Include",233
"FO2016_e2b","FO2016_e2b_15","mercy",0,"Aloud",2,3722,"Include",234
"FO2016_e2b","FO2016_e2b_15","disease",1,"Aloud",2,4690,"Include",235
"FO2016_e2b","FO2016_e2b_15","stone",1,"Aloud",1,1186,"Include",236
"FO2016_e2b","FO2016_e2b_15","meeting",0,"Aloud",1,1618,"Include",237
"FO2016_e2b","FO2016_e2b_15","oven",0,"Aloud",1,986,"Include",238
"FO2016_e2b","FO2016_e2b_16","fire",0,"Silent",4,3282,"Include",1
"FO2016_e2b","FO2016_e2b_16","corner",1,"Silent",4,2218,"Include",2
"FO2016_e2b","FO2016_e2b_16","duty",0,"Silent",3,1490,"Include",3
"FO2016_e2b","FO2016_e2b_16","captive",0,"Silent",2,1834,"Include",4
"FO2016_e2b","FO2016_e2b_16","excuse",1,"Silent",2,7250,"Include",5
"FO2016_e2b","FO2016_e2b_16","hammer",1,"Silent",4,1962,"Include",6
"FO2016_e2b","FO2016_e2b_16","comrade",0,"Silent",2,2842,"Include",7
"FO2016_e2b","FO2016_e2b_16","harness",0,"Silent",2,2106,"Include",8
"FO2016_e2b","FO2016_e2b_16","army",0,"Silent",5,1794,"Include",9
"FO2016_e2b","FO2016_e2b_16","thorn",0,"Silent",4,1410,"Include",10
"FO2016_e2b","FO2016_e2b_16","moss",1,"Silent",3,2370,"Include",11
"FO2016_e2b","FO2016_e2b_16","chin",1,"Silent",2,1994,"Include",12
"FO2016_e2b","FO2016_e2b_16","competition",1,"Silent",4,1682,"Include",13
"FO2016_e2b","FO2016_e2b_16","horse",1,"Silent",2,5546,"Include",14
"FO2016_e2b","FO2016_e2b_16","product",0,"Silent",3,1482,"Include",15
"FO2016_e2b","FO2016_e2b_16","science",0,"Silent",3,1266,"Include",16
"FO2016_e2b","FO2016_e2b_16","spray",1,"Silent",4,1938,"Include",17
"FO2016_e2b","FO2016_e2b_16","time",0,"Silent",4,2098,"Include",18
"FO2016_e2b","FO2016_e2b_16","idea",1,"Silent",4,1074,"Include",19
"FO2016_e2b","FO2016_e2b_16","cat",0,"Silent",4,1218,"Include",20
"FO2016_e2b","FO2016_e2b_16","grandmother",1,"Silent",1,1330,"Include",21
"FO2016_e2b","FO2016_e2b_16","instance",0,"Silent",2,1058,"Include",22
"FO2016_e2b","FO2016_e2b_16","death",0,"Silent",3,4594,"Include",23
"FO2016_e2b","FO2016_e2b_16","victim",1,"Silent",4,1234,"Include",24
"FO2016_e2b","FO2016_e2b_16","form",0,"Silent",3,1538,"Include",25
"FO2016_e2b","FO2016_e2b_16","impulse",1,"Silent",5,2338,"Include",26
"FO2016_e2b","FO2016_e2b_16","iron",1,"Silent",6,1610,"Include",27
"FO2016_e2b","FO2016_e2b_16","material",0,"Silent",3,1554,"Include",28
