"exp","id","trial","isold","condition1","rating","RT","excluding"
"HUW2015_e1","HUW2015_e1_26",1,0,"JudgeOldness",2,1637.382495,"Include"
"HUW2015_e1","HUW2015_e1_26",2,1,"JudgeOldness",3,1746.629722,"Include"
"HUW2015_e1","HUW2015_e1_26",3,0,"JudgeOldness",3,1577.067221,"Include"
"HUW2015_e1","HUW2015_e1_26",4,1,"JudgeOldness",2,1926.720875,"Include"
"HUW2015_e1","HUW2015_e1_26",5,1,"JudgeOldness",2,1341.02332,"Include"
"HUW2015_e1","HUW2015_e1_26",6,0,"JudgeOldness",2,1219.733203,"Include"
"HUW2015_e1","HUW2015_e1_26",7,0,"JudgeOldness",4,2242.654664,"Include"
"HUW2015_e1","HUW2015_e1_26",8,1,"JudgeOldness",5,1671.837661,"Include"
"HUW2015_e1","HUW2015_e1_26",9,1,"JudgeOldness",5,1580.205211,"Include"
"HUW2015_e1","HUW2015_e1_26",10,1,"JudgeOldness",4,2315.374742,"Include"
"HUW2015_e1","HUW2015_e1_26",11,0,"JudgeOldness",2,1784.387992,"Include"
"HUW2015_e1","HUW2015_e1_26",12,1,"JudgeOldness",1,2247.230327,"Include"
"HUW2015_e1","HUW2015_e1_26",13,1,"JudgeOldness",5,1365.620248,"Include"
"HUW2015_e1","HUW2015_e1_26",14,0,"JudgeOldness",1,2738.187113,"Include"
"HUW2015_e1","HUW2015_e1_26",15,0,"JudgeOldness",5,1567.773154,"Include"
"HUW2015_e1","HUW2015_e1_26",16,0,"JudgeOldness",1,1676.14324,"Include"
"HUW2015_e1","HUW2015_e1_26",17,1,"JudgeOldness",5,922.470589,"Include"
"HUW2015_e1","HUW2015_e1_26",18,0,"JudgeOldness",3,2193.117338,"Include"
"HUW2015_e1","HUW2015_e1_26",19,0,"JudgeOldness",1,1395.92909,"Include"
"HUW2015_e1","HUW2015_e1_26",20,0,"JudgeOldness",5,1482.252121,"Include"
"HUW2015_e1","HUW2015_e1_26",21,1,"JudgeOldness",1,1350.90977,"Include"
"HUW2015_e1","HUW2015_e1_26",22,0,"JudgeOldness",2,1894.045885,"Include"
"HUW2015_e1","HUW2015_e1_26",23,1,"JudgeOldness",4,1994.138972,"Include"
"HUW2015_e1","HUW2015_e1_26",24,1,"JudgeOldness",3,2086.195565,"Include"
"HUW2015_e1","HUW2015_e1_26",25,0,"JudgeOldness",1,1316.774471,"Include"
"HUW2015_e1","HUW2015_e1_26",26,1,"JudgeOldness",4,2810.082296,"Include"
"HUW2015_e1","HUW2015_e1_26",27,1,"JudgeOldness",5,2560.652924,"Include"
"HUW2015_e1","HUW2015_e1_26",28,1,"JudgeOldness",3,2709.292464,"Include"
"HUW2015_e1","HUW2015_e1_26",29,0,"JudgeOldness",1,2492.670756,"Include"
"HUW2015_e1","HUW2015_e1_26",30,1,"JudgeOldness",5,1425.5334,"Include"
"HUW2015_e1","HUW2015_e1_26",31,1,"JudgeOldness",5,967.703457,"Include"
"HUW2015_e1","HUW2015_e1_26",32,0,"JudgeOldness",1,2077.178459,"Include"
"HUW2015_e1","HUW2015_e1_26",33,1,"JudgeOldness",5,1857.693428,"Include"
"HUW2015_e1","HUW2015_e1_26",34,1,"JudgeOldness",2,1815.199624,"Include"
"HUW2015_e1","HUW2015_e1_26",35,0,"JudgeOldness",1,2933.86189,"Include"
"HUW2015_e1","HUW2015_e1_26",36,1,"JudgeOldness",1,1474.805557,"Include"
"HUW2015_e1","HUW2015_e1_26",37,1,"JudgeOldness",5,1487.604474,"Include"
"HUW2015_e1","HUW2015_e1_26",38,0,"JudgeOldness",2,2477.907972,"Include"
"HUW2015_e1","HUW2015_e1_26",39,1,"JudgeOldness",2,2124.333163,"Include"
"HUW2015_e1","HUW2015_e1_26",40,0,"JudgeOldness",4,2248.575139,"Include"
"HUW2015_e1","HUW2015_e1_26",41,0,"JudgeOldness",1,2213.034348,"Include"
"HUW2015_e1","HUW2015_e1_26",42,1,"JudgeOldness",4,2153.149173,"Include"
"HUW2015_e1","HUW2015_e1_26",43,1,"JudgeOldness",5,2816.384088,"Include"
"HUW2015_e1","HUW2015_e1_26",44,1,"JudgeOldness",4,1854.561594,"Include"
"HUW2015_e1","HUW2015_e1_26",45,1,"JudgeOldness",5,1525.183979,"Include"
"HUW2015_e1","HUW2015_e1_26",46,0,"JudgeOldness",1,2255.644112,"Include"
"HUW2015_e1","HUW2015_e1_26",47,0,"JudgeOldness",2,1734.588925,"Include"
"HUW2015_e1","HUW2015_e1_26",48,1,"JudgeOldness",1,2539.993929,"Include"
"HUW2015_e1","HUW2015_e1_26",49,0,"JudgeOldness",1,1618.876151,"Include"
"HUW2015_e1","HUW2015_e1_26",50,0,"JudgeOldness",5,2414.67725,"Include"
"HUW2015_e1","HUW2015_e1_26",51,0,"JudgeOldness",1,1923.643739,"Include"
"HUW2015_e1","HUW2015_e1_26",52,0,"JudgeOldness",1,1576.092772,"Include"
"HUW2015_e1","HUW2015_e1_26",53,1,"JudgeOldness",3,2830.377279,"Include"
"HUW2015_e1","HUW2015_e1_26",54,1,"JudgeOldness",3,1939.335676,"Include"
"HUW2015_e1","HUW2015_e1_26",55,0,"JudgeOldness",1,1416.87485,"Include"
"HUW2015_e1","HUW2015_e1_26",56,1,"JudgeOldness",5,1743.253255,"Include"
"HUW2015_e1","HUW2015_e1_26",57,0,"JudgeOldness",3,1957.534502,"Include"
"HUW2015_e1","HUW2015_e1_26",58,0,"JudgeOldness",2,1435.791656,"Include"
"HUW2015_e1","HUW2015_e1_26",59,0,"JudgeOldness",2,1553.719468,"Include"
"HUW2015_e1","HUW2015_e1_26",60,0,"JudgeOldness",2,1639.822117,"Include"
"HUW2015_e1","HUW2015_e1_26",61,0,"JudgeOldness",2,2152.290016,"Include"
"HUW2015_e1","HUW2015_e1_26",62,1,"JudgeOldness",4,1918.594931,"Include"
"HUW2015_e1","HUW2015_e1_26",63,1,"JudgeOldness",5,1498.326697,"Include"
"HUW2015_e1","HUW2015_e1_26",64,1,"JudgeOldness",3,2528.933236,"Include"
"HUW2015_e1","HUW2015_e1_26",65,1,"JudgeOldness",4,1895.131392,"Include"
"HUW2015_e1","HUW2015_e1_26",66,1,"JudgeOldness",5,3078.282002,"Include"
"HUW2015_e1","HUW2015_e1_26",67,1,"JudgeOldness",5,1338.179147,"Include"
"HUW2015_e1","HUW2015_e1_26",68,1,"JudgeOldness",2,1330.68768,"Include"
"HUW2015_e1","HUW2015_e1_26",69,1,"JudgeOldness",5,1222.593718,"Include"
"HUW2015_e1","HUW2015_e1_26",70,1,"JudgeOldness",4,2780.345103,"Include"
"HUW2015_e1","HUW2015_e1_26",71,1,"JudgeOldness",5,1899.467305,"Include"
"HUW2015_e1","HUW2015_e1_26",72,0,"JudgeOldness",1,1450.191174,"Include"
"HUW2015_e1","HUW2015_e1_26",73,0,"JudgeOldness",1,1505.110983,"Include"
"HUW2015_e1","HUW2015_e1_26",74,0,"JudgeOldness",1,1436.915389,"Include"
"HUW2015_e1","HUW2015_e1_26",75,0,"JudgeOldness",1,2576.587143,"Include"
"HUW2015_e1","HUW2015_e1_26",76,1,"JudgeOldness",4,2894.020051,"Include"
"HUW2015_e1","HUW2015_e1_26",77,0,"JudgeOldness",2,2035.389795,"Include"
"HUW2015_e1","HUW2015_e1_26",78,1,"JudgeOldness",4,2487.216152,"Include"
"HUW2015_e1","HUW2015_e1_26",79,1,"JudgeOldness",5,2347.931359,"Include"
"HUW2015_e1","HUW2015_e1_26",80,0,"JudgeOldness",1,2794.276517,"Include"
"HUW2015_e1","HUW2015_e1_26",81,0,"JudgeOldness",1,2095.898715,"Include"
"HUW2015_e1","HUW2015_e1_26",82,1,"JudgeOldness",1,1397.979264,"Include"
"HUW2015_e1","HUW2015_e1_26",83,1,"JudgeOldness",5,1316.605583,"Include"
"HUW2015_e1","HUW2015_e1_26",84,0,"JudgeOldness",3,3049.629427,"Include"
"HUW2015_e1","HUW2015_e1_26",85,0,"JudgeOldness",3,3096.155778,"Include"
"HUW2015_e1","HUW2015_e1_26",86,0,"JudgeOldness",1,1350.012688,"Include"
"HUW2015_e1","HUW2015_e1_26",87,1,"JudgeOldness",5,1788.175776,"Include"
"HUW2015_e1","HUW2015_e1_26",88,0,"JudgeOldness",2,2472.650346,"Include"
"HUW2015_e1","HUW2015_e1_26",89,0,"JudgeOldness",1,1415.562307,"Include"
"HUW2015_e1","HUW2015_e1_26",90,0,"JudgeOldness",2,2499.519151,"Include"
"HUW2015_e1","HUW2015_e1_26",91,1,"JudgeOldness",1,1274.606316,"Include"
"HUW2015_e1","HUW2015_e1_26",92,0,"JudgeOldness",1,2919.356483,"Include"
"HUW2015_e1","HUW2015_e1_26",93,1,"JudgeOldness",5,1958.260245,"Include"
"HUW2015_e1","HUW2015_e1_26",94,0,"JudgeOldness",5,1316.024016,"Include"
"HUW2015_e1","HUW2015_e1_26",95,1,"JudgeOldness",5,1362.461958,"Include"
"HUW2015_e1","HUW2015_e1_26",96,0,"JudgeOldness",5,1389.059018,"Include"
"HUW2015_e1","HUW2015_e1_26",97,1,"JudgeOldness",5,1562.806006,"Include"
"HUW2015_e1","HUW2015_e1_26",98,0,"JudgeOldness",1,1346.25868,"Include"
"HUW2015_e1","HUW2015_e1_26",99,0,"JudgeOldness",3,2192.569044,"Include"
"HUW2015_e1","HUW2015_e1_26",100,0,"JudgeOldness",2,2227.679477,"Include"
"HUW2015_e1","HUW2015_e1_26",101,0,"JudgeOldness",2,1915.136724,"Include"
"HUW2015_e1","HUW2015_e1_26",102,1,"JudgeOldness",1,2432.843139,"Include"
"HUW2015_e1","HUW2015_e1_26",103,1,"JudgeOldness",1,1336.879457,"Include"
"HUW2015_e1","HUW2015_e1_26",104,0,"JudgeOldness",4,2034.65462,"Include"
"HUW2015_e1","HUW2015_e1_26",105,0,"JudgeOldness",4,2040.695845,"Include"
"HUW2015_e1","HUW2015_e1_26",106,0,"JudgeOldness",3,1438.697726,"Include"
"HUW2015_e1","HUW2015_e1_26",107,1,"JudgeOldness",5,2457.966675,"Include"
"HUW2015_e1","HUW2015_e1_26",108,0,"JudgeOldness",5,1408.847035,"Include"
"HUW2015_e1","HUW2015_e1_26",109,1,"JudgeOldness",2,2079.692911,"Include"
"HUW2015_e1","HUW2015_e1_26",110,0,"JudgeOldness",1,1331.852764,"Include"
"HUW2015_e1","HUW2015_e1_26",111,1,"JudgeOldness",1,1939.116898,"Include"
"HUW2015_e1","HUW2015_e1_26",112,0,"JudgeOldness",1,1944.591993,"Include"
"HUW2015_e1","HUW2015_e1_26",113,0,"JudgeOldness",3,1558.109677,"Include"
"HUW2015_e1","HUW2015_e1_26",114,0,"JudgeOldness",2,1994.317941,"Include"
"HUW2015_e1","HUW2015_e1_26",115,1,"JudgeOldness",5,1624.198186,"Include"
"HUW2015_e1","HUW2015_e1_26",116,0,"JudgeOldness",1,2582.672924,"Include"
"HUW2015_e1","HUW2015_e1_26",117,1,"JudgeOldness",2,2093.004795,"Include"
"HUW2015_e1","HUW2015_e1_26",118,1,"JudgeOldness",5,1881.182762,"Include"
"HUW2015_e1","HUW2015_e1_26",119,1,"JudgeOldness",4,1725.891321,"Include"
"HUW2015_e1","HUW2015_e1_26",120,1,"JudgeOldness",3,1620.110622,"Include"
"HUW2015_e1","HUW2015_e1_26",121,0,"JudgeOldness",2,2024.844594,"Include"
"HUW2015_e1","HUW2015_e1_26",122,0,"JudgeOldness",2,1543.490742,"Include"
"HUW2015_e1","HUW2015_e1_26",123,0,"JudgeOldness",3,1923.748787,"Include"
"HUW2015_e1","HUW2015_e1_26",124,1,"JudgeOldness",5,1426.478282,"Include"
"HUW2015_e1","HUW2015_e1_26",125,1,"JudgeOldness",4,2904.400804,"Include"
"HUW2015_e1","HUW2015_e1_26",126,1,"JudgeOldness",5,2228.824565,"Include"
"HUW2015_e1","HUW2015_e1_26",127,0,"JudgeOldness",4,2308.350833,"Include"
"HUW2015_e1","HUW2015_e1_26",128,0,"JudgeOldness",1,1602.495093,"Include"
"HUW2015_e1","HUW2015_e1_26",129,0,"JudgeOldness",2,1568.166521,"Include"
"HUW2015_e1","HUW2015_e1_26",130,1,"JudgeOldness",3,2381.113279,"Include"
"HUW2015_e1","HUW2015_e1_26",131,1,"JudgeOldness",5,1434.99177,"Include"
"HUW2015_e1","HUW2015_e1_26",132,0,"JudgeOldness",1,2056.317083,"Include"
"HUW2015_e1","HUW2015_e1_26",133,0,"JudgeOldness",4,1829.571711,"Include"
"HUW2015_e1","HUW2015_e1_26",134,0,"JudgeOldness",4,2532.071685,"Include"
"HUW2015_e1","HUW2015_e1_26",135,1,"JudgeOldness",1,1929.770843,"Include"
"HUW2015_e1","HUW2015_e1_26",136,0,"JudgeOldness",2,1536.071132,"Include"
"HUW2015_e1","HUW2015_e1_26",137,0,"JudgeOldness",2,1318.781646,"Include"
"HUW2015_e1","HUW2015_e1_26",138,0,"JudgeOldness",3,1396.368542,"Include"
"HUW2015_e1","HUW2015_e1_26",139,0,"JudgeOldness",1,1802.253723,"Include"
"HUW2015_e1","HUW2015_e1_26",140,1,"JudgeOldness",4,1728.270806,"Include"
"HUW2015_e1","HUW2015_e1_26",141,0,"JudgeOldness",3,1197.503742,"Include"
"HUW2015_e1","HUW2015_e1_26",142,1,"JudgeOldness",3,2946.901865,"Include"
"HUW2015_e1","HUW2015_e1_26",143,0,"JudgeOldness",NA,0,"Exclude"
"HUW2015_e1","HUW2015_e1_26",144,0,"JudgeOldness",3,2933.148603,"Include"
"HUW2015_e1","HUW2015_e1_26",145,0,"JudgeOldness",2,1547.231557,"Include"
"HUW2015_e1","HUW2015_e1_26",146,1,"JudgeOldness",5,1239.610843,"Include"
"HUW2015_e1","HUW2015_e1_26",147,1,"JudgeOldness",5,1382.732724,"Include"
"HUW2015_e1","HUW2015_e1_26",148,0,"JudgeOldness",4,3043.815228,"Include"
"HUW2015_e1","HUW2015_e1_26",149,0,"JudgeOldness",2,2298.642966,"Include"
"HUW2015_e1","HUW2015_e1_26",150,0,"JudgeOldness",4,2062.3585,"Include"
"HUW2015_e1","HUW2015_e1_26",151,1,"JudgeOldness",3,2178.507158,"Include"
"HUW2015_e1","HUW2015_e1_26",152,1,"JudgeOldness",5,2134.887016,"Include"
"HUW2015_e1","HUW2015_e1_26",153,1,"JudgeOldness",3,2246.03343,"Include"
"HUW2015_e1","HUW2015_e1_26",154,1,"JudgeOldness",2,2132.362074,"Include"
"HUW2015_e1","HUW2015_e1_26",155,0,"JudgeOldness",2,2695.130719,"Include"
"HUW2015_e1","HUW2015_e1_26",156,1,"JudgeOldness",5,1189.236366,"Include"
"HUW2015_e1","HUW2015_e1_26",157,1,"JudgeOldness",4,1612.471277,"Include"
"HUW2015_e1","HUW2015_e1_26",158,1,"JudgeOldness",2,1362.045932,"Include"
"HUW2015_e1","HUW2015_e1_26",159,1,"JudgeOldness",5,1369.003246,"Include"
"HUW2015_e1","HUW2015_e1_26",160,1,"JudgeOldness",4,2383.280019,"Include"
"HUW2015_e1","HUW2015_e1_26",161,0,"JudgeOldness",4,2115.23237,"Include"
"HUW2015_e1","HUW2015_e1_26",162,0,"JudgeOldness",1,2928.450105,"Include"
"HUW2015_e1","HUW2015_e1_26",163,1,"JudgeOldness",5,1292.738444,"Include"
"HUW2015_e1","HUW2015_e1_26",164,0,"JudgeOldness",1,1371.680838,"Include"
"HUW2015_e1","HUW2015_e1_26",165,0,"JudgeOldness",1,1559.783507,"Include"
"HUW2015_e1","HUW2015_e1_26",166,1,"JudgeOldness",4,3173.219397,"Include"
"HUW2015_e1","HUW2015_e1_26",167,1,"JudgeOldness",5,1305.980861,"Include"
"HUW2015_e1","HUW2015_e1_26",168,1,"JudgeOldness",5,1527.607005,"Include"
"HUW2015_e1","HUW2015_e1_26",169,1,"JudgeOldness",5,1741.077056,"Include"
"HUW2015_e1","HUW2015_e1_26",170,0,"JudgeOldness",2,2043.721554,"Include"
"HUW2015_e1","HUW2015_e1_26",171,0,"JudgeOldness",2,1751.930067,"Include"
"HUW2015_e1","HUW2015_e1_26",172,1,"JudgeOldness",1,1774.893135,"Include"
"HUW2015_e1","HUW2015_e1_26",173,1,"JudgeOldness",4,3196.034652,"Include"
"HUW2015_e1","HUW2015_e1_26",174,0,"JudgeOldness",3,3018.57344,"Include"
"HUW2015_e1","HUW2015_e1_26",175,1,"JudgeOldness",3,1329.18767,"Include"
"HUW2015_e1","HUW2015_e1_26",176,1,"JudgeOldness",3,1911.520642,"Include"
"HUW2015_e1","HUW2015_e1_26",177,1,"JudgeOldness",4,1148.357639,"Include"
"HUW2015_e1","HUW2015_e1_26",178,0,"JudgeOldness",3,3311.762881,"Include"
"HUW2015_e1","HUW2015_e1_26",179,1,"JudgeOldness",2,1726.334414,"Include"
"HUW2015_e1","HUW2015_e1_26",180,0,"JudgeOldness",4,3795.911276,"Include"
"HUW2015_e1","HUW2015_e1_26",181,0,"JudgeOldness",1,2405.835059,"Include"
"HUW2015_e1","HUW2015_e1_26",182,0,"JudgeOldness",1,1484.007692,"Include"
"HUW2015_e1","HUW2015_e1_26",183,1,"JudgeOldness",1,1721.380509,"Include"
"HUW2015_e1","HUW2015_e1_26",184,0,"JudgeOldness",5,1645.462884,"Include"
"HUW2015_e1","HUW2015_e1_26",185,0,"JudgeOldness",3,2018.369992,"Include"
"HUW2015_e1","HUW2015_e1_26",186,0,"JudgeOldness",5,1438.908074,"Include"
"HUW2015_e1","HUW2015_e1_26",187,0,"JudgeOldness",5,1491.113303,"Include"
"HUW2015_e1","HUW2015_e1_26",188,0,"JudgeOldness",1,1368.93152,"Include"
"HUW2015_e1","HUW2015_e1_26",189,0,"JudgeOldness",1,1527.296123,"Include"
"HUW2015_e1","HUW2015_e1_26",190,0,"JudgeOldness",1,1748.427356,"Include"
"HUW2015_e1","HUW2015_e1_26",191,1,"JudgeOldness",5,2395.006575,"Include"
"HUW2015_e1","HUW2015_e1_26",192,0,"JudgeOldness",2,2697.569073,"Include"
"HUW2015_e1","HUW2015_e1_26",193,0,"JudgeOldness",3,1758.998392,"Include"
"HUW2015_e1","HUW2015_e1_26",194,1,"JudgeOldness",5,1644.327053,"Include"
"HUW2015_e1","HUW2015_e1_26",195,0,"JudgeOldness",2,2561.389796,"Include"
"HUW2015_e1","HUW2015_e1_26",196,0,"JudgeOldness",3,1855.580798,"Include"
"HUW2015_e1","HUW2015_e1_26",197,1,"JudgeOldness",3,2526.365363,"Include"
"HUW2015_e1","HUW2015_e1_26",198,0,"JudgeOldness",4,1540.147894,"Include"
"HUW2015_e1","HUW2015_e1_26",199,1,"JudgeOldness",4,2354.346061,"Include"
"HUW2015_e1","HUW2015_e1_26",200,0,"JudgeOldness",2,2512.283193,"Include"
"HUW2015_e1","HUW2015_e1_26",201,0,"JudgeOldness",1,1630.519065,"Include"
"HUW2015_e1","HUW2015_e1_26",202,1,"JudgeOldness",5,1859.67399,"Include"
"HUW2015_e1","HUW2015_e1_26",203,0,"JudgeOldness",4,1993.530101,"Include"
"HUW2015_e1","HUW2015_e1_26",204,0,"JudgeOldness",5,1670.861428,"Include"
"HUW2015_e1","HUW2015_e1_26",205,1,"JudgeOldness",5,1325.307425,"Include"
"HUW2015_e1","HUW2015_e1_26",206,0,"JudgeOldness",4,2001.157333,"Include"
"HUW2015_e1","HUW2015_e1_26",207,0,"JudgeOldness",4,1663.62487,"Include"
"HUW2015_e1","HUW2015_e1_26",208,0,"JudgeOldness",1,2493.450455,"Include"
"HUW2015_e1","HUW2015_e1_26",209,1,"JudgeOldness",5,1979.196093,"Include"
"HUW2015_e1","HUW2015_e1_26",210,1,"JudgeOldness",4,3304.935173,"Include"
"HUW2015_e1","HUW2015_e1_26",211,1,"JudgeOldness",4,1644.84065,"Include"
"HUW2015_e1","HUW2015_e1_26",212,0,"JudgeOldness",4,1610.598816,"Include"
"HUW2015_e1","HUW2015_e1_26",213,1,"JudgeOldness",5,1353.073269,"Include"
"HUW2015_e1","HUW2015_e1_26",214,0,"JudgeOldness",1,1501.661377,"Include"
"HUW2015_e1","HUW2015_e1_26",215,0,"JudgeOldness",1,2283.193218,"Include"
"HUW2015_e1","HUW2015_e1_26",216,1,"JudgeOldness",5,2158.453974,"Include"
"HUW2015_e1","HUW2015_e1_26",217,1,"JudgeOldness",4,1357.241846,"Include"
"HUW2015_e1","HUW2015_e1_26",218,0,"JudgeOldness",2,1874.721189,"Include"
"HUW2015_e1","HUW2015_e1_26",219,1,"JudgeOldness",5,2082.160416,"Include"
"HUW2015_e1","HUW2015_e1_26",220,1,"JudgeOldness",5,1351.487303,"Include"
"HUW2015_e1","HUW2015_e1_26",221,0,"JudgeOldness",2,1933.137716,"Include"
"HUW2015_e1","HUW2015_e1_26",222,0,"JudgeOldness",3,1632.769492,"Include"
"HUW2015_e1","HUW2015_e1_26",223,1,"JudgeOldness",5,1806.536875,"Include"
"HUW2015_e1","HUW2015_e1_26",224,1,"JudgeOldness",5,1811.607588,"Include"
"HUW2015_e1","HUW2015_e1_26",225,1,"JudgeOldness",5,1465.157893,"Include"
"HUW2015_e1","HUW2015_e1_26",226,0,"JudgeOldness",4,1984.118803,"Include"
"HUW2015_e1","HUW2015_e1_26",227,1,"JudgeOldness",3,2275.594261,"Include"
"HUW2015_e1","HUW2015_e1_26",228,1,"JudgeOldness",4,1817.745139,"Include"
"HUW2015_e1","HUW2015_e1_26",229,1,"JudgeOldness",4,3134.970142,"Include"
"HUW2015_e1","HUW2015_e1_26",230,1,"JudgeOldness",3,1676.304714,"Include"
"HUW2015_e1","HUW2015_e1_26",231,1,"JudgeOldness",5,1787.43475,"Include"
"HUW2015_e1","HUW2015_e1_26",232,1,"JudgeOldness",3,2025.771093,"Include"
"HUW2015_e1","HUW2015_e1_26",233,1,"JudgeOldness",2,2638.84091,"Include"
"HUW2015_e1","HUW2015_e1_26",234,1,"JudgeOldness",4,1684.577662,"Include"
"HUW2015_e1","HUW2015_e1_26",235,0,"JudgeOldness",2,1746.754026,"Include"
"HUW2015_e1","HUW2015_e1_26",236,1,"JudgeOldness",3,1376.864682,"Include"
"HUW2015_e1","HUW2015_e1_26",237,1,"JudgeOldness",5,1373.204517,"Include"
"HUW2015_e1","HUW2015_e1_26",238,1,"JudgeOldness",5,1963.92405,"Include"
"HUW2015_e1","HUW2015_e1_26",239,0,"JudgeOldness",4,1769.059675,"Include"
"HUW2015_e1","HUW2015_e1_26",240,1,"JudgeOldness",2,1542.771835,"Include"
"HUW2015_e1","HUW2015_e1_26",241,0,"JudgeOldness",2,2022.380994,"Include"
"HUW2015_e1","HUW2015_e1_26",242,0,"JudgeOldness",4,2861.393775,"Include"
"HUW2015_e1","HUW2015_e1_26",243,0,"JudgeOldness",2,1547.578628,"Include"
"HUW2015_e1","HUW2015_e1_26",244,0,"JudgeOldness",2,1392.807263,"Include"
"HUW2015_e1","HUW2015_e1_26",245,1,"JudgeOldness",4,2054.57733,"Include"
"HUW2015_e1","HUW2015_e1_26",246,0,"JudgeOldness",3,3060.146407,"Include"
"HUW2015_e1","HUW2015_e1_26",247,0,"JudgeOldness",1,1538.214917,"Include"
"HUW2015_e1","HUW2015_e1_26",248,1,"JudgeOldness",2,1592.624228,"Include"
"HUW2015_e1","HUW2015_e1_26",249,0,"JudgeOldness",2,1807.413804,"Include"
"HUW2015_e1","HUW2015_e1_26",250,1,"JudgeOldness",5,2164.314107,"Include"
"HUW2015_e1","HUW2015_e1_26",251,0,"JudgeOldness",1,1258.510131,"Include"
"HUW2015_e1","HUW2015_e1_26",252,0,"JudgeOldness",3,1136.264084,"Include"
"HUW2015_e1","HUW2015_e1_26",253,0,"JudgeOldness",2,2598.714493,"Include"
"HUW2015_e1","HUW2015_e1_26",254,0,"JudgeOldness",1,3300.978144,"Include"
"HUW2015_e1","HUW2015_e1_26",255,0,"JudgeOldness",2,1762.577325,"Include"
"HUW2015_e1","HUW2015_e1_26",256,1,"JudgeOldness",4,2424.65116,"Include"
"HUW2015_e1","HUW2015_e1_26",257,0,"JudgeOldness",2,2868.766785,"Include"
"HUW2015_e1","HUW2015_e1_26",258,1,"JudgeOldness",3,1906.055821,"Include"
"HUW2015_e1","HUW2015_e1_26",259,0,"JudgeOldness",1,1969.018228,"Include"
"HUW2015_e1","HUW2015_e1_26",260,0,"JudgeOldness",1,2558.207666,"Include"
"HUW2015_e1","HUW2015_e1_26",261,0,"JudgeOldness",2,1875.071507,"Include"
"HUW2015_e1","HUW2015_e1_26",262,0,"JudgeOldness",3,2321.446197,"Include"
"HUW2015_e1","HUW2015_e1_26",263,1,"JudgeOldness",5,2031.428051,"Include"
"HUW2015_e1","HUW2015_e1_26",264,0,"JudgeOldness",2,2553.767363,"Include"
"HUW2015_e1","HUW2015_e1_26",265,1,"JudgeOldness",5,3198.897678,"Include"
"HUW2015_e1","HUW2015_e1_26",266,0,"JudgeOldness",3,2555.949255,"Include"
"HUW2015_e1","HUW2015_e1_26",267,1,"JudgeOldness",2,2505.486954,"Include"
"HUW2015_e1","HUW2015_e1_26",268,1,"JudgeOldness",5,1399.966328,"Include"
"HUW2015_e1","HUW2015_e1_26",269,1,"JudgeOldness",3,3475.712132,"Include"
"HUW2015_e1","HUW2015_e1_26",270,1,"JudgeOldness",2,2950.259905,"Include"
"HUW2015_e1","HUW2015_e1_26",271,0,"JudgeOldness",5,1373.91408,"Include"
"HUW2015_e1","HUW2015_e1_26",272,1,"JudgeOldness",3,1507.412855,"Include"
"HUW2015_e1","HUW2015_e1_26",273,0,"JudgeOldness",2,2428.686445,"Include"
"HUW2015_e1","HUW2015_e1_26",274,1,"JudgeOldness",5,1520.733199,"Include"
"HUW2015_e1","HUW2015_e1_26",275,1,"JudgeOldness",2,1924.556884,"Include"
"HUW2015_e1","HUW2015_e1_26",276,1,"JudgeOldness",3,2162.975887,"Include"
"HUW2015_e1","HUW2015_e1_26",277,1,"JudgeOldness",3,1887.432792,"Include"
"HUW2015_e1","HUW2015_e1_26",278,0,"JudgeOldness",2,1622.545545,"Include"
"HUW2015_e1","HUW2015_e1_26",279,0,"JudgeOldness",4,2035.520876,"Include"
"HUW2015_e1","HUW2015_e1_26",280,1,"JudgeOldness",5,1954.468383,"Include"
"HUW2015_e1","HUW2015_e1_26",281,1,"JudgeOldness",5,1503.797393,"Include"
"HUW2015_e1","HUW2015_e1_26",282,1,"JudgeOldness",2,2524.376339,"Include"
"HUW2015_e1","HUW2015_e1_26",283,1,"JudgeOldness",3,2147.224491,"Include"
"HUW2015_e1","HUW2015_e1_26",284,1,"JudgeOldness",2,2016.735897,"Include"
"HUW2015_e1","HUW2015_e1_26",285,1,"JudgeOldness",4,2005.88202,"Include"
"HUW2015_e1","HUW2015_e1_26",286,0,"JudgeOldness",2,2731.41158,"Include"
"HUW2015_e1","HUW2015_e1_26",287,0,"JudgeOldness",1,1354.369792,"Include"
"HUW2015_e1","HUW2015_e1_26",288,1,"JudgeOldness",4,2029.690369,"Include"
"HUW2015_e1","HUW2015_e1_26",289,0,"JudgeOldness",4,1874.745302,"Include"
"HUW2015_e1","HUW2015_e1_26",290,1,"JudgeOldness",5,2233.179949,"Include"
"HUW2015_e1","HUW2015_e1_26",291,1,"JudgeOldness",5,1463.669467,"Include"
"HUW2015_e1","HUW2015_e1_26",292,1,"JudgeOldness",3,1964.483057,"Include"
"HUW2015_e1","HUW2015_e1_26",293,0,"JudgeOldness",2,2337.369862,"Include"
"HUW2015_e1","HUW2015_e1_26",294,1,"JudgeOldness",5,1415.943573,"Include"
"HUW2015_e1","HUW2015_e1_26",295,0,"JudgeOldness",3,2182.950907,"Include"
"HUW2015_e1","HUW2015_e1_26",296,1,"JudgeOldness",5,2344.731775,"Include"
"HUW2015_e1","HUW2015_e1_26",297,1,"JudgeOldness",5,1582.079391,"Include"
"HUW2015_e1","HUW2015_e1_26",298,1,"JudgeOldness",5,1515.902956,"Include"
"HUW2015_e1","HUW2015_e1_26",299,0,"JudgeOldness",1,1665.491415,"Include"
"HUW2015_e1","HUW2015_e1_26",300,0,"JudgeOldness",2,1295.649682,"Include"
"HUW2015_e1","HUW2015_e1_3",1,1,"JudgeNewness",5,1409.63304,"Include"
"HUW2015_e1","HUW2015_e1_3",2,0,"JudgeNewness",3,1879.258366,"Include"
"HUW2015_e1","HUW2015_e1_3",3,1,"JudgeNewness",5,1060.817112,"Include"
"HUW2015_e1","HUW2015_e1_3",4,0,"JudgeNewness",2,1762.283233,"Include"
"HUW2015_e1","HUW2015_e1_3",5,0,"JudgeNewness",1,2360.795439,"Include"
"HUW2015_e1","HUW2015_e1_3",6,1,"JudgeNewness",5,1079.682965,"Include"
"HUW2015_e1","HUW2015_e1_3",7,1,"JudgeNewness",2,2213.784391,"Include"
"HUW2015_e1","HUW2015_e1_3",8,0,"JudgeNewness",2,2420.989743,"Include"
"HUW2015_e1","HUW2015_e1_3",9,0,"JudgeNewness",2,2544.612521,"Include"
"HUW2015_e1","HUW2015_e1_3",10,0,"JudgeNewness",3,1998.90176,"Include"
"HUW2015_e1","HUW2015_e1_3",11,1,"JudgeNewness",5,1476.146912,"Include"
"HUW2015_e1","HUW2015_e1_3",12,0,"JudgeNewness",3,3217.982192,"Include"
"HUW2015_e1","HUW2015_e1_3",13,0,"JudgeNewness",2,1545.061489,"Include"
"HUW2015_e1","HUW2015_e1_3",14,1,"JudgeNewness",4,1710.051843,"Include"
"HUW2015_e1","HUW2015_e1_3",15,1,"JudgeNewness",5,1780.894728,"Include"
"HUW2015_e1","HUW2015_e1_3",16,1,"JudgeNewness",2,2208.066844,"Include"
"HUW2015_e1","HUW2015_e1_3",17,0,"JudgeNewness",1,1598.043678,"Include"
"HUW2015_e1","HUW2015_e1_3",18,1,"JudgeNewness",4,1506.221945,"Include"
"HUW2015_e1","HUW2015_e1_3",19,1,"JudgeNewness",5,1089.009272,"Include"
"HUW2015_e1","HUW2015_e1_3",20,1,"JudgeNewness",5,1405.062616,"Include"
"HUW2015_e1","HUW2015_e1_3",21,0,"JudgeNewness",3,2475.100943,"Include"
"HUW2015_e1","HUW2015_e1_3",22,1,"JudgeNewness",5,1546.097687,"Include"
"HUW2015_e1","HUW2015_e1_3",23,0,"JudgeNewness",5,1325.414466,"Include"
"HUW2015_e1","HUW2015_e1_3",24,0,"JudgeNewness",2,2145.538355,"Include"
"HUW2015_e1","HUW2015_e1_3",25,1,"JudgeNewness",5,2127.81641,"Include"
"HUW2015_e1","HUW2015_e1_3",26,0,"JudgeNewness",2,2285.117111,"Include"
"HUW2015_e1","HUW2015_e1_3",27,0,"JudgeNewness",3,2459.63278,"Include"
"HUW2015_e1","HUW2015_e1_3",28,0,"JudgeNewness",2,1785.603555,"Include"
"HUW2015_e1","HUW2015_e1_3",29,1,"JudgeNewness",4,1448.10403,"Include"
"HUW2015_e1","HUW2015_e1_3",30,0,"JudgeNewness",3,2157.559177,"Include"
"HUW2015_e1","HUW2015_e1_3",31,0,"JudgeNewness",3,2475.036708,"Include"
"HUW2015_e1","HUW2015_e1_3",32,1,"JudgeNewness",3,1422.87515,"Include"
"HUW2015_e1","HUW2015_e1_3",33,0,"JudgeNewness",1,2877.133168,"Include"
"HUW2015_e1","HUW2015_e1_3",34,0,"JudgeNewness",2,3610.241721,"Include"
"HUW2015_e1","HUW2015_e1_3",35,1,"JudgeNewness",5,2153.46514,"Include"
"HUW2015_e1","HUW2015_e1_3",36,0,"JudgeNewness",1,766.976723,"Include"
"HUW2015_e1","HUW2015_e1_3",37,0,"JudgeNewness",2,1547.501352,"Include"
"HUW2015_e1","HUW2015_e1_3",38,1,"JudgeNewness",4,1841.03493,"Include"
"HUW2015_e1","HUW2015_e1_3",39,0,"JudgeNewness",NA,0,"Exclude"
"HUW2015_e1","HUW2015_e1_3",40,1,"JudgeNewness",2,1707.215791,"Include"
"HUW2015_e1","HUW2015_e1_3",41,1,"JudgeNewness",5,1186.241971,"Include"
"HUW2015_e1","HUW2015_e1_3",42,0,"JudgeNewness",4,1222.124482,"Include"
"HUW2015_e1","HUW2015_e1_3",43,0,"JudgeNewness",NA,0,"Exclude"
"HUW2015_e1","HUW2015_e1_3",44,0,"JudgeNewness",4,1690.756858,"Include"
"HUW2015_e1","HUW2015_e1_3",45,0,"JudgeNewness",4,1400.922055,"Include"
"HUW2015_e1","HUW2015_e1_3",46,1,"JudgeNewness",5,1269.053719,"Include"
"HUW2015_e1","HUW2015_e1_3",47,1,"JudgeNewness",5,883.097473,"Include"
"HUW2015_e1","HUW2015_e1_3",48,0,"JudgeNewness",3,2391.909407,"Include"
"HUW2015_e1","HUW2015_e1_3",49,1,"JudgeNewness",NA,0,"Exclude"
"HUW2015_e1","HUW2015_e1_3",50,1,"JudgeNewness",NA,0,"Exclude"
"HUW2015_e1","HUW2015_e1_3",51,1,"JudgeNewness",NA,0,"Exclude"
"HUW2015_e1","HUW2015_e1_3",52,1,"JudgeNewness",3,2956.38433,"Include"
"HUW2015_e1","HUW2015_e1_3",53,0,"JudgeNewness",3,1994.208041,"Include"
"HUW2015_e1","HUW2015_e1_3",54,0,"JudgeNewness",3,2367.189299,"Include"
"HUW2015_e1","HUW2015_e1_3",55,1,"JudgeNewness",5,1116.30036,"Include"
"HUW2015_e1","HUW2015_e1_3",56,0,"JudgeNewness",5,2394.889129,"Include"
"HUW2015_e1","HUW2015_e1_3",57,1,"JudgeNewness",5,1576.394424,"Include"
"HUW2015_e1","HUW2015_e1_3",58,1,"JudgeNewness",NA,0,"Exclude"
"HUW2015_e1","HUW2015_e1_3",59,1,"JudgeNewness",5,1493.725343,"Include"
"HUW2015_e1","HUW2015_e1_3",60,1,"JudgeNewness",5,2139.99872,"Include"
"HUW2015_e1","HUW2015_e1_3",61,1,"JudgeNewness",5,1379.550186,"Include"
"HUW2015_e1","HUW2015_e1_3",62,0,"JudgeNewness",2,2498.031904,"Include"
"HUW2015_e1","HUW2015_e1_3",63,0,"JudgeNewness",2,1374.223497,"Include"
"HUW2015_e1","HUW2015_e1_3",64,0,"JudgeNewness",3,1437.501827,"Include"
"HUW2015_e1","HUW2015_e1_3",65,0,"JudgeNewness",2,1283.913132,"Include"
"HUW2015_e1","HUW2015_e1_3",66,0,"JudgeNewness",2,1929.506903,"Include"
"HUW2015_e1","HUW2015_e1_3",67,0,"JudgeNewness",2,814.643929,"Include"
"HUW2015_e1","HUW2015_e1_3",68,0,"JudgeNewness",2,1804.520722,"Include"
"HUW2015_e1","HUW2015_e1_3",69,0,"JudgeNewness",1,2226.011079,"Include"
"HUW2015_e1","HUW2015_e1_3",70,0,"JudgeNewness",1,1720.062921,"Include"
"HUW2015_e1","HUW2015_e1_3",71,0,"JudgeNewness",1,1534.728909,"Include"
"HUW2015_e1","HUW2015_e1_3",72,1,"JudgeNewness",5,1125.674273,"Include"
"HUW2015_e1","HUW2015_e1_3",73,1,"JudgeNewness",4,2251.944532,"Include"
"HUW2015_e1","HUW2015_e1_3",74,1,"JudgeNewness",2,2560.261694,"Include"
"HUW2015_e1","HUW2015_e1_3",75,1,"JudgeNewness",5,1333.132608,"Include"
"HUW2015_e1","HUW2015_e1_3",76,0,"JudgeNewness",3,2249.483838,"Include"
"HUW2015_e1","HUW2015_e1_3",77,1,"JudgeNewness",5,2798.760402,"Include"
"HUW2015_e1","HUW2015_e1_3",78,0,"JudgeNewness",5,1211.689361,"Include"
"HUW2015_e1","HUW2015_e1_3",79,0,"JudgeNewness",1,1479.475569,"Include"
"HUW2015_e1","HUW2015_e1_3",80,1,"JudgeNewness",2,2110.862396,"Include"
"HUW2015_e1","HUW2015_e1_3",81,1,"JudgeNewness",5,1820.169246,"Include"
"HUW2015_e1","HUW2015_e1_3",82,0,"JudgeNewness",1,2138.523573,"Include"
"HUW2015_e1","HUW2015_e1_3",83,0,"JudgeNewness",4,1503.59526,"Include"
"HUW2015_e1","HUW2015_e1_3",84,1,"JudgeNewness",5,2188.859407,"Include"
"HUW2015_e1","HUW2015_e1_3",85,1,"JudgeNewness",4,1355.235644,"Include"
"HUW2015_e1","HUW2015_e1_3",86,1,"JudgeNewness",2,1377.418354,"Include"
"HUW2015_e1","HUW2015_e1_3",87,0,"JudgeNewness",NA,0,"Exclude"
"HUW2015_e1","HUW2015_e1_3",88,1,"JudgeNewness",5,1372.719958,"Include"
"HUW2015_e1","HUW2015_e1_3",89,1,"JudgeNewness",5,1346.98774,"Include"
"HUW2015_e1","HUW2015_e1_3",90,1,"JudgeNewness",5,1639.51562,"Include"
"HUW2015_e1","HUW2015_e1_3",91,0,"JudgeNewness",1,1582.206555,"Include"
"HUW2015_e1","HUW2015_e1_3",92,1,"JudgeNewness",5,980.395355,"Include"
"HUW2015_e1","HUW2015_e1_3",93,0,"JudgeNewness",2,2826.127605,"Include"
"HUW2015_e1","HUW2015_e1_3",94,1,"JudgeNewness",5,1415.471796,"Include"
"HUW2015_e1","HUW2015_e1_3",95,0,"JudgeNewness",2,1654.275188,"Include"
"HUW2015_e1","HUW2015_e1_3",96,1,"JudgeNewness",2,2137.173439,"Include"
"HUW2015_e1","HUW2015_e1_3",97,0,"JudgeNewness",2,1694.407168,"Include"
"HUW2015_e1","HUW2015_e1_3",98,1,"JudgeNewness",3,2517.92348,"Include"
"HUW2015_e1","HUW2015_e1_3",99,1,"JudgeNewness",5,1236.321545,"Include"
"HUW2015_e1","HUW2015_e1_3",100,1,"JudgeNewness",5,1368.289621,"Include"
"HUW2015_e1","HUW2015_e1_3",101,1,"JudgeNewness",5,2909.717775,"Include"
"HUW2015_e1","HUW2015_e1_3",102,0,"JudgeNewness",2,1756.529341,"Include"
"HUW2015_e1","HUW2015_e1_3",103,0,"JudgeNewness",4,1443.009073,"Include"
"HUW2015_e1","HUW2015_e1_3",104,1,"JudgeNewness",5,1134.83596,"Include"
"HUW2015_e1","HUW2015_e1_3",105,1,"JudgeNewness",5,1019.626048,"Include"
"HUW2015_e1","HUW2015_e1_3",106,1,"JudgeNewness",5,1490.123856,"Include"
"HUW2015_e1","HUW2015_e1_3",107,0,"JudgeNewness",2,1438.349053,"Include"
"HUW2015_e1","HUW2015_e1_3",108,1,"JudgeNewness",5,1244.792051,"Include"
"HUW2015_e1","HUW2015_e1_3",109,0,"JudgeNewness",4,2162.616213,"Include"
"HUW2015_e1","HUW2015_e1_3",110,1,"JudgeNewness",3,2384.297235,"Include"
"HUW2015_e1","HUW2015_e1_3",111,0,"JudgeNewness",5,1357.294208,"Include"
"HUW2015_e1","HUW2015_e1_3",112,1,"JudgeNewness",2,1924.02086,"Include"
"HUW2015_e1","HUW2015_e1_3",113,1,"JudgeNewness",2,1321.056471,"Include"
"HUW2015_e1","HUW2015_e1_3",114,1,"JudgeNewness",1,2198.700202,"Include"
"HUW2015_e1","HUW2015_e1_3",115,0,"JudgeNewness",4,2483.394582,"Include"
"HUW2015_e1","HUW2015_e1_3",116,1,"JudgeNewness",2,3689.291291,"Include"
"HUW2015_e1","HUW2015_e1_3",117,0,"JudgeNewness",1,1752.902745,"Include"
"HUW2015_e1","HUW2015_e1_3",118,0,"JudgeNewness",2,1316.519262,"Include"
"HUW2015_e1","HUW2015_e1_3",119,0,"JudgeNewness",4,2818.10645,"Include"
"HUW2015_e1","HUW2015_e1_3",120,0,"JudgeNewness",4,1504.033229,"Include"
"HUW2015_e1","HUW2015_e1_3",121,1,"JudgeNewness",5,1448.324048,"Include"
"HUW2015_e1","HUW2015_e1_3",122,1,"JudgeNewness",5,1046.36333,"Include"
"HUW2015_e1","HUW2015_e1_3",123,1,"JudgeNewness",3,1804.139291,"Include"
"HUW2015_e1","HUW2015_e1_3",124,0,"JudgeNewness",2,1985.75584,"Include"
"HUW2015_e1","HUW2015_e1_3",125,0,"JudgeNewness",2,1791.179867,"Include"
"HUW2015_e1","HUW2015_e1_3",126,0,"JudgeNewness",3,3372.385207,"Include"
"HUW2015_e1","HUW2015_e1_3",127,1,"JudgeNewness",2,3065.763848,"Include"
"HUW2015_e1","HUW2015_e1_3",128,1,"JudgeNewness",5,961.15315,"Include"
"HUW2015_e1","HUW2015_e1_3",129,1,"JudgeNewness",5,1974.848173,"Include"
"HUW2015_e1","HUW2015_e1_3",130,0,"JudgeNewness",2,1892.646562,"Include"
"HUW2015_e1","HUW2015_e1_3",131,0,"JudgeNewness",2,1866.151138,"Include"
"HUW2015_e1","HUW2015_e1_3",132,1,"JudgeNewness",4,2263.329546,"Include"
"HUW2015_e1","HUW2015_e1_3",133,1,"JudgeNewness",5,1205.595845,"Include"
"HUW2015_e1","HUW2015_e1_3",134,1,"JudgeNewness",5,2346.802915,"Include"
"HUW2015_e1","HUW2015_e1_3",135,0,"JudgeNewness",4,249.008966,"Include"
"HUW2015_e1","HUW2015_e1_3",136,1,"JudgeNewness",5,1527.792583,"Include"
"HUW2015_e1","HUW2015_e1_3",137,1,"JudgeNewness",5,1165.665312,"Include"
"HUW2015_e1","HUW2015_e1_3",138,1,"JudgeNewness",4,1756.015289,"Include"
"HUW2015_e1","HUW2015_e1_3",139,1,"JudgeNewness",2,2657.679598,"Include"
"HUW2015_e1","HUW2015_e1_3",140,0,"JudgeNewness",2,1488.82068,"Include"
"HUW2015_e1","HUW2015_e1_3",141,1,"JudgeNewness",4,1531.877483,"Include"
"HUW2015_e1","HUW2015_e1_3",142,0,"JudgeNewness",3,2777.290337,"Include"
"HUW2015_e1","HUW2015_e1_3",143,1,"JudgeNewness",4,2135.153977,"Include"
"HUW2015_e1","HUW2015_e1_3",144,1,"JudgeNewness",4,1244.155926,"Include"
"HUW2015_e1","HUW2015_e1_3",145,1,"JudgeNewness",4,1226.137179,"Include"
"HUW2015_e1","HUW2015_e1_3",146,0,"JudgeNewness",3,1302.790675,"Include"
"HUW2015_e1","HUW2015_e1_3",147,0,"JudgeNewness",2,1470.262621,"Include"
"HUW2015_e1","HUW2015_e1_3",148,1,"JudgeNewness",5,1242.564082,"Include"
"HUW2015_e1","HUW2015_e1_3",149,1,"JudgeNewness",2,2281.075488,"Include"
"HUW2015_e1","HUW2015_e1_3",150,1,"JudgeNewness",5,1277.627817,"Include"
"HUW2015_e1","HUW2015_e1_3",151,0,"JudgeNewness",2,1803.362514,"Include"
"HUW2015_e1","HUW2015_e1_3",152,0,"JudgeNewness",2,1238.607893,"Include"
"HUW2015_e1","HUW2015_e1_3",153,0,"JudgeNewness",2,1325.411128,"Include"
"HUW2015_e1","HUW2015_e1_3",154,0,"JudgeNewness",2,1787.489012,"Include"
"HUW2015_e1","HUW2015_e1_3",155,1,"JudgeNewness",3,2039.205505,"Include"
"HUW2015_e1","HUW2015_e1_3",156,0,"JudgeNewness",2,1517.767151,"Include"
"HUW2015_e1","HUW2015_e1_3",157,0,"JudgeNewness",3,899.998969,"Include"
"HUW2015_e1","HUW2015_e1_3",158,0,"JudgeNewness",NA,0,"Exclude"
"HUW2015_e1","HUW2015_e1_3",159,0,"JudgeNewness",3,2307.54131,"Include"
"HUW2015_e1","HUW2015_e1_3",160,0,"JudgeNewness",3,2214.001845,"Include"
"HUW2015_e1","HUW2015_e1_3",161,1,"JudgeNewness",3,2290.670811,"Include"
"HUW2015_e1","HUW2015_e1_3",162,1,"JudgeNewness",5,1207.543357,"Include"
"HUW2015_e1","HUW2015_e1_3",163,0,"JudgeNewness",NA,0,"Exclude"
"HUW2015_e1","HUW2015_e1_3",164,1,"JudgeNewness",5,1042.99446,"Include"
"HUW2015_e1","HUW2015_e1_3",165,1,"JudgeNewness",5,943.607699,"Include"
"HUW2015_e1","HUW2015_e1_3",166,0,"JudgeNewness",5,2219.474309,"Include"
"HUW2015_e1","HUW2015_e1_3",167,0,"JudgeNewness",3,2048.917381,"Include"
"HUW2015_e1","HUW2015_e1_3",168,0,"JudgeNewness",3,2390.512763,"Include"
"HUW2015_e1","HUW2015_e1_3",169,0,"JudgeNewness",2,1164.768528,"Include"
"HUW2015_e1","HUW2015_e1_3",170,1,"JudgeNewness",2,1530.820504,"Include"
"HUW2015_e1","HUW2015_e1_3",171,1,"JudgeNewness",2,1175.4321,"Include"
"HUW2015_e1","HUW2015_e1_3",172,0,"JudgeNewness",3,2229.22145,"Include"
"HUW2015_e1","HUW2015_e1_3",173,0,"JudgeNewness",2,2027.482199,"Include"
"HUW2015_e1","HUW2015_e1_3",174,1,"JudgeNewness",NA,0,"Exclude"
"HUW2015_e1","HUW2015_e1_3",175,0,"JudgeNewness",2,1520.359209,"Include"
"HUW2015_e1","HUW2015_e1_3",176,0,"JudgeNewness",2,1222.514095,"Include"
"HUW2015_e1","HUW2015_e1_3",177,0,"JudgeNewness",3,1635.147821,"Include"
"HUW2015_e1","HUW2015_e1_3",178,1,"JudgeNewness",3,2335.682473,"Include"
"HUW2015_e1","HUW2015_e1_3",179,0,"JudgeNewness",2,2014.161985,"Include"
"HUW2015_e1","HUW2015_e1_3",180,1,"JudgeNewness",5,1226.755872,"Include"
"HUW2015_e1","HUW2015_e1_3",181,1,"JudgeNewness",5,1565.87171,"Include"
"HUW2015_e1","HUW2015_e1_3",182,1,"JudgeNewness",4,2179.865826,"Include"
"HUW2015_e1","HUW2015_e1_3",183,0,"JudgeNewness",2,1840.673232,"Include"
"HUW2015_e1","HUW2015_e1_3",184,1,"JudgeNewness",2,1493.945865,"Include"
"HUW2015_e1","HUW2015_e1_3",185,1,"JudgeNewness",5,1260.168855,"Include"
"HUW2015_e1","HUW2015_e1_3",186,1,"JudgeNewness",2,1551.941771,"Include"
"HUW2015_e1","HUW2015_e1_3",187,1,"JudgeNewness",5,971.323592,"Include"
"HUW2015_e1","HUW2015_e1_3",188,1,"JudgeNewness",5,1666.564607,"Include"
"HUW2015_e1","HUW2015_e1_3",189,1,"JudgeNewness",3,2241.3516,"Include"
"HUW2015_e1","HUW2015_e1_3",190,1,"JudgeNewness",5,1477.948965,"Include"
"HUW2015_e1","HUW2015_e1_3",191,0,"JudgeNewness",3,2859.684536,"Include"
"HUW2015_e1","HUW2015_e1_3",192,1,"JudgeNewness",4,2090.222102,"Include"
"HUW2015_e1","HUW2015_e1_3",193,1,"JudgeNewness",5,951.705732,"Include"
"HUW2015_e1","HUW2015_e1_3",194,0,"JudgeNewness",5,1179.962381,"Include"
"HUW2015_e1","HUW2015_e1_3",195,1,"JudgeNewness",4,1841.354772,"Include"
"HUW2015_e1","HUW2015_e1_3",196,1,"JudgeNewness",2,1560.722943,"Include"
"HUW2015_e1","HUW2015_e1_3",197,0,"JudgeNewness",5,1896.610276,"Include"
"HUW2015_e1","HUW2015_e1_3",198,1,"JudgeNewness",2,2333.611621,"Include"
"HUW2015_e1","HUW2015_e1_3",199,0,"JudgeNewness",2,1828.183515,"Include"
"HUW2015_e1","HUW2015_e1_3",200,1,"JudgeNewness",4,2409.115272,"Include"
"HUW2015_e1","HUW2015_e1_3",201,1,"JudgeNewness",4,1942.601104,"Include"
"HUW2015_e1","HUW2015_e1_3",202,0,"JudgeNewness",NA,0,"Exclude"
"HUW2015_e1","HUW2015_e1_3",203,1,"JudgeNewness",3,1251.072216,"Include"
"HUW2015_e1","HUW2015_e1_3",204,1,"JudgeNewness",4,1544.258856,"Include"
"HUW2015_e1","HUW2015_e1_3",205,0,"JudgeNewness",2,1566.738226,"Include"
"HUW2015_e1","HUW2015_e1_3",206,1,"JudgeNewness",5,2218.745544,"Include"
"HUW2015_e1","HUW2015_e1_3",207,1,"JudgeNewness",3,2121.027665,"Include"
"HUW2015_e1","HUW2015_e1_3",208,1,"JudgeNewness",5,1517.839633,"Include"
"HUW2015_e1","HUW2015_e1_3",209,0,"JudgeNewness",1,1899.397684,"Include"
"HUW2015_e1","HUW2015_e1_3",210,0,"JudgeNewness",3,2121.062746,"Include"
"HUW2015_e1","HUW2015_e1_3",211,0,"JudgeNewness",2,1285.792331,"Include"
"HUW2015_e1","HUW2015_e1_3",212,1,"JudgeNewness",5,1467.502531,"Include"
"HUW2015_e1","HUW2015_e1_3",213,0,"JudgeNewness",2,1425.586315,"Include"
"HUW2015_e1","HUW2015_e1_3",214,1,"JudgeNewness",5,1046.553351,"Include"
"HUW2015_e1","HUW2015_e1_3",215,1,"JudgeNewness",5,1228.401323,"Include"
"HUW2015_e1","HUW2015_e1_3",216,0,"JudgeNewness",3,1999.742055,"Include"
"HUW2015_e1","HUW2015_e1_3",217,0,"JudgeNewness",2,1758.885203,"Include"
"HUW2015_e1","HUW2015_e1_3",218,1,"JudgeNewness",5,1012.618876,"Include"
"HUW2015_e1","HUW2015_e1_3",219,0,"JudgeNewness",3,1602.6408,"Include"
"HUW2015_e1","HUW2015_e1_3",220,0,"JudgeNewness",2,1376.100157,"Include"
"HUW2015_e1","HUW2015_e1_3",221,1,"JudgeNewness",4,1564.519534,"Include"
"HUW2015_e1","HUW2015_e1_3",222,1,"JudgeNewness",4,1834.040371,"Include"
"HUW2015_e1","HUW2015_e1_3",223,0,"JudgeNewness",2,1647.195384,"Include"
"HUW2015_e1","HUW2015_e1_3",224,0,"JudgeNewness",2,1205.080708,"Include"
"HUW2015_e1","HUW2015_e1_3",225,0,"JudgeNewness",5,1459.705531,"Include"
"HUW2015_e1","HUW2015_e1_3",226,1,"JudgeNewness",5,1048.741332,"Include"
"HUW2015_e1","HUW2015_e1_3",227,0,"JudgeNewness",5,956.713369,"Include"
"HUW2015_e1","HUW2015_e1_3",228,0,"JudgeNewness",2,2210.744861,"Include"
"HUW2015_e1","HUW2015_e1_3",229,0,"JudgeNewness",2,2264.163999,"Include"
"HUW2015_e1","HUW2015_e1_3",230,0,"JudgeNewness",2,1086.218465,"Include"
"HUW2015_e1","HUW2015_e1_3",231,0,"JudgeNewness",5,1492.097793,"Include"
"HUW2015_e1","HUW2015_e1_3",232,0,"JudgeNewness",2,1657.870642,"Include"
"HUW2015_e1","HUW2015_e1_3",233,0,"JudgeNewness",NA,0,"Exclude"
"HUW2015_e1","HUW2015_e1_3",234,0,"JudgeNewness",2,1700.890614,"Include"
"HUW2015_e1","HUW2015_e1_3",235,1,"JudgeNewness",5,1275.730664,"Include"
"HUW2015_e1","HUW2015_e1_3",236,0,"JudgeNewness",2,1448.633708,"Include"
"HUW2015_e1","HUW2015_e1_3",237,0,"JudgeNewness",2,2191.106077,"Include"
"HUW2015_e1","HUW2015_e1_3",238,0,"JudgeNewness",2,1381.079745,"Include"
"HUW2015_e1","HUW2015_e1_3",239,1,"JudgeNewness",5,1306.640948,"Include"
"HUW2015_e1","HUW2015_e1_3",240,0,"JudgeNewness",3,1087.512625,"Include"
"HUW2015_e1","HUW2015_e1_3",241,1,"JudgeNewness",5,1839.585039,"Include"
"HUW2015_e1","HUW2015_e1_3",242,1,"JudgeNewness",5,958.670128,"Include"
"HUW2015_e1","HUW2015_e1_3",243,1,"JudgeNewness",3,1925.820539,"Include"
"HUW2015_e1","HUW2015_e1_3",244,1,"JudgeNewness",2,1690.28017,"Include"
"HUW2015_e1","HUW2015_e1_3",245,0,"JudgeNewness",5,2344.991528,"Include"
"HUW2015_e1","HUW2015_e1_3",246,1,"JudgeNewness",5,1173.023991,"Include"
"HUW2015_e1","HUW2015_e1_3",247,1,"JudgeNewness",5,1075.996128,"Include"
"HUW2015_e1","HUW2015_e1_3",248,0,"JudgeNewness",3,2618.370974,"Include"
"HUW2015_e1","HUW2015_e1_3",249,1,"JudgeNewness",5,1136.650286,"Include"
"HUW2015_e1","HUW2015_e1_3",250,0,"JudgeNewness",2,2181.92033,"Include"
"HUW2015_e1","HUW2015_e1_3",251,1,"JudgeNewness",5,1235.37563,"Include"
"HUW2015_e1","HUW2015_e1_3",252,1,"JudgeNewness",5,938.27654,"Include"
"HUW2015_e1","HUW2015_e1_3",253,1,"JudgeNewness",5,1320.586959,"Include"
"HUW2015_e1","HUW2015_e1_3",254,1,"JudgeNewness",2,1230.18972,"Include"
"HUW2015_e1","HUW2015_e1_3",255,1,"JudgeNewness",5,1138.608345,"Include"
"HUW2015_e1","HUW2015_e1_3",256,0,"JudgeNewness",1,2089.428663,"Include"
"HUW2015_e1","HUW2015_e1_3",257,1,"JudgeNewness",5,1478.650208,"Include"
"HUW2015_e1","HUW2015_e1_3",258,0,"JudgeNewness",3,1411.308954,"Include"
"HUW2015_e1","HUW2015_e1_3",259,1,"JudgeNewness",3,1890.090169,"Include"
"HUW2015_e1","HUW2015_e1_3",260,1,"JudgeNewness",4,1368.498356,"Include"
"HUW2015_e1","HUW2015_e1_3",261,1,"JudgeNewness",3,1732.549049,"Include"
"HUW2015_e1","HUW2015_e1_3",262,1,"JudgeNewness",2,1433.378373,"Include"
"HUW2015_e1","HUW2015_e1_3",263,0,"JudgeNewness",3,2199.497621,"Include"
"HUW2015_e1","HUW2015_e1_3",264,1,"JudgeNewness",5,1546.62176,"Include"
"HUW2015_e1","HUW2015_e1_3",265,0,"JudgeNewness",2,1624.952258,"Include"
"HUW2015_e1","HUW2015_e1_3",266,1,"JudgeNewness",3,1526.334532,"Include"
"HUW2015_e1","HUW2015_e1_3",267,0,"JudgeNewness",2,2273.551905,"Include"
"HUW2015_e1","HUW2015_e1_3",268,0,"JudgeNewness",3,1880.181588,"Include"
"HUW2015_e1","HUW2015_e1_3",269,0,"JudgeNewness",2,2428.225313,"Include"
"HUW2015_e1","HUW2015_e1_3",270,0,"JudgeNewness",2,1311.917897,"Include"
"HUW2015_e1","HUW2015_e1_3",271,1,"JudgeNewness",5,983.743822,"Include"
"HUW2015_e1","HUW2015_e1_3",272,0,"JudgeNewness",3,2093.450596,"Include"
"HUW2015_e1","HUW2015_e1_3",273,1,"JudgeNewness",5,1004.717623,"Include"
"HUW2015_e1","HUW2015_e1_3",274,0,"JudgeNewness",5,1473.186176,"Include"
"HUW2015_e1","HUW2015_e1_3",275,0,"JudgeNewness",2,1222.130277,"Include"
"HUW2015_e1","HUW2015_e1_3",276,0,"JudgeNewness",2,3019.894153,"Include"
"HUW2015_e1","HUW2015_e1_3",277,0,"JudgeNewness",3,1121.389874,"Include"
"HUW2015_e1","HUW2015_e1_3",278,1,"JudgeNewness",3,2495.417873,"Include"
"HUW2015_e1","HUW2015_e1_3",279,1,"JudgeNewness",5,1028.357987,"Include"
"HUW2015_e1","HUW2015_e1_3",280,0,"JudgeNewness",2,2665.928402,"Include"
"HUW2015_e1","HUW2015_e1_3",281,0,"JudgeNewness",2,2400.695134,"Include"
"HUW2015_e1","HUW2015_e1_3",282,0,"JudgeNewness",NA,0,"Exclude"
"HUW2015_e1","HUW2015_e1_3",283,0,"JudgeNewness",NA,0,"Exclude"
"HUW2015_e1","HUW2015_e1_3",284,0,"JudgeNewness",2,2880.550935,"Include"
"HUW2015_e1","HUW2015_e1_3",285,0,"JudgeNewness",3,1990.465725,"Include"
"HUW2015_e1","HUW2015_e1_3",286,1,"JudgeNewness",5,1021.241897,"Include"
"HUW2015_e1","HUW2015_e1_3",287,1,"JudgeNewness",NA,0,"Exclude"
"HUW2015_e1","HUW2015_e1_3",288,0,"JudgeNewness",NA,0,"Exclude"
"HUW2015_e1","HUW2015_e1_3",289,1,"JudgeNewness",5,1171.338171,"Include"
"HUW2015_e1","HUW2015_e1_3",290,0,"JudgeNewness",2,1746.15496,"Include"
"HUW2015_e1","HUW2015_e1_3",291,0,"JudgeNewness",2,1200.371816,"Include"
"HUW2015_e1","HUW2015_e1_3",292,0,"JudgeNewness",2,1077.394436,"Include"
"HUW2015_e1","HUW2015_e1_3",293,1,"JudgeNewness",5,1282.494438,"Include"
"HUW2015_e1","HUW2015_e1_3",294,0,"JudgeNewness",NA,0,"Exclude"
"HUW2015_e1","HUW2015_e1_3",295,1,"JudgeNewness",5,1199.96541,"Include"
"HUW2015_e1","HUW2015_e1_3",296,0,"JudgeNewness",2,1314.032761,"Include"
"HUW2015_e1","HUW2015_e1_3",297,0,"JudgeNewness",2,1391.71981,"Include"
"HUW2015_e1","HUW2015_e1_3",298,0,"JudgeNewness",3,1741.674055,"Include"
"HUW2015_e1","HUW2015_e1_3",299,1,"JudgeNewness",3,1514.615838,"Include"
"HUW2015_e1","HUW2015_e1_3",300,1,"JudgeNewness",NA,0,"Exclude"
"HUW2015_e1","HUW2015_e1_31",1,1,"JudgeOldness",5,1186.5286,"Include"
"HUW2015_e1","HUW2015_e1_31",2,0,"JudgeOldness",3,2376.566522,"Include"
"HUW2015_e1","HUW2015_e1_31",3,1,"JudgeOldness",4,1861.567702,"Include"
"HUW2015_e1","HUW2015_e1_31",4,0,"JudgeOldness",1,2034.878355,"Include"
"HUW2015_e1","HUW2015_e1_31",5,0,"JudgeOldness",1,1946.04828,"Include"
"HUW2015_e1","HUW2015_e1_31",6,1,"JudgeOldness",4,2047.794258,"Include"
"HUW2015_e1","HUW2015_e1_31",7,1,"JudgeOldness",4,2366.695641,"Include"
"HUW2015_e1","HUW2015_e1_31",8,0,"JudgeOldness",2,2268.346136,"Include"
"HUW2015_e1","HUW2015_e1_31",9,0,"JudgeOldness",3,2480.389651,"Include"
"HUW2015_e1","HUW2015_e1_31",10,0,"JudgeOldness",2,2623.195623,"Include"
"HUW2015_e1","HUW2015_e1_31",11,1,"JudgeOldness",5,2093.101031,"Include"
"HUW2015_e1","HUW2015_e1_31",12,0,"JudgeOldness",3,2629.439661,"Include"
"HUW2015_e1","HUW2015_e1_31",13,0,"JudgeOldness",2,3057.842006,"Include"
"HUW2015_e1","HUW2015_e1_31",14,1,"JudgeOldness",1,1958.379001,"Include"
"HUW2015_e1","HUW2015_e1_31",15,1,"JudgeOldness",4,2668.271643,"Include"
"HUW2015_e1","HUW2015_e1_31",16,1,"JudgeOldness",2,2208.670095,"Include"
"HUW2015_e1","HUW2015_e1_31",17,0,"JudgeOldness",1,2358.655899,"Include"
"HUW2015_e1","HUW2015_e1_31",18,1,"JudgeOldness",5,1787.048304,"Include"
"HUW2015_e1","HUW2015_e1_31",19,1,"JudgeOldness",4,2415.749576,"Include"
"HUW2015_e1","HUW2015_e1_31",20,1,"JudgeOldness",5,1878.106263,"Include"
"HUW2015_e1","HUW2015_e1_31",21,0,"JudgeOldness",1,2315.458293,"Include"
"HUW2015_e1","HUW2015_e1_31",22,1,"JudgeOldness",2,3074.455635,"Include"
"HUW2015_e1","HUW2015_e1_31",23,0,"JudgeOldness",2,2430.648013,"Include"
"HUW2015_e1","HUW2015_e1_31",24,0,"JudgeOldness",2,2610.203758,"Include"
"HUW2015_e1","HUW2015_e1_31",25,1,"JudgeOldness",5,2121.035054,"Include"
"HUW2015_e1","HUW2015_e1_31",26,0,"JudgeOldness",1,2102.025616,"Include"
"HUW2015_e1","HUW2015_e1_31",27,0,"JudgeOldness",2,2787.660521,"Include"
"HUW2015_e1","HUW2015_e1_31",28,0,"JudgeOldness",2,3074.723091,"Include"
"HUW2015_e1","HUW2015_e1_31",29,1,"JudgeOldness",5,1697.902767,"Include"
"HUW2015_e1","HUW2015_e1_31",30,0,"JudgeOldness",2,1942.003693,"Include"
"HUW2015_e1","HUW2015_e1_31",31,0,"JudgeOldness",2,3514.688383,"Include"
"HUW2015_e1","HUW2015_e1_31",32,1,"JudgeOldness",5,1287.488984,"Include"
"HUW2015_e1","HUW2015_e1_31",33,0,"JudgeOldness",1,2174.247141,"Include"
"HUW2015_e1","HUW2015_e1_31",34,0,"JudgeOldness",1,2708.481453,"Include"
"HUW2015_e1","HUW2015_e1_31",35,1,"JudgeOldness",5,1489.552775,"Include"
"HUW2015_e1","HUW2015_e1_31",36,0,"JudgeOldness",1,2638.940625,"Include"
"HUW2015_e1","HUW2015_e1_31",37,0,"JudgeOldness",1,2715.481104,"Include"
"HUW2015_e1","HUW2015_e1_31",38,1,"JudgeOldness",5,2266.968573,"Include"
"HUW2015_e1","HUW2015_e1_31",39,0,"JudgeOldness",3,2921.263046,"Include"
"HUW2015_e1","HUW2015_e1_31",40,1,"JudgeOldness",3,2852.341816,"Include"
"HUW2015_e1","HUW2015_e1_31",41,1,"JudgeOldness",5,1706.224952,"Include"
"HUW2015_e1","HUW2015_e1_31",42,0,"JudgeOldness",5,1702.682601,"Include"
"HUW2015_e1","HUW2015_e1_31",43,0,"JudgeOldness",4,2588.382847,"Include"
"HUW2015_e1","HUW2015_e1_31",44,0,"JudgeOldness",2,2546.87689,"Include"
"HUW2015_e1","HUW2015_e1_31",45,0,"JudgeOldness",3,2585.010492,"Include"
"HUW2015_e1","HUW2015_e1_31",46,1,"JudgeOldness",5,1852.269192,"Include"
"HUW2015_e1","HUW2015_e1_31",47,1,"JudgeOldness",5,2459.778354,"Include"
"HUW2015_e1","HUW2015_e1_31",48,0,"JudgeOldness",1,1872.841323,"Include"
"HUW2015_e1","HUW2015_e1_31",49,1,"JudgeOldness",5,2158.072135,"Include"
"HUW2015_e1","HUW2015_e1_31",50,1,"JudgeOldness",5,2001.415208,"Include"
"HUW2015_e1","HUW2015_e1_31",51,1,"JudgeOldness",5,2663.785614,"Include"
"HUW2015_e1","HUW2015_e1_31",52,1,"JudgeOldness",5,1796.602749,"Include"
"HUW2015_e1","HUW2015_e1_31",53,0,"JudgeOldness",4,2307.269917,"Include"
"HUW2015_e1","HUW2015_e1_31",54,0,"JudgeOldness",3,2713.298246,"Include"
"HUW2015_e1","HUW2015_e1_31",55,1,"JudgeOldness",5,1390.270972,"Include"
"HUW2015_e1","HUW2015_e1_31",56,0,"JudgeOldness",2,2355.692991,"Include"
"HUW2015_e1","HUW2015_e1_31",57,1,"JudgeOldness",5,2937.574249,"Include"
"HUW2015_e1","HUW2015_e1_31",58,1,"JudgeOldness",4,2569.222593,"Include"
"HUW2015_e1","HUW2015_e1_31",59,1,"JudgeOldness",1,2758.197147,"Include"
"HUW2015_e1","HUW2015_e1_31",60,1,"JudgeOldness",4,2731.406854,"Include"
"HUW2015_e1","HUW2015_e1_31",61,1,"JudgeOldness",1,1691.857538,"Include"
"HUW2015_e1","HUW2015_e1_31",62,0,"JudgeOldness",2,2506.011278,"Include"
"HUW2015_e1","HUW2015_e1_31",63,0,"JudgeOldness",2,2686.26149,"Include"
"HUW2015_e1","HUW2015_e1_31",64,0,"JudgeOldness",1,1947.778291,"Include"
"HUW2015_e1","HUW2015_e1_31",65,0,"JudgeOldness",4,1978.449555,"Include"
"HUW2015_e1","HUW2015_e1_31",66,0,"JudgeOldness",2,2968.88355,"Include"
"HUW2015_e1","HUW2015_e1_31",67,0,"JudgeOldness",1,2166.117699,"Include"
"HUW2015_e1","HUW2015_e1_31",68,0,"JudgeOldness",1,2932.341327,"Include"
"HUW2015_e1","HUW2015_e1_31",69,0,"JudgeOldness",1,2105.882896,"Include"
"HUW2015_e1","HUW2015_e1_31",70,0,"JudgeOldness",3,2456.725835,"Include"
"HUW2015_e1","HUW2015_e1_31",71,0,"JudgeOldness",3,2718.309809,"Include"
"HUW2015_e1","HUW2015_e1_31",72,1,"JudgeOldness",5,1981.656999,"Include"
"HUW2015_e1","HUW2015_e1_31",73,1,"JudgeOldness",4,2562.636435,"Include"
"HUW2015_e1","HUW2015_e1_31",74,1,"JudgeOldness",3,2639.326066,"Include"
"HUW2015_e1","HUW2015_e1_31",75,1,"JudgeOldness",5,1748.390687,"Include"
"HUW2015_e1","HUW2015_e1_31",76,0,"JudgeOldness",3,3008.636492,"Include"
"HUW2015_e1","HUW2015_e1_31",77,1,"JudgeOldness",4,3174.207602,"Include"
"HUW2015_e1","HUW2015_e1_31",78,0,"JudgeOldness",3,3528.736765,"Include"
"HUW2015_e1","HUW2015_e1_31",79,0,"JudgeOldness",3,3327.019909,"Include"
"HUW2015_e1","HUW2015_e1_31",80,1,"JudgeOldness",2,2438.719613,"Include"
"HUW2015_e1","HUW2015_e1_31",81,1,"JudgeOldness",5,1995.682433,"Include"
"HUW2015_e1","HUW2015_e1_31",82,0,"JudgeOldness",2,3185.852462,"Include"
"HUW2015_e1","HUW2015_e1_31",83,0,"JudgeOldness",1,2062.800247,"Include"
"HUW2015_e1","HUW2015_e1_31",84,1,"JudgeOldness",2,3891.290213,"Include"
"HUW2015_e1","HUW2015_e1_31",85,1,"JudgeOldness",2,2650.988251,"Include"
"HUW2015_e1","HUW2015_e1_31",86,1,"JudgeOldness",1,2344.182787,"Include"
"HUW2015_e1","HUW2015_e1_31",87,0,"JudgeOldness",4,2998.98345,"Include"
"HUW2015_e1","HUW2015_e1_31",88,1,"JudgeOldness",5,1804.359522,"Include"
"HUW2015_e1","HUW2015_e1_31",89,1,"JudgeOldness",3,2547.009075,"Include"
"HUW2015_e1","HUW2015_e1_31",90,1,"JudgeOldness",1,2886.858852,"Include"
"HUW2015_e1","HUW2015_e1_31",91,0,"JudgeOldness",1,2557.141282,"Include"
"HUW2015_e1","HUW2015_e1_31",92,1,"JudgeOldness",5,2130.175799,"Include"
"HUW2015_e1","HUW2015_e1_31",93,0,"JudgeOldness",2,2769.023767,"Include"
"HUW2015_e1","HUW2015_e1_31",94,1,"JudgeOldness",1,3855.399439,"Include"
"HUW2015_e1","HUW2015_e1_31",95,0,"JudgeOldness",1,2421.607027,"Include"
"HUW2015_e1","HUW2015_e1_31",96,1,"JudgeOldness",4,2329.077133,"Include"
"HUW2015_e1","HUW2015_e1_31",97,0,"JudgeOldness",2,2926.057032,"Include"
"HUW2015_e1","HUW2015_e1_31",98,1,"JudgeOldness",5,1413.199146,"Include"
"HUW2015_e1","HUW2015_e1_31",99,1,"JudgeOldness",2,2619.280178,"Include"
"HUW2015_e1","HUW2015_e1_31",100,1,"JudgeOldness",5,1639.493917,"Include"
"HUW2015_e1","HUW2015_e1_31",101,1,"JudgeOldness",5,1789.645011,"Include"
"HUW2015_e1","HUW2015_e1_31",102,0,"JudgeOldness",2,3755.280409,"Include"
"HUW2015_e1","HUW2015_e1_31",103,0,"JudgeOldness",1,1346.358335,"Include"
"HUW2015_e1","HUW2015_e1_31",104,1,"JudgeOldness",5,2174.006856,"Include"
"HUW2015_e1","HUW2015_e1_31",105,1,"JudgeOldness",5,1595.538893,"Include"
"HUW2015_e1","HUW2015_e1_31",106,1,"JudgeOldness",3,3024.843376,"Include"
"HUW2015_e1","HUW2015_e1_31",107,0,"JudgeOldness",2,2501.434444,"Include"
"HUW2015_e1","HUW2015_e1_31",108,1,"JudgeOldness",5,1444.333827,"Include"
"HUW2015_e1","HUW2015_e1_31",109,0,"JudgeOldness",2,2482.844011,"Include"
"HUW2015_e1","HUW2015_e1_31",110,1,"JudgeOldness",2,2783.355914,"Include"
"HUW2015_e1","HUW2015_e1_31",111,0,"JudgeOldness",5,2389.41857,"Include"
"HUW2015_e1","HUW2015_e1_31",112,1,"JudgeOldness",4,2274.984704,"Include"
"HUW2015_e1","HUW2015_e1_31",113,1,"JudgeOldness",2,2584.987889,"Include"
"HUW2015_e1","HUW2015_e1_31",114,1,"JudgeOldness",1,3349.379651,"Include"
"HUW2015_e1","HUW2015_e1_31",115,0,"JudgeOldness",1,2523.017278,"Include"
"HUW2015_e1","HUW2015_e1_31",116,1,"JudgeOldness",2,3137.31161,"Include"
"HUW2015_e1","HUW2015_e1_31",117,0,"JudgeOldness",2,3766.853971,"Include"
"HUW2015_e1","HUW2015_e1_31",118,0,"JudgeOldness",1,2020.262366,"Include"
"HUW2015_e1","HUW2015_e1_31",119,0,"JudgeOldness",5,2415.945854,"Include"
"HUW2015_e1","HUW2015_e1_31",120,0,"JudgeOldness",3,2672.245931,"Include"
"HUW2015_e1","HUW2015_e1_31",121,1,"JudgeOldness",2,2608.536239,"Include"
"HUW2015_e1","HUW2015_e1_31",122,1,"JudgeOldness",4,2134.314179,"Include"
"HUW2015_e1","HUW2015_e1_31",123,1,"JudgeOldness",2,2443.142999,"Include"
"HUW2015_e1","HUW2015_e1_31",124,0,"JudgeOldness",4,2409.010643,"Include"
"HUW2015_e1","HUW2015_e1_31",125,0,"JudgeOldness",1,2031.303821,"Include"
"HUW2015_e1","HUW2015_e1_31",126,0,"JudgeOldness",4,2211.878463,"Include"
"HUW2015_e1","HUW2015_e1_31",127,1,"JudgeOldness",5,2306.601809,"Include"
"HUW2015_e1","HUW2015_e1_31",128,1,"JudgeOldness",2,2305.166488,"Include"
"HUW2015_e1","HUW2015_e1_31",129,1,"JudgeOldness",5,2207.939179,"Include"
"HUW2015_e1","HUW2015_e1_31",130,0,"JudgeOldness",3,2790.91494,"Include"
"HUW2015_e1","HUW2015_e1_31",131,0,"JudgeOldness",4,2153.816932,"Include"
"HUW2015_e1","HUW2015_e1_31",132,1,"JudgeOldness",2,2927.429575,"Include"
"HUW2015_e1","HUW2015_e1_31",133,1,"JudgeOldness",3,3324.368406,"Include"
"HUW2015_e1","HUW2015_e1_31",134,1,"JudgeOldness",2,2394.075581,"Include"
"HUW2015_e1","HUW2015_e1_31",135,0,"JudgeOldness",1,2681.169032,"Include"
"HUW2015_e1","HUW2015_e1_31",136,1,"JudgeOldness",3,2519.341867,"Include"
"HUW2015_e1","HUW2015_e1_31",137,1,"JudgeOldness",3,3591.900416,"Include"
"HUW2015_e1","HUW2015_e1_31",138,1,"JudgeOldness",4,2675.026757,"Include"
"HUW2015_e1","HUW2015_e1_31",139,1,"JudgeOldness",5,1753.712072,"Include"
"HUW2015_e1","HUW2015_e1_31",140,0,"JudgeOldness",4,2287.575264,"Include"
"HUW2015_e1","HUW2015_e1_31",141,1,"JudgeOldness",5,1388.252766,"Include"
"HUW2015_e1","HUW2015_e1_31",142,0,"JudgeOldness",1,2362.540304,"Include"
"HUW2015_e1","HUW2015_e1_31",143,1,"JudgeOldness",2,2504.088982,"Include"
"HUW2015_e1","HUW2015_e1_31",144,1,"JudgeOldness",4,2420.074784,"Include"
"HUW2015_e1","HUW2015_e1_31",145,1,"JudgeOldness",5,1970.540251,"Include"
"HUW2015_e1","HUW2015_e1_31",146,0,"JudgeOldness",2,2759.115286,"Include"
"HUW2015_e1","HUW2015_e1_31",147,0,"JudgeOldness",1,2101.56396,"Include"
"HUW2015_e1","HUW2015_e1_31",148,1,"JudgeOldness",4,2147.148167,"Include"
"HUW2015_e1","HUW2015_e1_31",149,1,"JudgeOldness",3,3050.408926,"Include"
"HUW2015_e1","HUW2015_e1_31",150,1,"JudgeOldness",5,1436.50338,"Include"
"HUW2015_e1","HUW2015_e1_31",151,0,"JudgeOldness",2,2778.189642,"Include"
"HUW2015_e1","HUW2015_e1_31",152,0,"JudgeOldness",4,3134.379701,"Include"
"HUW2015_e1","HUW2015_e1_31",153,0,"JudgeOldness",5,1860.757715,"Include"
"HUW2015_e1","HUW2015_e1_31",154,0,"JudgeOldness",2,2435.044584,"Include"
"HUW2015_e1","HUW2015_e1_31",155,1,"JudgeOldness",5,1415.006906,"Include"
"HUW2015_e1","HUW2015_e1_31",156,0,"JudgeOldness",1,2340.68206,"Include"
"HUW2015_e1","HUW2015_e1_31",157,0,"JudgeOldness",2,2555.121095,"Include"
"HUW2015_e1","HUW2015_e1_31",158,0,"JudgeOldness",5,2281.772256,"Include"
"HUW2015_e1","HUW2015_e1_31",159,0,"JudgeOldness",1,2744.158338,"Include"
"HUW2015_e1","HUW2015_e1_31",160,0,"JudgeOldness",5,1502.476097,"Include"
"HUW2015_e1","HUW2015_e1_31",161,1,"JudgeOldness",4,1355.356594,"Include"
"HUW2015_e1","HUW2015_e1_31",162,1,"JudgeOldness",2,3071.727155,"Include"
"HUW2015_e1","HUW2015_e1_31",163,0,"JudgeOldness",2,2852.14408,"Include"
"HUW2015_e1","HUW2015_e1_31",164,1,"JudgeOldness",1,2530.123883,"Include"
"HUW2015_e1","HUW2015_e1_31",165,1,"JudgeOldness",5,2398.831212,"Include"
"HUW2015_e1","HUW2015_e1_31",166,0,"JudgeOldness",5,2204.014517,"Include"
"HUW2015_e1","HUW2015_e1_31",167,0,"JudgeOldness",2,2897.312153,"Include"
"HUW2015_e1","HUW2015_e1_31",168,0,"JudgeOldness",2,2326.477603,"Include"
"HUW2015_e1","HUW2015_e1_31",169,0,"JudgeOldness",2,1852.371521,"Include"
"HUW2015_e1","HUW2015_e1_31",170,1,"JudgeOldness",4,2890.787104,"Include"
"HUW2015_e1","HUW2015_e1_31",171,1,"JudgeOldness",5,1767.154334,"Include"
"HUW2015_e1","HUW2015_e1_31",172,0,"JudgeOldness",1,2597.599652,"Include"
"HUW2015_e1","HUW2015_e1_31",173,0,"JudgeOldness",1,2787.177989,"Include"
"HUW2015_e1","HUW2015_e1_31",174,1,"JudgeOldness",2,2746.125976,"Include"
"HUW2015_e1","HUW2015_e1_31",175,0,"JudgeOldness",4,2615.970145,"Include"
"HUW2015_e1","HUW2015_e1_31",176,0,"JudgeOldness",3,2534.671545,"Include"
"HUW2015_e1","HUW2015_e1_31",177,0,"JudgeOldness",2,3897.811039,"Include"
"HUW2015_e1","HUW2015_e1_31",178,1,"JudgeOldness",2,2534.679726,"Include"
"HUW2015_e1","HUW2015_e1_31",179,0,"JudgeOldness",1,3045.704077,"Include"
"HUW2015_e1","HUW2015_e1_31",180,1,"JudgeOldness",4,3898.210423,"Include"
"HUW2015_e1","HUW2015_e1_31",181,1,"JudgeOldness",4,2373.230027,"Include"
"HUW2015_e1","HUW2015_e1_31",182,1,"JudgeOldness",1,2083.698366,"Include"
"HUW2015_e1","HUW2015_e1_31",183,0,"JudgeOldness",1,2487.669857,"Include"
"HUW2015_e1","HUW2015_e1_31",184,1,"JudgeOldness",5,2077.941732,"Include"
"HUW2015_e1","HUW2015_e1_31",185,1,"JudgeOldness",5,1698.546075,"Include"
"HUW2015_e1","HUW2015_e1_31",186,1,"JudgeOldness",4,1734.447724,"Include"
"HUW2015_e1","HUW2015_e1_31",187,1,"JudgeOldness",3,3122.836253,"Include"
"HUW2015_e1","HUW2015_e1_31",188,1,"JudgeOldness",5,1976.762875,"Include"
"HUW2015_e1","HUW2015_e1_31",189,1,"JudgeOldness",4,2352.39561,"Include"
"HUW2015_e1","HUW2015_e1_31",190,1,"JudgeOldness",4,2300.125119,"Include"
"HUW2015_e1","HUW2015_e1_31",191,0,"JudgeOldness",3,2162.58188,"Include"
"HUW2015_e1","HUW2015_e1_31",192,1,"JudgeOldness",5,2024.555155,"Include"
"HUW2015_e1","HUW2015_e1_31",193,1,"JudgeOldness",5,1726.139774,"Include"
"HUW2015_e1","HUW2015_e1_31",194,0,"JudgeOldness",2,2490.976332,"Include"
"HUW2015_e1","HUW2015_e1_31",195,1,"JudgeOldness",2,2552.929651,"Include"
"HUW2015_e1","HUW2015_e1_31",196,1,"JudgeOldness",5,1856.173533,"Include"
"HUW2015_e1","HUW2015_e1_31",197,0,"JudgeOldness",5,2118.010767,"Include"
"HUW2015_e1","HUW2015_e1_31",198,1,"JudgeOldness",5,2460.72784,"Include"
"HUW2015_e1","HUW2015_e1_31",199,0,"JudgeOldness",2,2619.231635,"Include"
"HUW2015_e1","HUW2015_e1_31",200,1,"JudgeOldness",2,3087.612977,"Include"
"HUW2015_e1","HUW2015_e1_31",201,1,"JudgeOldness",5,1477.678042,"Include"
"HUW2015_e1","HUW2015_e1_31",202,0,"JudgeOldness",3,2571.25046,"Include"
"HUW2015_e1","HUW2015_e1_31",203,1,"JudgeOldness",5,2153.861268,"Include"
"HUW2015_e1","HUW2015_e1_31",204,1,"JudgeOldness",4,2287.36888,"Include"
"HUW2015_e1","HUW2015_e1_31",205,0,"JudgeOldness",2,2229.73997,"Include"
"HUW2015_e1","HUW2015_e1_31",206,1,"JudgeOldness",2,2226.717285,"Include"
"HUW2015_e1","HUW2015_e1_31",207,1,"JudgeOldness",4,3144.20099,"Include"
"HUW2015_e1","HUW2015_e1_31",208,1,"JudgeOldness",1,1725.57219,"Include"
"HUW2015_e1","HUW2015_e1_31",209,0,"JudgeOldness",5,2594.140537,"Include"
"HUW2015_e1","HUW2015_e1_31",210,0,"JudgeOldness",4,2625.584948,"Include"
"HUW2015_e1","HUW2015_e1_31",211,0,"JudgeOldness",3,2268.470573,"Include"
"HUW2015_e1","HUW2015_e1_31",212,1,"JudgeOldness",4,2266.473693,"Include"
"HUW2015_e1","HUW2015_e1_31",213,0,"JudgeOldness",1,1448.805186,"Include"
"HUW2015_e1","HUW2015_e1_31",214,1,"JudgeOldness",2,2382.566043,"Include"
"HUW2015_e1","HUW2015_e1_31",215,1,"JudgeOldness",3,2331.609689,"Include"
"HUW2015_e1","HUW2015_e1_31",216,0,"JudgeOldness",1,2334.806615,"Include"
"HUW2015_e1","HUW2015_e1_31",217,0,"JudgeOldness",1,2581.12177,"Include"
"HUW2015_e1","HUW2015_e1_31",218,1,"JudgeOldness",5,1571.964024,"Include"
"HUW2015_e1","HUW2015_e1_31",219,0,"JudgeOldness",5,1993.055533,"Include"
"HUW2015_e1","HUW2015_e1_31",220,0,"JudgeOldness",1,1991.720567,"Include"
"HUW2015_e1","HUW2015_e1_31",221,1,"JudgeOldness",2,2491.998173,"Include"
"HUW2015_e1","HUW2015_e1_31",222,1,"JudgeOldness",4,2241.363356,"Include"
"HUW2015_e1","HUW2015_e1_31",223,0,"JudgeOldness",2,2439.153309,"Include"
"HUW2015_e1","HUW2015_e1_31",224,0,"JudgeOldness",4,2595.864824,"Include"
"HUW2015_e1","HUW2015_e1_31",225,0,"JudgeOldness",3,1801.554561,"Include"
"HUW2015_e1","HUW2015_e1_31",226,1,"JudgeOldness",4,2360.262752,"Include"
"HUW2015_e1","HUW2015_e1_31",227,0,"JudgeOldness",3,2699.096124,"Include"
"HUW2015_e1","HUW2015_e1_31",228,0,"JudgeOldness",2,2337.407342,"Include"
"HUW2015_e1","HUW2015_e1_31",229,0,"JudgeOldness",1,2279.077228,"Include"
"HUW2015_e1","HUW2015_e1_31",230,0,"JudgeOldness",2,2596.825576,"Include"
"HUW2015_e1","HUW2015_e1_31",231,0,"JudgeOldness",NA,0,"Exclude"
"HUW2015_e1","HUW2015_e1_31",232,0,"JudgeOldness",1,2713.588151,"Include"
"HUW2015_e1","HUW2015_e1_31",233,0,"JudgeOldness",2,2493.814653,"Include"
"HUW2015_e1","HUW2015_e1_31",234,0,"JudgeOldness",3,2540.98372,"Include"
"HUW2015_e1","HUW2015_e1_31",235,1,"JudgeOldness",5,2778.602333,"Include"
"HUW2015_e1","HUW2015_e1_31",236,0,"JudgeOldness",4,2129.274002,"Include"
"HUW2015_e1","HUW2015_e1_31",237,0,"JudgeOldness",3,2581.242997,"Include"
"HUW2015_e1","HUW2015_e1_31",238,0,"JudgeOldness",2,3011.749735,"Include"
"HUW2015_e1","HUW2015_e1_31",239,1,"JudgeOldness",4,2929.513883,"Include"
"HUW2015_e1","HUW2015_e1_31",240,0,"JudgeOldness",1,2838.503125,"Include"
"HUW2015_e1","HUW2015_e1_31",241,1,"JudgeOldness",2,2397.501112,"Include"
"HUW2015_e1","HUW2015_e1_31",242,1,"JudgeOldness",5,1395.605335,"Include"
"HUW2015_e1","HUW2015_e1_31",243,1,"JudgeOldness",5,2001.872455,"Include"
"HUW2015_e1","HUW2015_e1_31",244,1,"JudgeOldness",3,2342.951843,"Include"
"HUW2015_e1","HUW2015_e1_31",245,0,"JudgeOldness",4,2398.76467,"Include"
"HUW2015_e1","HUW2015_e1_31",246,1,"JudgeOldness",5,1571.109535,"Include"
"HUW2015_e1","HUW2015_e1_31",247,1,"JudgeOldness",1,2785.893172,"Include"
"HUW2015_e1","HUW2015_e1_31",248,0,"JudgeOldness",3,2520.285341,"Include"
"HUW2015_e1","HUW2015_e1_31",249,1,"JudgeOldness",2,2854.149803,"Include"
"HUW2015_e1","HUW2015_e1_31",250,0,"JudgeOldness",1,2226.912113,"Include"
"HUW2015_e1","HUW2015_e1_31",251,1,"JudgeOldness",4,2224.753143,"Include"
"HUW2015_e1","HUW2015_e1_31",252,1,"JudgeOldness",5,1800.620199,"Include"
"HUW2015_e1","HUW2015_e1_31",253,1,"JudgeOldness",2,2461.817422,"Include"
"HUW2015_e1","HUW2015_e1_31",254,1,"JudgeOldness",2,2620.181312,"Include"
"HUW2015_e1","HUW2015_e1_31",255,1,"JudgeOldness",4,2543.937598,"Include"
"HUW2015_e1","HUW2015_e1_31",256,0,"JudgeOldness",2,2542.315805,"Include"
"HUW2015_e1","HUW2015_e1_31",257,1,"JudgeOldness",5,1843.99831,"Include"
"HUW2015_e1","HUW2015_e1_31",258,0,"JudgeOldness",2,2432.876082,"Include"
"HUW2015_e1","HUW2015_e1_31",259,1,"JudgeOldness",2,2375.300759,"Include"
"HUW2015_e1","HUW2015_e1_31",260,1,"JudgeOldness",5,1693.583142,"Include"
"HUW2015_e1","HUW2015_e1_31",261,1,"JudgeOldness",2,3105.722058,"Include"
"HUW2015_e1","HUW2015_e1_31",262,1,"JudgeOldness",4,3135.744988,"Include"
"HUW2015_e1","HUW2015_e1_31",263,0,"JudgeOldness",1,2261.575654,"Include"
"HUW2015_e1","HUW2015_e1_31",264,1,"JudgeOldness",2,2775.67827,"Include"
"HUW2015_e1","HUW2015_e1_31",265,0,"JudgeOldness",2,2542.738718,"Include"
"HUW2015_e1","HUW2015_e1_31",266,1,"JudgeOldness",3,2635.713109,"Include"
"HUW2015_e1","HUW2015_e1_31",267,0,"JudgeOldness",2,2407.895502,"Include"
"HUW2015_e1","HUW2015_e1_31",268,0,"JudgeOldness",1,2909.321783,"Include"
"HUW2015_e1","HUW2015_e1_31",269,0,"JudgeOldness",2,2465.679193,"Include"
"HUW2015_e1","HUW2015_e1_31",270,0,"JudgeOldness",4,2534.456886,"Include"
"HUW2015_e1","HUW2015_e1_31",271,1,"JudgeOldness",5,1836.740219,"Include"
"HUW2015_e1","HUW2015_e1_31",272,0,"JudgeOldness",3,3042.622967,"Include"
"HUW2015_e1","HUW2015_e1_31",273,1,"JudgeOldness",2,3329.175372,"Include"
"HUW2015_e1","HUW2015_e1_31",274,0,"JudgeOldness",2,2783.163057,"Include"
"HUW2015_e1","HUW2015_e1_31",275,0,"JudgeOldness",2,2771.605704,"Include"
"HUW2015_e1","HUW2015_e1_31",276,0,"JudgeOldness",3,2729.230378,"Include"
"HUW2015_e1","HUW2015_e1_31",277,0,"JudgeOldness",2,2767.429476,"Include"
"HUW2015_e1","HUW2015_e1_31",278,1,"JudgeOldness",4,1912.15673,"Include"
"HUW2015_e1","HUW2015_e1_31",279,1,"JudgeOldness",4,2033.848034,"Include"
"HUW2015_e1","HUW2015_e1_31",280,0,"JudgeOldness",1,3112.328184,"Include"
"HUW2015_e1","HUW2015_e1_31",281,0,"JudgeOldness",2,2252.591526,"Include"
"HUW2015_e1","HUW2015_e1_31",282,0,"JudgeOldness",2,3714.600867,"Include"
"HUW2015_e1","HUW2015_e1_31",283,0,"JudgeOldness",2,3768.144601,"Include"
"HUW2015_e1","HUW2015_e1_31",284,0,"JudgeOldness",1,2293.615337,"Include"
"HUW2015_e1","HUW2015_e1_31",285,0,"JudgeOldness",1,1820.980331,"Include"
"HUW2015_e1","HUW2015_e1_31",286,1,"JudgeOldness",3,3202.735259,"Include"
"HUW2015_e1","HUW2015_e1_31",287,1,"JudgeOldness",1,2224.984435,"Include"
"HUW2015_e1","HUW2015_e1_31",288,0,"JudgeOldness",4,2483.798222,"Include"
"HUW2015_e1","HUW2015_e1_31",289,1,"JudgeOldness",4,2320.914376,"Include"
"HUW2015_e1","HUW2015_e1_31",290,0,"JudgeOldness",1,2671.949515,"Include"
"HUW2015_e1","HUW2015_e1_31",291,0,"JudgeOldness",3,3013.451174,"Include"
"HUW2015_e1","HUW2015_e1_31",292,0,"JudgeOldness",3,2315.301825,"Include"
"HUW2015_e1","HUW2015_e1_31",293,1,"JudgeOldness",4,2304.420048,"Include"
"HUW2015_e1","HUW2015_e1_31",294,0,"JudgeOldness",2,2006.315324,"Include"
"HUW2015_e1","HUW2015_e1_31",295,1,"JudgeOldness",3,3381.300232,"Include"
"HUW2015_e1","HUW2015_e1_31",296,0,"JudgeOldness",5,1974.55601,"Include"
"HUW2015_e1","HUW2015_e1_31",297,0,"JudgeOldness",3,2397.193448,"Include"
"HUW2015_e1","HUW2015_e1_31",298,0,"JudgeOldness",2,3051.376633,"Include"
"HUW2015_e1","HUW2015_e1_31",299,1,"JudgeOldness",5,2680.532168,"Include"
"HUW2015_e1","HUW2015_e1_31",300,1,"JudgeOldness",3,2558.618116,"Include"
"HUW2015_e1","HUW2015_e1_25",1,1,"JudgeNewness",1,3165.034134,"Include"
"HUW2015_e1","HUW2015_e1_25",2,0,"JudgeNewness",1,2594.910879,"Include"
"HUW2015_e1","HUW2015_e1_25",3,1,"JudgeNewness",3,2920.99819,"Include"
"HUW2015_e1","HUW2015_e1_25",4,0,"JudgeNewness",5,3966.095809,"Include"
"HUW2015_e1","HUW2015_e1_25",5,0,"JudgeNewness",5,1860.797542,"Include"
"HUW2015_e1","HUW2015_e1_25",6,1,"JudgeNewness",1,2651.222538,"Include"
"HUW2015_e1","HUW2015_e1_25",7,1,"JudgeNewness",1,3521.000038,"Include"
"HUW2015_e1","HUW2015_e1_25",8,0,"JudgeNewness",3,3391.716708,"Include"
"HUW2015_e1","HUW2015_e1_25",9,0,"JudgeNewness",2,3356.140639,"Include"
"HUW2015_e1","HUW2015_e1_25",10,0,"JudgeNewness",2,3435.951365,"Include"
"HUW2015_e1","HUW2015_e1_25",11,1,"JudgeNewness",3,3424.547285,"Include"
"HUW2015_e1","HUW2015_e1_25",12,0,"JudgeNewness",3,2534.484993,"Include"
"HUW2015_e1","HUW2015_e1_25",13,0,"JudgeNewness",1,1965.487369,"Include"
"HUW2015_e1","HUW2015_e1_25",14,1,"JudgeNewness",5,2922.256437,"Include"
"HUW2015_e1","HUW2015_e1_25",15,1,"JudgeNewness",4,2615.874,"Include"
"HUW2015_e1","HUW2015_e1_25",16,1,"JudgeNewness",5,2515.171841,"Include"
"HUW2015_e1","HUW2015_e1_25",17,0,"JudgeNewness",1,2690.565099,"Include"
"HUW2015_e1","HUW2015_e1_25",18,1,"JudgeNewness",5,1534.805646,"Include"
"HUW2015_e1","HUW2015_e1_25",19,1,"JudgeNewness",5,1667.778399,"Include"
"HUW2015_e1","HUW2015_e1_25",20,1,"JudgeNewness",5,1514.123259,"Include"
"HUW2015_e1","HUW2015_e1_25",21,0,"JudgeNewness",2,2583.472752,"Include"
"HUW2015_e1","HUW2015_e1_25",22,1,"JudgeNewness",5,2085.887182,"Include"
"HUW2015_e1","HUW2015_e1_25",23,0,"JudgeNewness",1,2922.721141,"Include"
"HUW2015_e1","HUW2015_e1_25",24,0,"JudgeNewness",3,2885.611982,"Include"
"HUW2015_e1","HUW2015_e1_25",25,1,"JudgeNewness",5,2100.620873,"Include"
"HUW2015_e1","HUW2015_e1_25",26,0,"JudgeNewness",4,3361.883994,"Include"
"HUW2015_e1","HUW2015_e1_25",27,0,"JudgeNewness",5,2246.946513,"Include"
"HUW2015_e1","HUW2015_e1_25",28,0,"JudgeNewness",2,1797.330526,"Include"
"HUW2015_e1","HUW2015_e1_25",29,1,"JudgeNewness",4,3923.177222,"Include"
"HUW2015_e1","HUW2015_e1_25",30,0,"JudgeNewness",3,2456.924645,"Include"
"HUW2015_e1","HUW2015_e1_25",31,0,"JudgeNewness",2,3168.034557,"Include"
"HUW2015_e1","HUW2015_e1_25",32,1,"JudgeNewness",5,1858.986037,"Include"
"HUW2015_e1","HUW2015_e1_25",33,0,"JudgeNewness",5,1017.33374,"Include"
"HUW2015_e1","HUW2015_e1_25",34,0,"JudgeNewness",2,2799.442252,"Include"
"HUW2015_e1","HUW2015_e1_25",35,1,"JudgeNewness",5,1389.592266,"Include"
"HUW2015_e1","HUW2015_e1_25",36,0,"JudgeNewness",3,2465.637676,"Include"
"HUW2015_e1","HUW2015_e1_25",37,0,"JudgeNewness",2,3622.886476,"Include"
"HUW2015_e1","HUW2015_e1_25",38,1,"JudgeNewness",1,2014.430491,"Include"
"HUW2015_e1","HUW2015_e1_25",39,0,"JudgeNewness",2,2484.386148,"Include"
"HUW2015_e1","HUW2015_e1_25",40,1,"JudgeNewness",5,1264.40712,"Include"
"HUW2015_e1","HUW2015_e1_25",41,1,"JudgeNewness",5,934.432246,"Include"
"HUW2015_e1","HUW2015_e1_25",42,0,"JudgeNewness",3,2913.766031,"Include"
"HUW2015_e1","HUW2015_e1_25",43,0,"JudgeNewness",2,2680.76444,"Include"
"HUW2015_e1","HUW2015_e1_25",44,0,"JudgeNewness",5,1806.398475,"Include"
"HUW2015_e1","HUW2015_e1_25",45,0,"JudgeNewness",2,3300.707249,"Include"
"HUW2015_e1","HUW2015_e1_25",46,1,"JudgeNewness",5,1448.470864,"Include"
"HUW2015_e1","HUW2015_e1_25",47,1,"JudgeNewness",5,847.042934,"Include"
"HUW2015_e1","HUW2015_e1_25",48,0,"JudgeNewness",2,2507.285419,"Include"
"HUW2015_e1","HUW2015_e1_25",49,1,"JudgeNewness",5,2632.704877,"Include"
"HUW2015_e1","HUW2015_e1_25",50,1,"JudgeNewness",5,1389.287845,"Include"
"HUW2015_e1","HUW2015_e1_25",51,1,"JudgeNewness",5,1186.699488,"Include"
"HUW2015_e1","HUW2015_e1_25",52,1,"JudgeNewness",NA,0,"Exclude"
"HUW2015_e1","HUW2015_e1_25",53,0,"JudgeNewness",5,1166.327145,"Include"
"HUW2015_e1","HUW2015_e1_25",54,0,"JudgeNewness",5,2266.67685,"Include"
"HUW2015_e1","HUW2015_e1_25",55,1,"JudgeNewness",5,961.82434,"Include"
"HUW2015_e1","HUW2015_e1_25",56,0,"JudgeNewness",2,2848.191435,"Include"
"HUW2015_e1","HUW2015_e1_25",57,1,"JudgeNewness",5,2310.163566,"Include"
"HUW2015_e1","HUW2015_e1_25",58,1,"JudgeNewness",5,1964.091764,"Include"
"HUW2015_e1","HUW2015_e1_25",59,1,"JudgeNewness",3,2233.702636,"Include"
"HUW2015_e1","HUW2015_e1_25",60,1,"JudgeNewness",5,2102.956068,"Include"
"HUW2015_e1","HUW2015_e1_25",61,1,"JudgeNewness",3,3184.335562,"Include"
"HUW2015_e1","HUW2015_e1_25",62,0,"JudgeNewness",3,2558.946177,"Include"
"HUW2015_e1","HUW2015_e1_25",63,0,"JudgeNewness",4,3770.001271,"Include"
"HUW2015_e1","HUW2015_e1_25",64,0,"JudgeNewness",NA,0,"Exclude"
"HUW2015_e1","HUW2015_e1_25",65,0,"JudgeNewness",NA,0,"Exclude"
"HUW2015_e1","HUW2015_e1_25",66,0,"JudgeNewness",1,3917.709383,"Include"
"HUW2015_e1","HUW2015_e1_25",67,0,"JudgeNewness",1,3858.382016,"Include"
"HUW2015_e1","HUW2015_e1_25",68,0,"JudgeNewness",NA,0,"Exclude"
"HUW2015_e1","HUW2015_e1_25",69,0,"JudgeNewness",1,2783.394357,"Include"
"HUW2015_e1","HUW2015_e1_25",70,0,"JudgeNewness",NA,0,"Exclude"
"HUW2015_e1","HUW2015_e1_25",71,0,"JudgeNewness",3,419.738558,"Include"
"HUW2015_e1","HUW2015_e1_25",72,1,"JudgeNewness",5,2849.198321,"Include"
"HUW2015_e1","HUW2015_e1_25",73,1,"JudgeNewness",5,2200.384481,"Include"
"HUW2015_e1","HUW2015_e1_25",74,1,"JudgeNewness",3,3132.066644,"Include"
"HUW2015_e1","HUW2015_e1_25",75,1,"JudgeNewness",5,2097.866258,"Include"
"HUW2015_e1","HUW2015_e1_25",76,0,"JudgeNewness",NA,0,"Exclude"
"HUW2015_e1","HUW2015_e1_25",77,1,"JudgeNewness",3,3946.255238,"Include"
"HUW2015_e1","HUW2015_e1_25",78,0,"JudgeNewness",5,2823.160605,"Include"
"HUW2015_e1","HUW2015_e1_25",79,0,"JudgeNewness",NA,0,"Exclude"
"HUW2015_e1","HUW2015_e1_25",80,1,"JudgeNewness",3,412.293451,"Include"
"HUW2015_e1","HUW2015_e1_25",81,1,"JudgeNewness",1,3583.641397,"Include"
"HUW2015_e1","HUW2015_e1_25",82,0,"JudgeNewness",1,2462.661278,"Include"
"HUW2015_e1","HUW2015_e1_25",83,0,"JudgeNewness",4,2412.618983,"Include"
"HUW2015_e1","HUW2015_e1_25",84,1,"JudgeNewness",1,3185.568893,"Include"
"HUW2015_e1","HUW2015_e1_25",85,1,"JudgeNewness",5,2326.965137,"Include"
"HUW2015_e1","HUW2015_e1_25",86,1,"JudgeNewness",3,2758.00774,"Include"
"HUW2015_e1","HUW2015_e1_25",87,0,"JudgeNewness",5,2868.433066,"Include"
"HUW2015_e1","HUW2015_e1_25",88,1,"JudgeNewness",5,2169.838497,"Include"
"HUW2015_e1","HUW2015_e1_25",89,1,"JudgeNewness",5,1688.047028,"Include"
"HUW2015_e1","HUW2015_e1_25",90,1,"JudgeNewness",5,2372.570388,"Include"
"HUW2015_e1","HUW2015_e1_25",91,0,"JudgeNewness",4,2386.162004,"Include"
"HUW2015_e1","HUW2015_e1_25",92,1,"JudgeNewness",2,2582.68727,"Include"
"HUW2015_e1","HUW2015_e1_25",93,0,"JudgeNewness",1,3077.242101,"Include"
"HUW2015_e1","HUW2015_e1_25",94,1,"JudgeNewness",5,2357.365434,"Include"
"HUW2015_e1","HUW2015_e1_25",95,0,"JudgeNewness",2,3275.725182,"Include"
"HUW2015_e1","HUW2015_e1_25",96,1,"JudgeNewness",5,1422.332636,"Include"
"HUW2015_e1","HUW2015_e1_25",97,0,"JudgeNewness",5,1347.167188,"Include"
"HUW2015_e1","HUW2015_e1_25",98,1,"JudgeNewness",1,1649.890502,"Include"
"HUW2015_e1","HUW2015_e1_25",99,1,"JudgeNewness",1,2624.682428,"Include"
"HUW2015_e1","HUW2015_e1_25",100,1,"JudgeNewness",1,2316.206118,"Include"
"HUW2015_e1","HUW2015_e1_25",101,1,"JudgeNewness",5,1986.862668,"Include"
"HUW2015_e1","HUW2015_e1_25",102,0,"JudgeNewness",3,2880.966795,"Include"
"HUW2015_e1","HUW2015_e1_25",103,0,"JudgeNewness",1,1336.124374,"Include"
"HUW2015_e1","HUW2015_e1_25",104,1,"JudgeNewness",5,1466.856516,"Include"
"HUW2015_e1","HUW2015_e1_25",105,1,"JudgeNewness",5,1936.564413,"Include"
"HUW2015_e1","HUW2015_e1_25",106,1,"JudgeNewness",NA,0,"Exclude"
"HUW2015_e1","HUW2015_e1_25",107,0,"JudgeNewness",1,1715.644146,"Include"
"HUW2015_e1","HUW2015_e1_25",108,1,"JudgeNewness",5,1169.639882,"Include"
"HUW2015_e1","HUW2015_e1_25",109,0,"JudgeNewness",4,1936.153721,"Include"
"HUW2015_e1","HUW2015_e1_25",110,1,"JudgeNewness",1,2588.798344,"Include"
"HUW2015_e1","HUW2015_e1_25",111,0,"JudgeNewness",1,2915.357939,"Include"
"HUW2015_e1","HUW2015_e1_25",112,1,"JudgeNewness",4,2303.619812,"Include"
"HUW2015_e1","HUW2015_e1_25",113,1,"JudgeNewness",5,1613.880015,"Include"
"HUW2015_e1","HUW2015_e1_25",114,1,"JudgeNewness",2,2770.366569,"Include"
"HUW2015_e1","HUW2015_e1_25",115,0,"JudgeNewness",5,1824.409742,"Include"
"HUW2015_e1","HUW2015_e1_25",116,1,"JudgeNewness",5,2560.917328,"Include"
"HUW2015_e1","HUW2015_e1_25",117,0,"JudgeNewness",2,2454.452045,"Include"
"HUW2015_e1","HUW2015_e1_25",118,0,"JudgeNewness",1,1960.868217,"Include"
"HUW2015_e1","HUW2015_e1_25",119,0,"JudgeNewness",1,3149.573369,"Include"
"HUW2015_e1","HUW2015_e1_25",120,0,"JudgeNewness",1,1796.27622,"Include"
"HUW2015_e1","HUW2015_e1_25",121,1,"JudgeNewness",1,3351.435461,"Include"
"HUW2015_e1","HUW2015_e1_25",122,1,"JudgeNewness",3,3756.973448,"Include"
"HUW2015_e1","HUW2015_e1_25",123,1,"JudgeNewness",5,1690.359756,"Include"
"HUW2015_e1","HUW2015_e1_25",124,0,"JudgeNewness",2,3296.629923,"Include"
"HUW2015_e1","HUW2015_e1_25",125,0,"JudgeNewness",5,2453.777886,"Include"
"HUW2015_e1","HUW2015_e1_25",126,0,"JudgeNewness",3,3059.391201,"Include"
"HUW2015_e1","HUW2015_e1_25",127,1,"JudgeNewness",5,1553.322999,"Include"
"HUW2015_e1","HUW2015_e1_25",128,1,"JudgeNewness",5,1367.642697,"Include"
"HUW2015_e1","HUW2015_e1_25",129,1,"JudgeNewness",5,2358.380532,"Include"
"HUW2015_e1","HUW2015_e1_25",130,0,"JudgeNewness",5,3314.996193,"Include"
"HUW2015_e1","HUW2015_e1_25",131,0,"JudgeNewness",NA,0,"Exclude"
"HUW2015_e1","HUW2015_e1_25",132,1,"JudgeNewness",5,3262.199547,"Include"
"HUW2015_e1","HUW2015_e1_25",133,1,"JudgeNewness",2,2556.052146,"Include"
"HUW2015_e1","HUW2015_e1_25",134,1,"JudgeNewness",5,1232.959814,"Include"
"HUW2015_e1","HUW2015_e1_25",135,0,"JudgeNewness",NA,0,"Exclude"
"HUW2015_e1","HUW2015_e1_25",136,1,"JudgeNewness",5,2262.551452,"Include"
"HUW2015_e1","HUW2015_e1_25",137,1,"JudgeNewness",2,3420.414576,"Include"
"HUW2015_e1","HUW2015_e1_25",138,1,"JudgeNewness",1,2066.964775,"Include"
"HUW2015_e1","HUW2015_e1_25",139,1,"JudgeNewness",3,2777.232845,"Include"
"HUW2015_e1","HUW2015_e1_25",140,0,"JudgeNewness",5,1126.787475,"Include"
"HUW2015_e1","HUW2015_e1_25",141,1,"JudgeNewness",5,3634.671796,"Include"
"HUW2015_e1","HUW2015_e1_25",142,0,"JudgeNewness",3,3032.952709,"Include"
"HUW2015_e1","HUW2015_e1_25",143,1,"JudgeNewness",5,1271.377514,"Include"
"HUW2015_e1","HUW2015_e1_25",144,1,"JudgeNewness",3,3522.114251,"Include"
"HUW2015_e1","HUW2015_e1_25",145,1,"JudgeNewness",4,1921.736629,"Include"
"HUW2015_e1","HUW2015_e1_25",146,0,"JudgeNewness",3,2806.427984,"Include"
"HUW2015_e1","HUW2015_e1_25",147,0,"JudgeNewness",2,3188.837838,"Include"
"HUW2015_e1","HUW2015_e1_25",148,1,"JudgeNewness",5,2970.774338,"Include"
"HUW2015_e1","HUW2015_e1_25",149,1,"JudgeNewness",1,3400.824056,"Include"
"HUW2015_e1","HUW2015_e1_25",150,1,"JudgeNewness",2,3236.015598,"Include"
"HUW2015_e1","HUW2015_e1_25",151,0,"JudgeNewness",2,3680.822184,"Include"
"HUW2015_e1","HUW2015_e1_25",152,0,"JudgeNewness",4,2893.209745,"Include"
"HUW2015_e1","HUW2015_e1_25",153,0,"JudgeNewness",2,3092.426666,"Include"
"HUW2015_e1","HUW2015_e1_25",154,0,"JudgeNewness",4,3242.060453,"Include"
"HUW2015_e1","HUW2015_e1_25",155,1,"JudgeNewness",2,3668.591945,"Include"
"HUW2015_e1","HUW2015_e1_25",156,0,"JudgeNewness",1,1876.440712,"Include"
"HUW2015_e1","HUW2015_e1_25",157,0,"JudgeNewness",5,1450.497546,"Include"
"HUW2015_e1","HUW2015_e1_25",158,0,"JudgeNewness",3,2625.188988,"Include"
"HUW2015_e1","HUW2015_e1_25",159,0,"JudgeNewness",5,1567.364412,"Include"
"HUW2015_e1","HUW2015_e1_25",160,0,"JudgeNewness",5,1356.468486,"Include"
"HUW2015_e1","HUW2015_e1_25",161,1,"JudgeNewness",5,2112.763048,"Include"
"HUW2015_e1","HUW2015_e1_25",162,1,"JudgeNewness",5,1207.239397,"Include"
"HUW2015_e1","HUW2015_e1_25",163,0,"JudgeNewness",3,1810.956691,"Include"
"HUW2015_e1","HUW2015_e1_25",164,1,"JudgeNewness",5,1610.220647,"Include"
"HUW2015_e1","HUW2015_e1_25",165,1,"JudgeNewness",5,1654.413833,"Include"
"HUW2015_e1","HUW2015_e1_25",166,0,"JudgeNewness",1,2947.629625,"Include"
"HUW2015_e1","HUW2015_e1_25",167,0,"JudgeNewness",2,3143.916904,"Include"
"HUW2015_e1","HUW2015_e1_25",168,0,"JudgeNewness",3,2445.394502,"Include"
"HUW2015_e1","HUW2015_e1_25",169,0,"JudgeNewness",1,2426.817129,"Include"
"HUW2015_e1","HUW2015_e1_25",170,1,"JudgeNewness",5,1545.361825,"Include"
"HUW2015_e1","HUW2015_e1_25",171,1,"JudgeNewness",3,2069.910889,"Include"
"HUW2015_e1","HUW2015_e1_25",172,0,"JudgeNewness",4,2500.858725,"Include"
"HUW2015_e1","HUW2015_e1_25",173,0,"JudgeNewness",5,1289.979149,"Include"
"HUW2015_e1","HUW2015_e1_25",174,1,"JudgeNewness",3,2264.638246,"Include"
"HUW2015_e1","HUW2015_e1_25",175,0,"JudgeNewness",2,3727.007162,"Include"
"HUW2015_e1","HUW2015_e1_25",176,0,"JudgeNewness",3,2990.248666,"Include"
"HUW2015_e1","HUW2015_e1_25",177,0,"JudgeNewness",4,3010.939822,"Include"
"HUW2015_e1","HUW2015_e1_25",178,1,"JudgeNewness",5,1277.966009,"Include"
"HUW2015_e1","HUW2015_e1_25",179,0,"JudgeNewness",5,1308.179357,"Include"
"HUW2015_e1","HUW2015_e1_25",180,1,"JudgeNewness",5,2410.17667,"Include"
"HUW2015_e1","HUW2015_e1_25",181,1,"JudgeNewness",3,3832.689226,"Include"
"HUW2015_e1","HUW2015_e1_25",182,1,"JudgeNewness",2,3039.569007,"Include"
"HUW2015_e1","HUW2015_e1_25",183,0,"JudgeNewness",1,2267.981341,"Include"
"HUW2015_e1","HUW2015_e1_25",184,1,"JudgeNewness",NA,0,"Exclude"
"HUW2015_e1","HUW2015_e1_25",185,1,"JudgeNewness",5,1679.02675,"Include"
"HUW2015_e1","HUW2015_e1_25",186,1,"JudgeNewness",5,1602.64874,"Include"
"HUW2015_e1","HUW2015_e1_25",187,1,"JudgeNewness",5,1294.455872,"Include"
"HUW2015_e1","HUW2015_e1_25",188,1,"JudgeNewness",5,2973.189495,"Include"
"HUW2015_e1","HUW2015_e1_25",189,1,"JudgeNewness",5,1419.085844,"Include"
"HUW2015_e1","HUW2015_e1_25",190,1,"JudgeNewness",5,3838.515445,"Include"
"HUW2015_e1","HUW2015_e1_25",191,0,"JudgeNewness",5,3022.959996,"Include"
"HUW2015_e1","HUW2015_e1_25",192,1,"JudgeNewness",5,2510.12603,"Include"
"HUW2015_e1","HUW2015_e1_25",193,1,"JudgeNewness",5,2387.024404,"Include"
"HUW2015_e1","HUW2015_e1_25",194,0,"JudgeNewness",1,2985.014809,"Include"
"HUW2015_e1","HUW2015_e1_25",195,1,"JudgeNewness",5,1596.802899,"Include"
"HUW2015_e1","HUW2015_e1_25",196,1,"JudgeNewness",5,1139.026571,"Include"
"HUW2015_e1","HUW2015_e1_25",197,0,"JudgeNewness",5,2026.577635,"Include"
"HUW2015_e1","HUW2015_e1_25",198,1,"JudgeNewness",3,3097.047935,"Include"
"HUW2015_e1","HUW2015_e1_25",199,0,"JudgeNewness",3,3422.926664,"Include"
"HUW2015_e1","HUW2015_e1_25",200,1,"JudgeNewness",3,2579.457764,"Include"
"HUW2015_e1","HUW2015_e1_25",201,1,"JudgeNewness",1,3281.653764,"Include"
"HUW2015_e1","HUW2015_e1_25",202,0,"JudgeNewness",3,3192.250786,"Include"
"HUW2015_e1","HUW2015_e1_25",203,1,"JudgeNewness",4,1606.047601,"Include"
"HUW2015_e1","HUW2015_e1_25",204,1,"JudgeNewness",5,1962.33489,"Include"
"HUW2015_e1","HUW2015_e1_25",205,0,"JudgeNewness",5,969.906637,"Include"
"HUW2015_e1","HUW2015_e1_25",206,1,"JudgeNewness",5,2342.241134,"Include"
"HUW2015_e1","HUW2015_e1_25",207,1,"JudgeNewness",5,964.028962,"Include"
"HUW2015_e1","HUW2015_e1_25",208,1,"JudgeNewness",5,1496.878004,"Include"
"HUW2015_e1","HUW2015_e1_25",209,0,"JudgeNewness",1,1854.607884,"Include"
"HUW2015_e1","HUW2015_e1_25",210,0,"JudgeNewness",1,3531.833322,"Include"
"HUW2015_e1","HUW2015_e1_25",211,0,"JudgeNewness",2,2816.818442,"Include"
"HUW2015_e1","HUW2015_e1_25",212,1,"JudgeNewness",4,1910.632323,"Include"
"HUW2015_e1","HUW2015_e1_25",213,0,"JudgeNewness",5,2877.935736,"Include"
"HUW2015_e1","HUW2015_e1_25",214,1,"JudgeNewness",5,1682.888736,"Include"
"HUW2015_e1","HUW2015_e1_25",215,1,"JudgeNewness",2,2455.023727,"Include"
"HUW2015_e1","HUW2015_e1_25",216,0,"JudgeNewness",4,2162.854948,"Include"
"HUW2015_e1","HUW2015_e1_25",217,0,"JudgeNewness",5,1848.667157,"Include"
"HUW2015_e1","HUW2015_e1_25",218,1,"JudgeNewness",5,1039.081447,"Include"
"HUW2015_e1","HUW2015_e1_25",219,0,"JudgeNewness",5,909.886154,"Include"
"HUW2015_e1","HUW2015_e1_25",220,0,"JudgeNewness",2,3164.351647,"Include"
"HUW2015_e1","HUW2015_e1_25",221,1,"JudgeNewness",5,2775.854064,"Include"
"HUW2015_e1","HUW2015_e1_25",222,1,"JudgeNewness",3,2813.926226,"Include"
"HUW2015_e1","HUW2015_e1_25",223,0,"JudgeNewness",2,2625.80544,"Include"
"HUW2015_e1","HUW2015_e1_25",224,0,"JudgeNewness",5,1624.129292,"Include"
"HUW2015_e1","HUW2015_e1_25",225,0,"JudgeNewness",3,2751.236583,"Include"
"HUW2015_e1","HUW2015_e1_25",226,1,"JudgeNewness",5,1644.370503,"Include"
"HUW2015_e1","HUW2015_e1_25",227,0,"JudgeNewness",5,2248.463783,"Include"
"HUW2015_e1","HUW2015_e1_25",228,0,"JudgeNewness",NA,0,"Exclude"
"HUW2015_e1","HUW2015_e1_25",229,0,"JudgeNewness",NA,0,"Exclude"
"HUW2015_e1","HUW2015_e1_25",230,0,"JudgeNewness",NA,0,"Exclude"
"HUW2015_e1","HUW2015_e1_25",231,0,"JudgeNewness",2,2686.993274,"Include"
"HUW2015_e1","HUW2015_e1_25",232,0,"JudgeNewness",2,2493.250294,"Include"
"HUW2015_e1","HUW2015_e1_25",233,0,"JudgeNewness",2,2378.204348,"Include"
"HUW2015_e1","HUW2015_e1_25",234,0,"JudgeNewness",NA,0,"Exclude"
"HUW2015_e1","HUW2015_e1_25",235,1,"JudgeNewness",3,2198.813819,"Include"
"HUW2015_e1","HUW2015_e1_25",236,0,"JudgeNewness",3,3595.725054,"Include"
"HUW2015_e1","HUW2015_e1_25",237,0,"JudgeNewness",2,2184.923448,"Include"
"HUW2015_e1","HUW2015_e1_25",238,0,"JudgeNewness",5,2031.866636,"Include"
"HUW2015_e1","HUW2015_e1_25",239,1,"JudgeNewness",5,1110.299614,"Include"
"HUW2015_e1","HUW2015_e1_25",240,0,"JudgeNewness",2,2955.971673,"Include"
"HUW2015_e1","HUW2015_e1_25",241,1,"JudgeNewness",3,3794.210118,"Include"
"HUW2015_e1","HUW2015_e1_25",242,1,"JudgeNewness",3,3177.775908,"Include"
"HUW2015_e1","HUW2015_e1_25",243,1,"JudgeNewness",2,3152.099237,"Include"
"HUW2015_e1","HUW2015_e1_25",244,1,"JudgeNewness",5,3892.763801,"Include"
"HUW2015_e1","HUW2015_e1_25",245,0,"JudgeNewness",5,1427.546499,"Include"
"HUW2015_e1","HUW2015_e1_25",246,1,"JudgeNewness",4,1952.803172,"Include"
"HUW2015_e1","HUW2015_e1_25",247,1,"JudgeNewness",5,2015.722072,"Include"
"HUW2015_e1","HUW2015_e1_25",248,0,"JudgeNewness",1,3029.8604,"Include"
"HUW2015_e1","HUW2015_e1_25",249,1,"JudgeNewness",4,3011.391422,"Include"
"HUW2015_e1","HUW2015_e1_25",250,0,"JudgeNewness",3,3368.590485,"Include"
"HUW2015_e1","HUW2015_e1_25",251,1,"JudgeNewness",5,1111.114983,"Include"
"HUW2015_e1","HUW2015_e1_25",252,1,"JudgeNewness",4,2940.682198,"Include"
"HUW2015_e1","HUW2015_e1_25",253,1,"JudgeNewness",3,2715.162121,"Include"
"HUW2015_e1","HUW2015_e1_25",254,1,"JudgeNewness",5,1842.624165,"Include"
"HUW2015_e1","HUW2015_e1_25",255,1,"JudgeNewness",3,2494.728954,"Include"
"HUW2015_e1","HUW2015_e1_25",256,0,"JudgeNewness",3,2420.054061,"Include"
"HUW2015_e1","HUW2015_e1_25",257,1,"JudgeNewness",5,2025.539817,"Include"
"HUW2015_e1","HUW2015_e1_25",258,0,"JudgeNewness",3,3006.64852,"Include"
"HUW2015_e1","HUW2015_e1_25",259,1,"JudgeNewness",2,2661.493548,"Include"
"HUW2015_e1","HUW2015_e1_25",260,1,"JudgeNewness",5,1146.581949,"Include"
"HUW2015_e1","HUW2015_e1_25",261,1,"JudgeNewness",5,1135.40812,"Include"
"HUW2015_e1","HUW2015_e1_25",262,1,"JudgeNewness",5,2021.71634,"Include"
"HUW2015_e1","HUW2015_e1_25",263,0,"JudgeNewness",1,2283.470983,"Include"
"HUW2015_e1","HUW2015_e1_25",264,1,"JudgeNewness",2,3030.047596,"Include"
"HUW2015_e1","HUW2015_e1_25",265,0,"JudgeNewness",4,3379.767589,"Include"
"HUW2015_e1","HUW2015_e1_25",266,1,"JudgeNewness",5,1625.020263,"Include"
"HUW2015_e1","HUW2015_e1_25",267,0,"JudgeNewness",1,2725.182464,"Include"
"HUW2015_e1","HUW2015_e1_25",268,0,"JudgeNewness",2,2531.717787,"Include"
"HUW2015_e1","HUW2015_e1_25",269,0,"JudgeNewness",4,2464.161618,"Include"
"HUW2015_e1","HUW2015_e1_25",270,0,"JudgeNewness",2,2851.187914,"Include"
"HUW2015_e1","HUW2015_e1_25",271,1,"JudgeNewness",5,1330.234704,"Include"
"HUW2015_e1","HUW2015_e1_25",272,0,"JudgeNewness",3,1895.769093,"Include"
"HUW2015_e1","HUW2015_e1_25",273,1,"JudgeNewness",5,1479.409496,"Include"
"HUW2015_e1","HUW2015_e1_25",274,0,"JudgeNewness",1,2981.200561,"Include"
"HUW2015_e1","HUW2015_e1_25",275,0,"JudgeNewness",2,2896.632157,"Include"
"HUW2015_e1","HUW2015_e1_25",276,0,"JudgeNewness",5,1239.184026,"Include"
"HUW2015_e1","HUW2015_e1_25",277,0,"JudgeNewness",3,2476.14446,"Include"
"HUW2015_e1","HUW2015_e1_25",278,1,"JudgeNewness",5,1242.09635,"Include"
"HUW2015_e1","HUW2015_e1_25",279,1,"JudgeNewness",5,1351.273802,"Include"
"HUW2015_e1","HUW2015_e1_25",280,0,"JudgeNewness",1,2190.241874,"Include"
"HUW2015_e1","HUW2015_e1_25",281,0,"JudgeNewness",2,3282.903257,"Include"
"HUW2015_e1","HUW2015_e1_25",282,0,"JudgeNewness",2,2617.513663,"Include"
"HUW2015_e1","HUW2015_e1_25",283,0,"JudgeNewness",3,1760.31537,"Include"
"HUW2015_e1","HUW2015_e1_25",284,0,"JudgeNewness",4,1963.868844,"Include"
"HUW2015_e1","HUW2015_e1_25",285,0,"JudgeNewness",3,1713.103732,"Include"
"HUW2015_e1","HUW2015_e1_25",286,1,"JudgeNewness",5,1696.046681,"Include"
"HUW2015_e1","HUW2015_e1_25",287,1,"JudgeNewness",5,2527.51846,"Include"
"HUW2015_e1","HUW2015_e1_25",288,0,"JudgeNewness",4,1994.26266,"Include"
"HUW2015_e1","HUW2015_e1_25",289,1,"JudgeNewness",NA,0,"Exclude"
"HUW2015_e1","HUW2015_e1_25",290,0,"JudgeNewness",1,3173.598796,"Include"
"HUW2015_e1","HUW2015_e1_25",291,0,"JudgeNewness",4,1795.14447,"Include"
"HUW2015_e1","HUW2015_e1_25",292,0,"JudgeNewness",5,1401.450504,"Include"
"HUW2015_e1","HUW2015_e1_25",293,1,"JudgeNewness",5,927.335579,"Include"
"HUW2015_e1","HUW2015_e1_25",294,0,"JudgeNewness",1,3141.250228,"Include"
"HUW2015_e1","HUW2015_e1_25",295,1,"JudgeNewness",5,1090.532418,"Include"
"HUW2015_e1","HUW2015_e1_25",296,0,"JudgeNewness",5,1205.030601,"Include"
"HUW2015_e1","HUW2015_e1_25",297,0,"JudgeNewness",1,1834.946633,"Include"
"HUW2015_e1","HUW2015_e1_25",298,0,"JudgeNewness",1,3048.114828,"Include"
"HUW2015_e1","HUW2015_e1_25",299,1,"JudgeNewness",5,1718.427959,"Include"
"HUW2015_e1","HUW2015_e1_25",300,1,"JudgeNewness",1,2836.700752,"Include"
"HUW2015_e1","HUW2015_e1_13",1,1,"JudgeOldness",5,1720.142428,"Include"
"HUW2015_e1","HUW2015_e1_13",2,0,"JudgeOldness",2,2276.764838,"Include"
"HUW2015_e1","HUW2015_e1_13",3,1,"JudgeOldness",1,2369.849349,"Include"
"HUW2015_e1","HUW2015_e1_13",4,0,"JudgeOldness",2,1807.765969,"Include"
"HUW2015_e1","HUW2015_e1_13",5,0,"JudgeOldness",2,2311.104459,"Include"
"HUW2015_e1","HUW2015_e1_13",6,1,"JudgeOldness",3,2917.268451,"Include"
"HUW2015_e1","HUW2015_e1_13",7,1,"JudgeOldness",2,2058.679309,"Include"
"HUW2015_e1","HUW2015_e1_13",8,0,"JudgeOldness",3,2465.565524,"Include"
"HUW2015_e1","HUW2015_e1_13",9,0,"JudgeOldness",2,1941.981421,"Include"
"HUW2015_e1","HUW2015_e1_13",10,0,"JudgeOldness",2,2540.339597,"Include"
"HUW2015_e1","HUW2015_e1_13",11,1,"JudgeOldness",3,2064.582584,"Include"
"HUW2015_e1","HUW2015_e1_13",12,0,"JudgeOldness",1,2495.515704,"Include"
"HUW2015_e1","HUW2015_e1_13",13,0,"JudgeOldness",1,1982.164455,"Include"
"HUW2015_e1","HUW2015_e1_13",14,1,"JudgeOldness",4,2314.955177,"Include"
"HUW2015_e1","HUW2015_e1_13",15,1,"JudgeOldness",4,3281.063639,"Include"
"HUW2015_e1","HUW2015_e1_13",16,1,"JudgeOldness",5,2325.251982,"Include"
"HUW2015_e1","HUW2015_e1_13",17,0,"JudgeOldness",1,2212.455908,"Include"
"HUW2015_e1","HUW2015_e1_13",18,1,"JudgeOldness",2,1848.370475,"Include"
"HUW2015_e1","HUW2015_e1_13",19,1,"JudgeOldness",2,1708.76743,"Include"
"HUW2015_e1","HUW2015_e1_13",20,1,"JudgeOldness",1,2266.705893,"Include"
"HUW2015_e1","HUW2015_e1_13",21,0,"JudgeOldness",1,1585.184853,"Include"
"HUW2015_e1","HUW2015_e1_13",22,1,"JudgeOldness",3,2294.837004,"Include"
"HUW2015_e1","HUW2015_e1_13",23,0,"JudgeOldness",1,1875.441092,"Include"
"HUW2015_e1","HUW2015_e1_13",24,0,"JudgeOldness",1,1695.011639,"Include"
"HUW2015_e1","HUW2015_e1_13",25,1,"JudgeOldness",5,2021.668348,"Include"
"HUW2015_e1","HUW2015_e1_13",26,0,"JudgeOldness",3,2194.708185,"Include"
"HUW2015_e1","HUW2015_e1_13",27,0,"JudgeOldness",2,2232.800708,"Include"
"HUW2015_e1","HUW2015_e1_13",28,0,"JudgeOldness",1,2271.696906,"Include"
"HUW2015_e1","HUW2015_e1_13",29,1,"JudgeOldness",2,2591.250579,"Include"
"HUW2015_e1","HUW2015_e1_13",30,0,"JudgeOldness",3,2193.617936,"Include"
"HUW2015_e1","HUW2015_e1_13",31,0,"JudgeOldness",3,2599.77684,"Include"
"HUW2015_e1","HUW2015_e1_13",32,1,"JudgeOldness",5,1220.64419,"Include"
"HUW2015_e1","HUW2015_e1_13",33,0,"JudgeOldness",5,2514.49362,"Include"
"HUW2015_e1","HUW2015_e1_13",34,0,"JudgeOldness",2,2489.297167,"Include"
"HUW2015_e1","HUW2015_e1_13",35,1,"JudgeOldness",5,1575.471372,"Include"
"HUW2015_e1","HUW2015_e1_13",36,0,"JudgeOldness",2,2027.1977,"Include"
"HUW2015_e1","HUW2015_e1_13",37,0,"JudgeOldness",4,2303.742448,"Include"
"HUW2015_e1","HUW2015_e1_13",38,1,"JudgeOldness",2,2838.508959,"Include"
"HUW2015_e1","HUW2015_e1_13",39,0,"JudgeOldness",1,1669.296543,"Include"
"HUW2015_e1","HUW2015_e1_13",40,1,"JudgeOldness",1,1793.49555,"Include"
"HUW2015_e1","HUW2015_e1_13",41,1,"JudgeOldness",1,2615.644665,"Include"
"HUW2015_e1","HUW2015_e1_13",42,0,"JudgeOldness",4,2395.26482,"Include"
"HUW2015_e1","HUW2015_e1_13",43,0,"JudgeOldness",2,1680.867558,"Include"
"HUW2015_e1","HUW2015_e1_13",44,0,"JudgeOldness",2,1719.09532,"Include"
"HUW2015_e1","HUW2015_e1_13",45,0,"JudgeOldness",2,1870.845586,"Include"
"HUW2015_e1","HUW2015_e1_13",46,1,"JudgeOldness",5,1586.124317,"Include"
"HUW2015_e1","HUW2015_e1_13",47,1,"JudgeOldness",2,1584.371635,"Include"
"HUW2015_e1","HUW2015_e1_13",48,0,"JudgeOldness",1,1404.938737,"Include"
"HUW2015_e1","HUW2015_e1_13",49,1,"JudgeOldness",1,1418.087825,"Include"
"HUW2015_e1","HUW2015_e1_13",50,1,"JudgeOldness",4,1638.57519,"Include"
"HUW2015_e1","HUW2015_e1_13",51,1,"JudgeOldness",5,2220.419396,"Include"
"HUW2015_e1","HUW2015_e1_13",52,1,"JudgeOldness",5,1634.218764,"Include"
"HUW2015_e1","HUW2015_e1_13",53,0,"JudgeOldness",2,1720.328464,"Include"
"HUW2015_e1","HUW2015_e1_13",54,0,"JudgeOldness",2,1516.398791,"Include"
"HUW2015_e1","HUW2015_e1_13",55,1,"JudgeOldness",5,2098.723265,"Include"
"HUW2015_e1","HUW2015_e1_13",56,0,"JudgeOldness",1,2136.030106,"Include"
"HUW2015_e1","HUW2015_e1_13",57,1,"JudgeOldness",2,1709.490631,"Include"
"HUW2015_e1","HUW2015_e1_13",58,1,"JudgeOldness",5,1516.437637,"Include"
"HUW2015_e1","HUW2015_e1_13",59,1,"JudgeOldness",5,1146.89751,"Include"
"HUW2015_e1","HUW2015_e1_13",60,1,"JudgeOldness",4,2152.992797,"Include"
"HUW2015_e1","HUW2015_e1_13",61,1,"JudgeOldness",2,1866.571058,"Include"
"HUW2015_e1","HUW2015_e1_13",62,0,"JudgeOldness",4,2808.59162,"Include"
"HUW2015_e1","HUW2015_e1_13",63,0,"JudgeOldness",2,1667.504269,"Include"
"HUW2015_e1","HUW2015_e1_13",64,0,"JudgeOldness",3,2251.784268,"Include"
"HUW2015_e1","HUW2015_e1_13",65,0,"JudgeOldness",4,2129.127836,"Include"
"HUW2015_e1","HUW2015_e1_13",66,0,"JudgeOldness",1,1736.319712,"Include"
"HUW2015_e1","HUW2015_e1_13",67,0,"JudgeOldness",1,1396.152351,"Include"
"HUW2015_e1","HUW2015_e1_13",68,0,"JudgeOldness",2,1506.283482,"Include"
"HUW2015_e1","HUW2015_e1_13",69,0,"JudgeOldness",1,1464.481283,"Include"
"HUW2015_e1","HUW2015_e1_13",70,0,"JudgeOldness",2,2198.562652,"Include"
"HUW2015_e1","HUW2015_e1_13",71,0,"JudgeOldness",2,2052.35822,"Include"
"HUW2015_e1","HUW2015_e1_13",72,1,"JudgeOldness",1,1587.618974,"Include"
"HUW2015_e1","HUW2015_e1_13",73,1,"JudgeOldness",4,3025.921075,"Include"
"HUW2015_e1","HUW2015_e1_13",74,1,"JudgeOldness",2,1878.598479,"Include"
"HUW2015_e1","HUW2015_e1_13",75,1,"JudgeOldness",5,1307.295367,"Include"
"HUW2015_e1","HUW2015_e1_13",76,0,"JudgeOldness",3,2079.064549,"Include"
"HUW2015_e1","HUW2015_e1_13",77,1,"JudgeOldness",2,2037.591964,"Include"
"HUW2015_e1","HUW2015_e1_13",78,0,"JudgeOldness",2,2018.220218,"Include"
"HUW2015_e1","HUW2015_e1_13",79,0,"JudgeOldness",2,1966.305001,"Include"
"HUW2015_e1","HUW2015_e1_13",80,1,"JudgeOldness",5,1835.93584,"Include"
"HUW2015_e1","HUW2015_e1_13",81,1,"JudgeOldness",3,2297.893707,"Include"
"HUW2015_e1","HUW2015_e1_13",82,0,"JudgeOldness",2,2032.808288,"Include"
"HUW2015_e1","HUW2015_e1_13",83,0,"JudgeOldness",2,1902.425804,"Include"
"HUW2015_e1","HUW2015_e1_13",84,1,"JudgeOldness",2,1507.655399,"Include"
"HUW2015_e1","HUW2015_e1_13",85,1,"JudgeOldness",1,1906.170166,"Include"
"HUW2015_e1","HUW2015_e1_13",86,1,"JudgeOldness",4,3127.649073,"Include"
"HUW2015_e1","HUW2015_e1_13",87,0,"JudgeOldness",1,2077.687773,"Include"
"HUW2015_e1","HUW2015_e1_13",88,1,"JudgeOldness",3,2314.629664,"Include"
"HUW2015_e1","HUW2015_e1_13",89,1,"JudgeOldness",5,1696.596095,"Include"
"HUW2015_e1","HUW2015_e1_13",90,1,"JudgeOldness",2,2597.604037,"Include"
"HUW2015_e1","HUW2015_e1_13",91,0,"JudgeOldness",2,1716.205929,"Include"
"HUW2015_e1","HUW2015_e1_13",92,1,"JudgeOldness",2,1505.311535,"Include"
"HUW2015_e1","HUW2015_e1_13",93,0,"JudgeOldness",1,1991.396875,"Include"
"HUW2015_e1","HUW2015_e1_13",94,1,"JudgeOldness",2,2261.822939,"Include"
"HUW2015_e1","HUW2015_e1_13",95,0,"JudgeOldness",1,1669.493814,"Include"
"HUW2015_e1","HUW2015_e1_13",96,1,"JudgeOldness",1,1311.769026,"Include"
"HUW2015_e1","HUW2015_e1_13",97,0,"JudgeOldness",4,2445.137741,"Include"
"HUW2015_e1","HUW2015_e1_13",98,1,"JudgeOldness",3,3162.944589,"Include"
"HUW2015_e1","HUW2015_e1_13",99,1,"JudgeOldness",4,2626.346462,"Include"
"HUW2015_e1","HUW2015_e1_13",100,1,"JudgeOldness",2,1573.93449,"Include"
"HUW2015_e1","HUW2015_e1_13",101,1,"JudgeOldness",4,2667.767895,"Include"
"HUW2015_e1","HUW2015_e1_13",102,0,"JudgeOldness",2,1626.971271,"Include"
"HUW2015_e1","HUW2015_e1_13",103,0,"JudgeOldness",1,1521.152479,"Include"
"HUW2015_e1","HUW2015_e1_13",104,1,"JudgeOldness",4,2125.597967,"Include"
"HUW2015_e1","HUW2015_e1_13",105,1,"JudgeOldness",2,1682.9387,"Include"
"HUW2015_e1","HUW2015_e1_13",106,1,"JudgeOldness",2,2369.076371,"Include"
"HUW2015_e1","HUW2015_e1_13",107,0,"JudgeOldness",1,1436.277289,"Include"
"HUW2015_e1","HUW2015_e1_13",108,1,"JudgeOldness",4,2114.856105,"Include"
"HUW2015_e1","HUW2015_e1_13",109,0,"JudgeOldness",3,2593.459378,"Include"
"HUW2015_e1","HUW2015_e1_13",110,1,"JudgeOldness",2,1861.761424,"Include"
"HUW2015_e1","HUW2015_e1_13",111,0,"JudgeOldness",2,1284.246068,"Include"
"HUW2015_e1","HUW2015_e1_13",112,1,"JudgeOldness",4,2746.941765,"Include"
"HUW2015_e1","HUW2015_e1_13",113,1,"JudgeOldness",3,2360.24386,"Include"
"HUW2015_e1","HUW2015_e1_13",114,1,"JudgeOldness",2,1516.759412,"Include"
"HUW2015_e1","HUW2015_e1_13",115,0,"JudgeOldness",4,2394.1327,"Include"
"HUW2015_e1","HUW2015_e1_13",116,1,"JudgeOldness",2,1784.466378,"Include"
"HUW2015_e1","HUW2015_e1_13",117,0,"JudgeOldness",1,1486.794477,"Include"
"HUW2015_e1","HUW2015_e1_13",118,0,"JudgeOldness",1,1443.701666,"Include"
"HUW2015_e1","HUW2015_e1_13",119,0,"JudgeOldness",1,1575.553016,"Include"
"HUW2015_e1","HUW2015_e1_13",120,0,"JudgeOldness",1,1701.62174,"Include"
"HUW2015_e1","HUW2015_e1_13",121,1,"JudgeOldness",3,2079.21189,"Include"
"HUW2015_e1","HUW2015_e1_13",122,1,"JudgeOldness",5,1381.811097,"Include"
"HUW2015_e1","HUW2015_e1_13",123,1,"JudgeOldness",2,1498.88527,"Include"
"HUW2015_e1","HUW2015_e1_13",124,0,"JudgeOldness",2,1384.724816,"Include"
"HUW2015_e1","HUW2015_e1_13",125,0,"JudgeOldness",1,1549.967368,"Include"
"HUW2015_e1","HUW2015_e1_13",126,0,"JudgeOldness",3,2291.748091,"Include"
"HUW2015_e1","HUW2015_e1_13",127,1,"JudgeOldness",5,1416.951088,"Include"
"HUW2015_e1","HUW2015_e1_13",128,1,"JudgeOldness",2,1328.452588,"Include"
"HUW2015_e1","HUW2015_e1_13",129,1,"JudgeOldness",2,1670.46827,"Include"
"HUW2015_e1","HUW2015_e1_13",130,0,"JudgeOldness",2,1827.081569,"Include"
"HUW2015_e1","HUW2015_e1_13",131,0,"JudgeOldness",2,1665.358343,"Include"
"HUW2015_e1","HUW2015_e1_13",132,1,"JudgeOldness",1,1686.955857,"Include"
"HUW2015_e1","HUW2015_e1_13",133,1,"JudgeOldness",4,2235.462697,"Include"
"HUW2015_e1","HUW2015_e1_13",134,1,"JudgeOldness",2,2490.166845,"Include"
"HUW2015_e1","HUW2015_e1_13",135,0,"JudgeOldness",2,2095.498743,"Include"
"HUW2015_e1","HUW2015_e1_13",136,1,"JudgeOldness",3,2078.865002,"Include"
"HUW2015_e1","HUW2015_e1_13",137,1,"JudgeOldness",4,1917.191999,"Include"
"HUW2015_e1","HUW2015_e1_13",138,1,"JudgeOldness",5,2370.65575,"Include"
"HUW2015_e1","HUW2015_e1_13",139,1,"JudgeOldness",2,1800.689129,"Include"
"HUW2015_e1","HUW2015_e1_13",140,0,"JudgeOldness",2,1471.913124,"Include"
"HUW2015_e1","HUW2015_e1_13",141,1,"JudgeOldness",5,1418.716009,"Include"
"HUW2015_e1","HUW2015_e1_13",142,0,"JudgeOldness",4,1728.405713,"Include"
"HUW2015_e1","HUW2015_e1_13",143,1,"JudgeOldness",4,2191.378451,"Include"
"HUW2015_e1","HUW2015_e1_13",144,1,"JudgeOldness",3,2219.723487,"Include"
"HUW2015_e1","HUW2015_e1_13",145,1,"JudgeOldness",2,2465.43509,"Include"
"HUW2015_e1","HUW2015_e1_13",146,0,"JudgeOldness",2,1718.633001,"Include"
"HUW2015_e1","HUW2015_e1_13",147,0,"JudgeOldness",1,2405.456217,"Include"
"HUW2015_e1","HUW2015_e1_13",148,1,"JudgeOldness",4,2539.078027,"Include"
"HUW2015_e1","HUW2015_e1_13",149,1,"JudgeOldness",3,2024.163033,"Include"
"HUW2015_e1","HUW2015_e1_13",150,1,"JudgeOldness",5,1380.36816,"Include"
"HUW2015_e1","HUW2015_e1_13",151,0,"JudgeOldness",2,1641.892157,"Include"
"HUW2015_e1","HUW2015_e1_13",152,0,"JudgeOldness",4,1637.130106,"Include"
"HUW2015_e1","HUW2015_e1_13",153,0,"JudgeOldness",4,1852.139113,"Include"
"HUW2015_e1","HUW2015_e1_13",154,0,"JudgeOldness",2,1714.06519,"Include"
"HUW2015_e1","HUW2015_e1_13",155,1,"JudgeOldness",2,1774.319404,"Include"
"HUW2015_e1","HUW2015_e1_13",156,0,"JudgeOldness",2,1540.907797,"Include"
"HUW2015_e1","HUW2015_e1_13",157,0,"JudgeOldness",2,2187.00187,"Include"
"HUW2015_e1","HUW2015_e1_13",158,0,"JudgeOldness",2,1873.187143,"Include"
"HUW2015_e1","HUW2015_e1_13",159,0,"JudgeOldness",3,2623.519246,"Include"
"HUW2015_e1","HUW2015_e1_13",160,0,"JudgeOldness",3,2557.191723,"Include"
"HUW2015_e1","HUW2015_e1_13",161,1,"JudgeOldness",2,1945.346981,"Include"
"HUW2015_e1","HUW2015_e1_13",162,1,"JudgeOldness",4,2231.932385,"Include"
"HUW2015_e1","HUW2015_e1_13",163,0,"JudgeOldness",2,1835.633211,"Include"
"HUW2015_e1","HUW2015_e1_13",164,1,"JudgeOldness",5,2082.286512,"Include"
"HUW2015_e1","HUW2015_e1_13",165,1,"JudgeOldness",1,1878.919641,"Include"
"HUW2015_e1","HUW2015_e1_13",166,0,"JudgeOldness",3,2707.004286,"Include"
"HUW2015_e1","HUW2015_e1_13",167,0,"JudgeOldness",1,2119.955092,"Include"
"HUW2015_e1","HUW2015_e1_13",168,0,"JudgeOldness",2,1558.491266,"Include"
