"exp","id","isold","condition1","rating","RT","excluding","trial"
"JCD2012_e1b","JCD2012_e1b_1",0,"ValidCue",2,9982.872,"Include",1
"JCD2012_e1b","JCD2012_e1b_1",0,"ValidCue",2,2156.785,"Include",2
"JCD2012_e1b","JCD2012_e1b_1",0,"ValidCue",3,5065.74,"Include",3
"JCD2012_e1b","JCD2012_e1b_1",0,"ValidCue",3,3662.757,"Include",4
"JCD2012_e1b","JCD2012_e1b_1",0,"InvalidCue",4,1599.765,"Include",1
"JCD2012_e1b","JCD2012_e1b_1",1,"ValidCue",4,2104.939,"Include",5
"JCD2012_e1b","JCD2012_e1b_1",1,"InvalidCue",2,3858.786,"Include",2
"JCD2012_e1b","JCD2012_e1b_1",0,"InvalidCue",5,2094.88,"Include",3
"JCD2012_e1b","JCD2012_e1b_1",0,"ValidCue",2,6551.179,"Include",6
"JCD2012_e1b","JCD2012_e1b_1",0,"ValidCue",2,3208.889,"Include",7
"JCD2012_e1b","JCD2012_e1b_1",0,"ValidCue",2,53774.18,"Include",8
"JCD2012_e1b","JCD2012_e1b_1",0,"InvalidCue",1,3265.654,"Include",4
"JCD2012_e1b","JCD2012_e1b_1",1,"ValidCue",2,4684.066,"Include",9
"JCD2012_e1b","JCD2012_e1b_1",0,"ValidCue",2,5199.936,"Include",10
"JCD2012_e1b","JCD2012_e1b_1",0,"ValidCue",1,3796.726,"Include",11
"JCD2012_e1b","JCD2012_e1b_1",0,"ValidCue",1,2878.909,"Include",12
"JCD2012_e1b","JCD2012_e1b_1",0,"ValidCue",1,2414.486,"Include",13
"JCD2012_e1b","JCD2012_e1b_1",1,"ValidCue",6,2528.138,"Include",14
"JCD2012_e1b","JCD2012_e1b_1",1,"ValidCue",2,3657.448,"Include",15
"JCD2012_e1b","JCD2012_e1b_1",0,"InvalidCue",2,3884.846,"Include",5
"JCD2012_e1b","JCD2012_e1b_1",1,"ValidCue",6,2481.458,"Include",16
"JCD2012_e1b","JCD2012_e1b_1",1,"ValidCue",5,2853.168,"Include",17
"JCD2012_e1b","JCD2012_e1b_1",1,"InvalidCue",3,4715.035,"Include",6
"JCD2012_e1b","JCD2012_e1b_1",1,"InvalidCue",6,1904.107,"Include",7
"JCD2012_e1b","JCD2012_e1b_1",0,"ValidCue",4,3085.085,"Include",18
"JCD2012_e1b","JCD2012_e1b_1",0,"ValidCue",2,3559.616,"Include",19
"JCD2012_e1b","JCD2012_e1b_1",0,"ValidCue",3,3822.465,"Include",20
"JCD2012_e1b","JCD2012_e1b_1",1,"InvalidCue",6,4106.543,"Include",8
"JCD2012_e1b","JCD2012_e1b_1",1,"InvalidCue",6,2084.423,"Include",9
"JCD2012_e1b","JCD2012_e1b_1",1,"InvalidCue",5,2631.252,"Include",10
"JCD2012_e1b","JCD2012_e1b_1",1,"ValidCue",5,2213.452,"Include",21
"JCD2012_e1b","JCD2012_e1b_1",1,"InvalidCue",3,3239.672,"Include",11
"JCD2012_e1b","JCD2012_e1b_1",0,"ValidCue",3,3080.143,"Include",22
"JCD2012_e1b","JCD2012_e1b_1",1,"ValidCue",1,2373.23,"Include",23
"JCD2012_e1b","JCD2012_e1b_1",0,"ValidCue",3,4070.379,"Include",24
"JCD2012_e1b","JCD2012_e1b_1",0,"InvalidCue",2,8294.965,"Include",12
"JCD2012_e1b","JCD2012_e1b_1",1,"ValidCue",6,2131.009,"Include",25
"JCD2012_e1b","JCD2012_e1b_1",0,"ValidCue",1,2517.585,"Include",26
"JCD2012_e1b","JCD2012_e1b_1",0,"ValidCue",2,3946.577,"Include",27
"JCD2012_e1b","JCD2012_e1b_1",1,"ValidCue",6,2208.247,"Include",28
"JCD2012_e1b","JCD2012_e1b_1",0,"InvalidCue",2,4023.851,"Include",13
"JCD2012_e1b","JCD2012_e1b_1",1,"ValidCue",5,3827.776,"Include",29
"JCD2012_e1b","JCD2012_e1b_1",1,"ValidCue",5,2760.355,"Include",30
"JCD2012_e1b","JCD2012_e1b_1",0,"ValidCue",2,8372.207,"Include",31
"JCD2012_e1b","JCD2012_e1b_1",1,"ValidCue",6,1898.855,"Include",32
"JCD2012_e1b","JCD2012_e1b_1",1,"InvalidCue",5,2264.793,"Include",14
"JCD2012_e1b","JCD2012_e1b_1",0,"ValidCue",2,2863.324,"Include",33
"JCD2012_e1b","JCD2012_e1b_1",1,"InvalidCue",3,3420.246,"Include",15
"JCD2012_e1b","JCD2012_e1b_1",0,"InvalidCue",4,2269.924,"Include",16
"JCD2012_e1b","JCD2012_e1b_1",1,"ValidCue",3,2548.782,"Include",34
"JCD2012_e1b","JCD2012_e1b_1",0,"ValidCue",5,3657.656,"Include",35
"JCD2012_e1b","JCD2012_e1b_1",1,"ValidCue",5,2770.326,"Include",36
"JCD2012_e1b","JCD2012_e1b_1",1,"ValidCue",6,1547.956,"Include",37
"JCD2012_e1b","JCD2012_e1b_1",0,"InvalidCue",3,2414.81,"Include",17
"JCD2012_e1b","JCD2012_e1b_1",1,"ValidCue",2,3642.268,"Include",38
"JCD2012_e1b","JCD2012_e1b_1",1,"ValidCue",6,1610.047,"Include",39
"JCD2012_e1b","JCD2012_e1b_1",1,"InvalidCue",3,4389.99,"Include",18
"JCD2012_e1b","JCD2012_e1b_1",1,"ValidCue",3,1898.791,"Include",40
"JCD2012_e1b","JCD2012_e1b_1",1,"ValidCue",6,1687.156,"Include",41
"JCD2012_e1b","JCD2012_e1b_1",0,"ValidCue",1,2182.479,"Include",42
"JCD2012_e1b","JCD2012_e1b_1",0,"ValidCue",2,2667.016,"Include",43
"JCD2012_e1b","JCD2012_e1b_1",1,"ValidCue",6,1594.465,"Include",44
"JCD2012_e1b","JCD2012_e1b_1",0,"ValidCue",3,4653.149,"Include",45
"JCD2012_e1b","JCD2012_e1b_1",0,"ValidCue",3,2233.917,"Include",46
"JCD2012_e1b","JCD2012_e1b_1",1,"ValidCue",6,1625.358,"Include",47
"JCD2012_e1b","JCD2012_e1b_1",0,"ValidCue",2,2342.239,"Include",48
"JCD2012_e1b","JCD2012_e1b_1",1,"ValidCue",5,1929.748,"Include",49
"JCD2012_e1b","JCD2012_e1b_1",0,"ValidCue",2,2079.228,"Include",50
"JCD2012_e1b","JCD2012_e1b_1",1,"ValidCue",2,2502.13,"Include",51
"JCD2012_e1b","JCD2012_e1b_1",1,"InvalidCue",5,2930.334,"Include",19
"JCD2012_e1b","JCD2012_e1b_1",1,"ValidCue",6,1517.099,"Include",52
"JCD2012_e1b","JCD2012_e1b_1",1,"ValidCue",5,5788.066,"Include",53
"JCD2012_e1b","JCD2012_e1b_1",1,"ValidCue",3,2656.813,"Include",54
"JCD2012_e1b","JCD2012_e1b_1",1,"ValidCue",4,1836.64,"Include",55
"JCD2012_e1b","JCD2012_e1b_1",1,"ValidCue",5,1398.417,"Include",56
"JCD2012_e1b","JCD2012_e1b_1",0,"ValidCue",5,1965.879,"Include",57
"JCD2012_e1b","JCD2012_e1b_1",1,"ValidCue",5,1217.72,"Include",58
"JCD2012_e1b","JCD2012_e1b_1",1,"ValidCue",6,1047.606,"Include",59
"JCD2012_e1b","JCD2012_e1b_1",0,"InvalidCue",3,3992.917,"Include",20
"JCD2012_e1b","JCD2012_e1b_1",1,"InvalidCue",4,2409.657,"Include",21
"JCD2012_e1b","JCD2012_e1b_1",1,"ValidCue",3,1707.702,"Include",60
"JCD2012_e1b","JCD2012_e1b_1",0,"InvalidCue",2,3585.521,"Include",22
"JCD2012_e1b","JCD2012_e1b_1",1,"ValidCue",5,3729.841,"Include",61
"JCD2012_e1b","JCD2012_e1b_1",1,"ValidCue",4,2110.096,"Include",62
"JCD2012_e1b","JCD2012_e1b_1",0,"ValidCue",3,1965.708,"Include",63
"JCD2012_e1b","JCD2012_e1b_1",1,"ValidCue",3,2130.681,"Include",64
"JCD2012_e1b","JCD2012_e1b_1",0,"ValidCue",5,2300.862,"Include",65
"JCD2012_e1b","JCD2012_e1b_1",1,"ValidCue",5,4813.234,"Include",66
"JCD2012_e1b","JCD2012_e1b_1",0,"InvalidCue",3,1775.242,"Include",23
"JCD2012_e1b","JCD2012_e1b_1",0,"ValidCue",2,2037.949,"Include",67
"JCD2012_e1b","JCD2012_e1b_1",1,"ValidCue",3,3662.522,"Include",68
"JCD2012_e1b","JCD2012_e1b_1",1,"ValidCue",3,3410.057,"Include",69
"JCD2012_e1b","JCD2012_e1b_1",0,"InvalidCue",2,4436.422,"Include",24
"JCD2012_e1b","JCD2012_e1b_1",0,"ValidCue",1,3002.766,"Include",70
"JCD2012_e1b","JCD2012_e1b_1",0,"ValidCue",4,2569.231,"Include",71
"JCD2012_e1b","JCD2012_e1b_1",1,"ValidCue",5,5003.978,"Include",72
"JCD2012_e1b","JCD2012_e1b_1",1,"ValidCue",5,1723.491,"Include",73
"JCD2012_e1b","JCD2012_e1b_1",0,"ValidCue",3,2022.538,"Include",74
"JCD2012_e1b","JCD2012_e1b_1",0,"ValidCue",4,1656.211,"Include",75
"JCD2012_e1b","JCD2012_e1b_1",1,"ValidCue",3,1589.121,"Include",76
"JCD2012_e1b","JCD2012_e1b_1",0,"InvalidCue",1,2383.484,"Include",25
"JCD2012_e1b","JCD2012_e1b_1",0,"ValidCue",2,1754.268,"Include",77
"JCD2012_e1b","JCD2012_e1b_1",1,"ValidCue",5,2589.781,"Include",78
"JCD2012_e1b","JCD2012_e1b_1",1,"InvalidCue",2,2878.85,"Include",26
"JCD2012_e1b","JCD2012_e1b_1",0,"ValidCue",3,1331.261,"Include",79
"JCD2012_e1b","JCD2012_e1b_1",0,"ValidCue",2,1805.796,"Include",80
"JCD2012_e1b","JCD2012_e1b_1",0,"ValidCue",4,3012.691,"Include",81
"JCD2012_e1b","JCD2012_e1b_1",0,"ValidCue",2,2909.462,"Include",82
"JCD2012_e1b","JCD2012_e1b_1",0,"InvalidCue",2,4008.173,"Include",27
"JCD2012_e1b","JCD2012_e1b_1",0,"ValidCue",2,1099.174,"Include",83
"JCD2012_e1b","JCD2012_e1b_1",1,"InvalidCue",4,1986.26,"Include",28
"JCD2012_e1b","JCD2012_e1b_1",0,"InvalidCue",4,1197.352,"Include",29
"JCD2012_e1b","JCD2012_e1b_1",1,"InvalidCue",3,5282.644,"Include",30
"JCD2012_e1b","JCD2012_e1b_1",0,"ValidCue",2,1671.682,"Include",84
"JCD2012_e1b","JCD2012_e1b_1",1,"ValidCue",5,2368.039,"Include",85
"JCD2012_e1b","JCD2012_e1b_1",0,"ValidCue",3,1800.562,"Include",86
"JCD2012_e1b","JCD2012_e1b_1",0,"ValidCue",2,1723.057,"Include",87
"JCD2012_e1b","JCD2012_e1b_1",0,"ValidCue",2,1553.107,"Include",88
"JCD2012_e1b","JCD2012_e1b_1",1,"ValidCue",6,1785.222,"Include",89
"JCD2012_e1b","JCD2012_e1b_1",1,"ValidCue",5,1780.06,"Include",90
"JCD2012_e1b","JCD2012_e1b_1",0,"ValidCue",2,2393.92,"Include",91
"JCD2012_e1b","JCD2012_e1b_1",1,"ValidCue",5,1847.244,"Include",92
"JCD2012_e1b","JCD2012_e1b_1",0,"InvalidCue",2,1769.736,"Include",31
"JCD2012_e1b","JCD2012_e1b_1",1,"ValidCue",5,1991.78,"Include",93
"JCD2012_e1b","JCD2012_e1b_1",0,"ValidCue",2,2755.07,"Include",94
"JCD2012_e1b","JCD2012_e1b_1",1,"InvalidCue",6,1676.888,"Include",32
"JCD2012_e1b","JCD2012_e1b_1",1,"InvalidCue",6,2053.354,"Include",33
"JCD2012_e1b","JCD2012_e1b_1",0,"InvalidCue",2,2605.315,"Include",34
"JCD2012_e1b","JCD2012_e1b_1",1,"ValidCue",6,1341.615,"Include",95
"JCD2012_e1b","JCD2012_e1b_1",1,"InvalidCue",6,1362.346,"Include",35
"JCD2012_e1b","JCD2012_e1b_1",1,"InvalidCue",5,1532.591,"Include",36
"JCD2012_e1b","JCD2012_e1b_1",1,"ValidCue",5,1223.129,"Include",96
"JCD2012_e1b","JCD2012_e1b_1",1,"ValidCue",6,1052.789,"Include",97
"JCD2012_e1b","JCD2012_e1b_1",0,"InvalidCue",5,3265.614,"Include",37
"JCD2012_e1b","JCD2012_e1b_1",1,"InvalidCue",4,2894.205,"Include",38
"JCD2012_e1b","JCD2012_e1b_1",0,"ValidCue",2,3136.566,"Include",98
"JCD2012_e1b","JCD2012_e1b_1",0,"ValidCue",1,2234.065,"Include",99
"JCD2012_e1b","JCD2012_e1b_1",0,"ValidCue",1,2275.209,"Include",100
"JCD2012_e1b","JCD2012_e1b_1",1,"ValidCue",3,3461.744,"Include",101
"JCD2012_e1b","JCD2012_e1b_1",1,"ValidCue",5,1527.562,"Include",102
"JCD2012_e1b","JCD2012_e1b_1",0,"ValidCue",2,1883.254,"Include",103
"JCD2012_e1b","JCD2012_e1b_1",0,"ValidCue",3,3544.263,"Include",104
"JCD2012_e1b","JCD2012_e1b_1",0,"ValidCue",2,2709.068,"Include",105
"JCD2012_e1b","JCD2012_e1b_1",0,"ValidCue",1,1857.263,"Include",106
"JCD2012_e1b","JCD2012_e1b_1",0,"ValidCue",5,1449.88,"Include",107
"JCD2012_e1b","JCD2012_e1b_1",1,"ValidCue",2,2863.39,"Include",108
"JCD2012_e1b","JCD2012_e1b_1",1,"InvalidCue",6,1212.69,"Include",39
"JCD2012_e1b","JCD2012_e1b_1",0,"InvalidCue",2,1790.321,"Include",40
"JCD2012_e1b","JCD2012_e1b_1",0,"ValidCue",2,3086.142,"Include",109
"JCD2012_e1b","JCD2012_e1b_1",0,"InvalidCue",3,4545.315,"Include",41
"JCD2012_e1b","JCD2012_e1b_1",0,"ValidCue",2,2089.221,"Include",110
"JCD2012_e1b","JCD2012_e1b_1",1,"ValidCue",2,3559.371,"Include",111
"JCD2012_e1b","JCD2012_e1b_1",1,"ValidCue",5,1357.055,"Include",112
"JCD2012_e1b","JCD2012_e1b_1",1,"ValidCue",2,1026.927,"Include",113
"JCD2012_e1b","JCD2012_e1b_1",1,"ValidCue",6,2755.021,"Include",114
"JCD2012_e1b","JCD2012_e1b_1",0,"ValidCue",2,1898.793,"Include",115
"JCD2012_e1b","JCD2012_e1b_1",0,"InvalidCue",5,2460.894,"Include",42
"JCD2012_e1b","JCD2012_e1b_1",0,"ValidCue",2,3219.204,"Include",116
"JCD2012_e1b","JCD2012_e1b_1",1,"InvalidCue",2,1135.203,"Include",43
"JCD2012_e1b","JCD2012_e1b_1",0,"InvalidCue",2,903.1007,"Include",44
"JCD2012_e1b","JCD2012_e1b_1",1,"ValidCue",3,1914.005,"Include",117
"JCD2012_e1b","JCD2012_e1b_1",0,"ValidCue",4,1903.857,"Include",118
"JCD2012_e1b","JCD2012_e1b_1",0,"InvalidCue",2,1831.561,"Include",45
"JCD2012_e1b","JCD2012_e1b_1",0,"ValidCue",2,1919.195,"Include",119
"JCD2012_e1b","JCD2012_e1b_1",0,"ValidCue",6,1542.718,"Include",120
"JCD2012_e1b","JCD2012_e1b_1",1,"InvalidCue",5,1475.724,"Include",46
"JCD2012_e1b","JCD2012_e1b_1",1,"ValidCue",4,1367.264,"Include",121
"JCD2012_e1b","JCD2012_e1b_1",1,"ValidCue",6,1367.315,"Include",122
"JCD2012_e1b","JCD2012_e1b_1",1,"ValidCue",2,2038.2,"Include",123
"JCD2012_e1b","JCD2012_e1b_1",1,"ValidCue",6,1063.102,"Include",124
"JCD2012_e1b","JCD2012_e1b_1",0,"ValidCue",4,1552.984,"Include",125
"JCD2012_e1b","JCD2012_e1b_1",0,"ValidCue",4,1310.555,"Include",126
"JCD2012_e1b","JCD2012_e1b_1",1,"ValidCue",5,2393.96,"Include",127
"JCD2012_e1b","JCD2012_e1b_1",1,"ValidCue",5,1841.855,"Include",128
"JCD2012_e1b","JCD2012_e1b_1",1,"ValidCue",3,1372.469,"Include",129
"JCD2012_e1b","JCD2012_e1b_1",0,"ValidCue",3,4570.286,"Include",130
"JCD2012_e1b","JCD2012_e1b_1",1,"ValidCue",3,2481.54,"Include",131
"JCD2012_e1b","JCD2012_e1b_1",1,"ValidCue",5,4286.946,"Include",132
"JCD2012_e1b","JCD2012_e1b_1",0,"ValidCue",3,1491.384,"Include",133
"JCD2012_e1b","JCD2012_e1b_1",1,"ValidCue",4,1862.471,"Include",134
"JCD2012_e1b","JCD2012_e1b_1",1,"ValidCue",5,1841.991,"Include",135
"JCD2012_e1b","JCD2012_e1b_1",1,"ValidCue",3,3219.163,"Include",136
"JCD2012_e1b","JCD2012_e1b_1",1,"InvalidCue",2,3719.57,"Include",47
"JCD2012_e1b","JCD2012_e1b_1",1,"ValidCue",5,2935.857,"Include",137
"JCD2012_e1b","JCD2012_e1b_1",0,"ValidCue",2,1367.335,"Include",138
"JCD2012_e1b","JCD2012_e1b_1",1,"ValidCue",4,1934.785,"Include",139
"JCD2012_e1b","JCD2012_e1b_1",0,"ValidCue",2,1578.907,"Include",140
"JCD2012_e1b","JCD2012_e1b_1",1,"ValidCue",5,1341.695,"Include",141
"JCD2012_e1b","JCD2012_e1b_1",0,"ValidCue",2,1677.239,"Include",142
"JCD2012_e1b","JCD2012_e1b_1",1,"ValidCue",6,1346.708,"Include",143
"JCD2012_e1b","JCD2012_e1b_1",1,"InvalidCue",2,1558.233,"Include",48
"JCD2012_e1b","JCD2012_e1b_1",0,"ValidCue",1,2244.615,"Include",144
"JCD2012_e1b","JCD2012_e1b_1",0,"InvalidCue",2,2053.439,"Include",49
"JCD2012_e1b","JCD2012_e1b_1",1,"ValidCue",6,1388.465,"Include",145
"JCD2012_e1b","JCD2012_e1b_1",0,"InvalidCue",2,1841.967,"Include",50
"JCD2012_e1b","JCD2012_e1b_1",1,"InvalidCue",6,1599.511,"Include",51
"JCD2012_e1b","JCD2012_e1b_1",1,"ValidCue",6,1393.135,"Include",146
"JCD2012_e1b","JCD2012_e1b_1",0,"ValidCue",2,1279.693,"Include",147
"JCD2012_e1b","JCD2012_e1b_1",1,"ValidCue",2,2089.589,"Include",148
"JCD2012_e1b","JCD2012_e1b_1",1,"ValidCue",6,1109.897,"Include",149
"JCD2012_e1b","JCD2012_e1b_1",1,"ValidCue",5,1403.496,"Include",150
"JCD2012_e1b","JCD2012_e1b_1",0,"ValidCue",2,1805.801,"Include",151
"JCD2012_e1b","JCD2012_e1b_1",0,"InvalidCue",3,1831.715,"Include",52
"JCD2012_e1b","JCD2012_e1b_1",0,"ValidCue",2,2073.947,"Include",152
"JCD2012_e1b","JCD2012_e1b_1",1,"InvalidCue",4,2636.393,"Include",53
"JCD2012_e1b","JCD2012_e1b_1",1,"ValidCue",4,3116.082,"Include",153
"JCD2012_e1b","JCD2012_e1b_1",0,"ValidCue",5,2780.801,"Include",154
"JCD2012_e1b","JCD2012_e1b_1",1,"ValidCue",6,1754.222,"Include",155
"JCD2012_e1b","JCD2012_e1b_1",1,"ValidCue",3,1088.859,"Include",156
"JCD2012_e1b","JCD2012_e1b_1",0,"ValidCue",4,2497.256,"Include",157
"JCD2012_e1b","JCD2012_e1b_1",1,"ValidCue",5,1579.059,"Include",158
"JCD2012_e1b","JCD2012_e1b_1",0,"ValidCue",1,2620.802,"Include",159
"JCD2012_e1b","JCD2012_e1b_1",0,"ValidCue",5,1486.172,"Include",160
"JCD2012_e1b","JCD2012_e1b_1",0,"ValidCue",2,1821.361,"Include",161
"JCD2012_e1b","JCD2012_e1b_1",0,"ValidCue",2,2208.032,"Include",162
"JCD2012_e1b","JCD2012_e1b_1",0,"ValidCue",2,1228.14,"Include",163
"JCD2012_e1b","JCD2012_e1b_1",1,"ValidCue",4,2878.606,"Include",164
"JCD2012_e1b","JCD2012_e1b_1",0,"ValidCue",3,1388.178,"Include",165
"JCD2012_e1b","JCD2012_e1b_1",0,"ValidCue",2,1806.038,"Include",166
"JCD2012_e1b","JCD2012_e1b_1",0,"ValidCue",1,2172.339,"Include",167
"JCD2012_e1b","JCD2012_e1b_1",0,"InvalidCue",3,2053.499,"Include",54
"JCD2012_e1b","JCD2012_e1b_1",0,"ValidCue",1,1821.516,"Include",168
"JCD2012_e1b","JCD2012_e1b_1",0,"ValidCue",2,4282.122,"Include",169
"JCD2012_e1b","JCD2012_e1b_1",0,"ValidCue",2,1047.538,"Include",170
"JCD2012_e1b","JCD2012_e1b_1",0,"InvalidCue",4,2115.286,"Include",55
"JCD2012_e1b","JCD2012_e1b_1",0,"InvalidCue",3,1434.431,"Include",56
"JCD2012_e1b","JCD2012_e1b_1",0,"ValidCue",1,1589.147,"Include",171
"JCD2012_e1b","JCD2012_e1b_1",1,"ValidCue",3,2512.353,"Include",172
"JCD2012_e1b","JCD2012_e1b_1",1,"InvalidCue",4,4410.606,"Include",57
"JCD2012_e1b","JCD2012_e1b_1",1,"ValidCue",6,1419.008,"Include",173
"JCD2012_e1b","JCD2012_e1b_1",1,"ValidCue",4,1687.222,"Include",174
"JCD2012_e1b","JCD2012_e1b_1",0,"ValidCue",3,7552.175,"Include",175
"JCD2012_e1b","JCD2012_e1b_1",1,"InvalidCue",4,3007.655,"Include",58
"JCD2012_e1b","JCD2012_e1b_1",1,"ValidCue",2,2435.182,"Include",176
"JCD2012_e1b","JCD2012_e1b_1",1,"InvalidCue",2,2058.657,"Include",59
"JCD2012_e1b","JCD2012_e1b_1",0,"ValidCue",2,3946.512,"Include",177
"JCD2012_e1b","JCD2012_e1b_1",0,"ValidCue",3,1444.532,"Include",178
"JCD2012_e1b","JCD2012_e1b_1",0,"InvalidCue",3,3884.571,"Include",60
"JCD2012_e1b","JCD2012_e1b_1",1,"ValidCue",5,2058.74,"Include",179
"JCD2012_e1b","JCD2012_e1b_1",1,"ValidCue",5,1274.475,"Include",180
"JCD2012_e1b","JCD2012_e1b_1",1,"InvalidCue",4,2456.308,"Include",61
"JCD2012_e1b","JCD2012_e1b_1",0,"ValidCue",2,1382.957,"Include",181
"JCD2012_e1b","JCD2012_e1b_1",0,"ValidCue",2,1831.537,"Include",182
"JCD2012_e1b","JCD2012_e1b_1",0,"ValidCue",2,1233.349,"Include",183
"JCD2012_e1b","JCD2012_e1b_1",0,"ValidCue",1,1052.771,"Include",184
"JCD2012_e1b","JCD2012_e1b_1",1,"ValidCue",5,1135.203,"Include",185
"JCD2012_e1b","JCD2012_e1b_1",0,"ValidCue",1,1346.838,"Include",186
"JCD2012_e1b","JCD2012_e1b_1",0,"ValidCue",2,1455.207,"Include",187
"JCD2012_e1b","JCD2012_e1b_1",1,"ValidCue",6,1449.849,"Include",188
"JCD2012_e1b","JCD2012_e1b_1",1,"ValidCue",3,2419.616,"Include",189
"JCD2012_e1b","JCD2012_e1b_1",1,"InvalidCue",2,3229.487,"Include",62
"JCD2012_e1b","JCD2012_e1b_1",0,"ValidCue",1,1465.32,"Include",190
"JCD2012_e1b","JCD2012_e1b_1",1,"ValidCue",6,1460.268,"Include",191
"JCD2012_e1b","JCD2012_e1b_1",1,"InvalidCue",6,1470.662,"Include",63
"JCD2012_e1b","JCD2012_e1b_1",1,"ValidCue",6,1222.97,"Include",192
"JCD2012_e1b","JCD2012_e1b_1",1,"ValidCue",5,1692.495,"Include",193
"JCD2012_e1b","JCD2012_e1b_1",0,"ValidCue",2,1687.139,"Include",194
"JCD2012_e1b","JCD2012_e1b_1",1,"ValidCue",5,1707.882,"Include",195
"JCD2012_e1b","JCD2012_e1b_1",1,"ValidCue",4,1599.681,"Include",196
"JCD2012_e1b","JCD2012_e1b_1",1,"ValidCue",5,1233.254,"Include",197
"JCD2012_e1b","JCD2012_e1b_1",0,"ValidCue",4,1919.336,"Include",198
"JCD2012_e1b","JCD2012_e1b_1",1,"ValidCue",3,3306.904,"Include",199
"JCD2012_e1b","JCD2012_e1b_1",1,"ValidCue",5,1186.874,"Include",200
"JCD2012_e1b","JCD2012_e1b_1",0,"ValidCue",2,1290.051,"Include",201
"JCD2012_e1b","JCD2012_e1b_1",0,"ValidCue",1,1558.199,"Include",202
"JCD2012_e1b","JCD2012_e1b_1",0,"ValidCue",1,2223.793,"Include",203
"JCD2012_e1b","JCD2012_e1b_1",0,"ValidCue",1,1945.048,"Include",204
"JCD2012_e1b","JCD2012_e1b_1",0,"ValidCue",1,1614.974,"Include",205
"JCD2012_e1b","JCD2012_e1b_1",0,"InvalidCue",3,2001.797,"Include",64
"JCD2012_e1b","JCD2012_e1b_1",1,"ValidCue",4,1460.131,"Include",206
"JCD2012_e1b","JCD2012_e1b_1",0,"ValidCue",2,2280.597,"Include",207
"JCD2012_e1b","JCD2012_e1b_1",1,"ValidCue",3,1687.247,"Include",208
"JCD2012_e1b","JCD2012_e1b_1",1,"InvalidCue",5,2966.489,"Include",65
"JCD2012_e1b","JCD2012_e1b_1",1,"ValidCue",6,1573.686,"Include",209
"JCD2012_e1b","JCD2012_e1b_1",0,"ValidCue",2,1465.629,"Include",210
"JCD2012_e1b","JCD2012_e1b_1",0,"ValidCue",2,1919.372,"Include",211
"JCD2012_e1b","JCD2012_e1b_1",0,"ValidCue",2,980.4414,"Include",212
"JCD2012_e1b","JCD2012_e1b_1",1,"ValidCue",4,928.9913,"Include",213
"JCD2012_e1b","JCD2012_e1b_1",1,"ValidCue",5,851.5233,"Include",214
"JCD2012_e1b","JCD2012_e1b_1",1,"ValidCue",3,1578.953,"Include",215
"JCD2012_e1b","JCD2012_e1b_1",1,"ValidCue",2,2079.269,"Include",216
"JCD2012_e1b","JCD2012_e1b_1",1,"InvalidCue",2,2429.825,"Include",66
"JCD2012_e1b","JCD2012_e1b_1",0,"ValidCue",1,2347.659,"Include",217
"JCD2012_e1b","JCD2012_e1b_1",1,"ValidCue",4,2672.21,"Include",218
"JCD2012_e1b","JCD2012_e1b_1",0,"InvalidCue",3,1547.947,"Include",67
"JCD2012_e1b","JCD2012_e1b_1",0,"ValidCue",2,1723.186,"Include",219
"JCD2012_e1b","JCD2012_e1b_1",1,"ValidCue",3,3683.306,"Include",220
"JCD2012_e1b","JCD2012_e1b_1",1,"InvalidCue",6,1661.434,"Include",68
"JCD2012_e1b","JCD2012_e1b_1",1,"ValidCue",5,1181.694,"Include",221
"JCD2012_e1b","JCD2012_e1b_1",0,"ValidCue",4,1290.145,"Include",222
"JCD2012_e1b","JCD2012_e1b_1",0,"ValidCue",1,1903.834,"Include",223
"JCD2012_e1b","JCD2012_e1b_1",0,"InvalidCue",3,1805.713,"Include",69
"JCD2012_e1b","JCD2012_e1b_1",0,"ValidCue",3,1424.094,"Include",224
"JCD2012_e1b","JCD2012_e1b_1",1,"ValidCue",5,2249.387,"Include",225
"JCD2012_e1b","JCD2012_e1b_1",0,"ValidCue",2,1480.81,"Include",226
"JCD2012_e1b","JCD2012_e1b_1",1,"InvalidCue",2,1140.381,"Include",70
"JCD2012_e1b","JCD2012_e1b_1",0,"InvalidCue",4,1155.842,"Include",71
"JCD2012_e1b","JCD2012_e1b_1",1,"InvalidCue",3,1707.835,"Include",72
"JCD2012_e1b","JCD2012_e1b_1",0,"InvalidCue",1,2187.47,"Include",73
"JCD2012_e1b","JCD2012_e1b_1",0,"ValidCue",2,1460.159,"Include",227
"JCD2012_e1b","JCD2012_e1b_1",1,"ValidCue",4,1099.171,"Include",228
"JCD2012_e1b","JCD2012_e1b_1",1,"ValidCue",2,1465.369,"Include",229
"JCD2012_e1b","JCD2012_e1b_1",1,"ValidCue",4,2094.573,"Include",230
"JCD2012_e1b","JCD2012_e1b_1",1,"ValidCue",4,1480.889,"Include",231
"JCD2012_e1b","JCD2012_e1b_1",0,"ValidCue",1,1346.668,"Include",232
"JCD2012_e1b","JCD2012_e1b_1",1,"InvalidCue",2,2089.525,"Include",74
"JCD2012_e1b","JCD2012_e1b_1",1,"InvalidCue",2,3028.148,"Include",75
"JCD2012_e1b","JCD2012_e1b_1",1,"ValidCue",6,1702.548,"Include",233
"JCD2012_e1b","JCD2012_e1b_1",1,"ValidCue",6,1496.274,"Include",234
"JCD2012_e1b","JCD2012_e1b_1",1,"ValidCue",6,985.7126,"Include",235
"JCD2012_e1b","JCD2012_e1b_1",1,"ValidCue",5,1037.178,"Include",236
"JCD2012_e1b","JCD2012_e1b_1",0,"ValidCue",2,1877.981,"Include",237
"JCD2012_e1b","JCD2012_e1b_1",1,"InvalidCue",2,1011.404,"Include",76
"JCD2012_e1b","JCD2012_e1b_1",0,"InvalidCue",5,1099.204,"Include",77
"JCD2012_e1b","JCD2012_e1b_1",1,"ValidCue",5,1506.755,"Include",238
"JCD2012_e1b","JCD2012_e1b_1",1,"ValidCue",4,892.8576,"Include",239
"JCD2012_e1b","JCD2012_e1b_1",0,"InvalidCue",3,1176.565,"Include",78
"JCD2012_e1b","JCD2012_e1b_1",1,"ValidCue",5,2048.449,"Include",240
"JCD2012_e1b","JCD2012_e1b_1",1,"ValidCue",4,2218.397,"Include",241
"JCD2012_e1b","JCD2012_e1b_1",0,"ValidCue",2,1687.388,"Include",242
"JCD2012_e1b","JCD2012_e1b_1",0,"ValidCue",2,1728.477,"Include",243
"JCD2012_e1b","JCD2012_e1b_1",1,"InvalidCue",6,1609.863,"Include",79
"JCD2012_e1b","JCD2012_e1b_1",1,"ValidCue",0,0.478,"Exclude",244
"JCD2012_e1b","JCD2012_e1b_1",1,"ValidCue",2,2698.245,"Include",245
"JCD2012_e1b","JCD2012_e1b_1",1,"ValidCue",2,1259.228,"Include",246
"JCD2012_e1b","JCD2012_e1b_1",0,"InvalidCue",5,2858.199,"Include",80
"JCD2012_e1b","JCD2012_e1b_1",0,"ValidCue",2,2414.546,"Include",247
"JCD2012_e1b","JCD2012_e1b_1",0,"InvalidCue",2,2548.774,"Include",81
"JCD2012_e1b","JCD2012_e1b_1",0,"ValidCue",1,2590.204,"Include",248
"JCD2012_e1b","JCD2012_e1b_1",0,"ValidCue",2,1862.498,"Include",249
"JCD2012_e1b","JCD2012_e1b_1",0,"ValidCue",2,1186.95,"Include",250
"JCD2012_e1b","JCD2012_e1b_1",0,"ValidCue",1,970.3485,"Include",251
"JCD2012_e1b","JCD2012_e1b_1",0,"ValidCue",2,2001.981,"Include",252
"JCD2012_e1b","JCD2012_e1b_1",1,"ValidCue",4,1119.937,"Include",253
"JCD2012_e1b","JCD2012_e1b_1",0,"InvalidCue",4,995.9568,"Include",82
"JCD2012_e1b","JCD2012_e1b_1",1,"InvalidCue",3,1656.487,"Include",83
"JCD2012_e1b","JCD2012_e1b_1",0,"InvalidCue",2,1785.404,"Include",84
"JCD2012_e1b","JCD2012_e1b_1",0,"ValidCue",2,4725.671,"Include",254
"JCD2012_e1b","JCD2012_e1b_1",1,"ValidCue",4,1867.821,"Include",255
"JCD2012_e1b","JCD2012_e1b_1",1,"ValidCue",4,1120.125,"Include",256
"JCD2012_e1b","JCD2012_e1b_1",0,"InvalidCue",3,1821.5,"Include",85
"JCD2012_e1b","JCD2012_e1b_1",1,"InvalidCue",5,1352.14,"Include",86
"JCD2012_e1b","JCD2012_e1b_1",0,"ValidCue",2,2213.332,"Include",257
"JCD2012_e1b","JCD2012_e1b_1",0,"ValidCue",2,2120.763,"Include",258
"JCD2012_e1b","JCD2012_e1b_1",1,"InvalidCue",3,4509.035,"Include",87
"JCD2012_e1b","JCD2012_e1b_1",0,"ValidCue",2,2094.92,"Include",259
"JCD2012_e1b","JCD2012_e1b_1",0,"ValidCue",2,1197.246,"Include",260
"JCD2012_e1b","JCD2012_e1b_1",0,"ValidCue",2,1212.693,"Include",261
"JCD2012_e1b","JCD2012_e1b_1",1,"ValidCue",3,2487.281,"Include",262
"JCD2012_e1b","JCD2012_e1b_1",1,"ValidCue",2,2662.053,"Include",263
"JCD2012_e1b","JCD2012_e1b_1",0,"ValidCue",2,1594.465,"Include",264
"JCD2012_e1b","JCD2012_e1b_1",1,"ValidCue",2,1150.832,"Include",265
"JCD2012_e1b","JCD2012_e1b_1",0,"InvalidCue",4,1192.092,"Include",88
"JCD2012_e1b","JCD2012_e1b_1",0,"ValidCue",3,3085.334,"Include",266
"JCD2012_e1b","JCD2012_e1b_1",1,"ValidCue",4,3322.476,"Include",267
"JCD2012_e1b","JCD2012_e1b_1",1,"ValidCue",2,2626.108,"Include",268
"JCD2012_e1b","JCD2012_e1b_1",0,"ValidCue",2,3410.071,"Include",269
"JCD2012_e1b","JCD2012_e1b_1",0,"InvalidCue",2,2651.805,"Include",89
"JCD2012_e1b","JCD2012_e1b_1",0,"ValidCue",2,5648.905,"Include",270
"JCD2012_e1b","JCD2012_e1b_1",0,"InvalidCue",4,3198.688,"Include",90
"JCD2012_e1b","JCD2012_e1b_1",0,"NoCue",2,3348.366,"Include",1
"JCD2012_e1b","JCD2012_e1b_1",1,"NoCue",6,2306.276,"Include",2
"JCD2012_e1b","JCD2012_e1b_1",1,"NoCue",6,1068.079,"Include",3
"JCD2012_e1b","JCD2012_e1b_1",1,"NoCue",6,1718.199,"Include",4
"JCD2012_e1b","JCD2012_e1b_1",1,"NoCue",6,950.0673,"Include",5
"JCD2012_e1b","JCD2012_e1b_1",0,"NoCue",2,2167.016,"Include",6
"JCD2012_e1b","JCD2012_e1b_1",0,"NoCue",1,1238.619,"Include",7
"JCD2012_e1b","JCD2012_e1b_1",1,"NoCue",6,1037.321,"Include",8
"JCD2012_e1b","JCD2012_e1b_1",0,"NoCue",4,2270.581,"Include",9
"JCD2012_e1b","JCD2012_e1b_1",1,"NoCue",5,1315.782,"Include",10
"JCD2012_e1b","JCD2012_e1b_1",1,"NoCue",5,1290.128,"Include",11
"JCD2012_e1b","JCD2012_e1b_1",1,"NoCue",6,1073.417,"Include",12
"JCD2012_e1b","JCD2012_e1b_1",0,"NoCue",2,1150.838,"Include",13
"JCD2012_e1b","JCD2012_e1b_1",0,"NoCue",2,1542.839,"Include",14
"JCD2012_e1b","JCD2012_e1b_1",1,"NoCue",6,1351.882,"Include",15
"JCD2012_e1b","JCD2012_e1b_1",0,"NoCue",3,1573.924,"Include",16
"JCD2012_e1b","JCD2012_e1b_1",0,"NoCue",3,1656.214,"Include",17
"JCD2012_e1b","JCD2012_e1b_1",0,"NoCue",2,1398.464,"Include",18
"JCD2012_e1b","JCD2012_e1b_1",1,"NoCue",6,1078.479,"Include",19
"JCD2012_e1b","JCD2012_e1b_1",0,"NoCue",4,2497.17,"Include",20
"JCD2012_e1b","JCD2012_e1b_1",0,"NoCue",2,3296.824,"Include",21
"JCD2012_e1b","JCD2012_e1b_1",1,"NoCue",6,3023.068,"Include",22
"JCD2012_e1b","JCD2012_e1b_1",1,"NoCue",6,1109.579,"Include",23
"JCD2012_e1b","JCD2012_e1b_1",0,"NoCue",2,1651.017,"Include",24
"JCD2012_e1b","JCD2012_e1b_1",0,"NoCue",4,3136.842,"Include",25
"JCD2012_e1b","JCD2012_e1b_1",0,"NoCue",3,3358.602,"Include",26
"JCD2012_e1b","JCD2012_e1b_1",0,"NoCue",2,1816.15,"Include",27
"JCD2012_e1b","JCD2012_e1b_1",0,"NoCue",4,2063.795,"Include",28
"JCD2012_e1b","JCD2012_e1b_1",1,"NoCue",5,1063.151,"Include",29
"JCD2012_e1b","JCD2012_e1b_1",1,"NoCue",4,1960.751,"Include",30
"JCD2012_e1b","JCD2012_e1b_1",1,"NoCue",6,1058.042,"Include",31
"JCD2012_e1b","JCD2012_e1b_1",0,"NoCue",2,1615.456,"Include",32
"JCD2012_e1b","JCD2012_e1b_1",1,"NoCue",4,1785.149,"Include",33
"JCD2012_e1b","JCD2012_e1b_1",0,"NoCue",2,1656.461,"Include",34
"JCD2012_e1b","JCD2012_e1b_1",1,"NoCue",2,1842.096,"Include",35
"JCD2012_e1b","JCD2012_e1b_1",0,"NoCue",2,1161.145,"Include",36
"JCD2012_e1b","JCD2012_e1b_1",0,"NoCue",1,1707.87,"Include",37
"JCD2012_e1b","JCD2012_e1b_1",1,"NoCue",4,1651.128,"Include",38
"JCD2012_e1b","JCD2012_e1b_1",0,"NoCue",2,3214.034,"Include",39
"JCD2012_e1b","JCD2012_e1b_1",1,"NoCue",6,2172.433,"Include",40
"JCD2012_e1b","JCD2012_e1b_1",0,"NoCue",2,1666.693,"Include",41
"JCD2012_e1b","JCD2012_e1b_1",1,"NoCue",5,1625.357,"Include",42
"JCD2012_e1b","JCD2012_e1b_1",1,"NoCue",6,1496.487,"Include",43
"JCD2012_e1b","JCD2012_e1b_1",0,"NoCue",1,1269.586,"Include",44
"JCD2012_e1b","JCD2012_e1b_1",1,"NoCue",4,1527.424,"Include",45
"JCD2012_e1b","JCD2012_e1b_1",0,"NoCue",2,1274.76,"Include",46
"JCD2012_e1b","JCD2012_e1b_1",1,"NoCue",6,1568.592,"Include",47
"JCD2012_e1b","JCD2012_e1b_1",1,"NoCue",6,1419.08,"Include",48
"JCD2012_e1b","JCD2012_e1b_1",1,"NoCue",2,1228.163,"Include",49
"JCD2012_e1b","JCD2012_e1b_1",1,"NoCue",6,1037.205,"Include",50
"JCD2012_e1b","JCD2012_e1b_1",1,"NoCue",6,2450.594,"Include",51
"JCD2012_e1b","JCD2012_e1b_1",0,"NoCue",2,1780.177,"Include",52
"JCD2012_e1b","JCD2012_e1b_1",0,"NoCue",2,2151.544,"Include",53
"JCD2012_e1b","JCD2012_e1b_1",1,"NoCue",2,3121.197,"Include",54
"JCD2012_e1b","JCD2012_e1b_1",0,"NoCue",1,1310.687,"Include",55
"JCD2012_e1b","JCD2012_e1b_1",1,"NoCue",6,1269.368,"Include",56
"JCD2012_e1b","JCD2012_e1b_1",1,"NoCue",6,3002.661,"Include",57
"JCD2012_e1b","JCD2012_e1b_1",0,"NoCue",2,1965.842,"Include",58
"JCD2012_e1b","JCD2012_e1b_1",0,"NoCue",2,1192.168,"Include",59
"JCD2012_e1b","JCD2012_e1b_1",1,"NoCue",6,1300.366,"Include",60
"JCD2012_e1b","JCD2012_e1b_1",0,"NoCue",2,2275.453,"Include",61
"JCD2012_e1b","JCD2012_e1b_1",1,"NoCue",4,2662.29,"Include",62
"JCD2012_e1b","JCD2012_e1b_1",1,"NoCue",6,1615.066,"Include",63
"JCD2012_e1b","JCD2012_e1b_1",1,"NoCue",6,990.834,"Include",64
"JCD2012_e1b","JCD2012_e1b_1",0,"NoCue",2,1259.038,"Include",65
"JCD2012_e1b","JCD2012_e1b_1",0,"NoCue",2,1981.327,"Include",66
"JCD2012_e1b","JCD2012_e1b_1",0,"NoCue",2,1006.373,"Include",67
"JCD2012_e1b","JCD2012_e1b_1",1,"NoCue",1,2151.442,"Include",68
"JCD2012_e1b","JCD2012_e1b_1",1,"NoCue",6,1032.059,"Include",69
"JCD2012_e1b","JCD2012_e1b_1",0,"NoCue",2,2476.592,"Include",70
"JCD2012_e1b","JCD2012_e1b_1",0,"NoCue",2,1419.481,"Include",71
"JCD2012_e1b","JCD2012_e1b_1",1,"NoCue",6,949.497,"Include",72
"JCD2012_e1b","JCD2012_e1b_1",0,"NoCue",6,1269.382,"Include",73
"JCD2012_e1b","JCD2012_e1b_1",0,"NoCue",3,1289.912,"Include",74
"JCD2012_e1b","JCD2012_e1b_1",0,"NoCue",2,1403.474,"Include",75
"JCD2012_e1b","JCD2012_e1b_1",1,"NoCue",6,1114.689,"Include",76
"JCD2012_e1b","JCD2012_e1b_1",0,"NoCue",2,1176.574,"Include",77
"JCD2012_e1b","JCD2012_e1b_1",0,"NoCue",2,1166.149,"Include",78
"JCD2012_e1b","JCD2012_e1b_1",0,"NoCue",2,2827.282,"Include",79
"JCD2012_e1b","JCD2012_e1b_1",1,"NoCue",2,1063.385,"Include",80
"JCD2012_e1b","JCD2012_e1b_1",0,"NoCue",4,1615.138,"Include",81
"JCD2012_e1b","JCD2012_e1b_1",0,"NoCue",5,1207.484,"Include",82
"JCD2012_e1b","JCD2012_e1b_1",1,"NoCue",6,1254.304,"Include",83
"JCD2012_e1b","JCD2012_e1b_1",1,"NoCue",6,1377.819,"Include",84
"JCD2012_e1b","JCD2012_e1b_1",0,"NoCue",2,1403.428,"Include",85
"JCD2012_e1b","JCD2012_e1b_1",0,"NoCue",2,934.3045,"Include",86
"JCD2012_e1b","JCD2012_e1b_1",1,"NoCue",6,1284.829,"Include",87
"JCD2012_e1b","JCD2012_e1b_1",0,"NoCue",2,1088.951,"Include",88
"JCD2012_e1b","JCD2012_e1b_1",1,"NoCue",6,954.7544,"Include",89
"JCD2012_e1b","JCD2012_e1b_1",1,"NoCue",6,3440.927,"Include",90
"JCD2012_e1b","JCD2012_e1b_1",1,"NoCue",5,1775.031,"Include",91
"JCD2012_e1b","JCD2012_e1b_1",1,"NoCue",6,1279.817,"Include",92
"JCD2012_e1b","JCD2012_e1b_1",1,"NoCue",2,2420.074,"Include",93
"JCD2012_e1b","JCD2012_e1b_1",1,"NoCue",6,2068.954,"Include",94
"JCD2012_e1b","JCD2012_e1b_1",0,"NoCue",2,1419.009,"Include",95
"JCD2012_e1b","JCD2012_e1b_1",1,"NoCue",2,1140.533,"Include",96
"JCD2012_e1b","JCD2012_e1b_1",0,"NoCue",5,2161.758,"Include",97
"JCD2012_e1b","JCD2012_e1b_1",0,"NoCue",2,1408.574,"Include",98
"JCD2012_e1b","JCD2012_e1b_1",0,"NoCue",2,1130.321,"Include",99
"JCD2012_e1b","JCD2012_e1b_1",0,"NoCue",2,3007.853,"Include",100
"JCD2012_e1b","JCD2012_e1b_1",1,"NoCue",6,1145.623,"Include",101
"JCD2012_e1b","JCD2012_e1b_1",1,"NoCue",2,903.2529,"Include",102
"JCD2012_e1b","JCD2012_e1b_1",1,"NoCue",6,939.3607,"Include",103
"JCD2012_e1b","JCD2012_e1b_1",1,"NoCue",6,1408.726,"Include",104
"JCD2012_e1b","JCD2012_e1b_1",0,"NoCue",2,1419.195,"Include",105
"JCD2012_e1b","JCD2012_e1b_1",0,"NoCue",2,3265.828,"Include",106
"JCD2012_e1b","JCD2012_e1b_1",1,"NoCue",3,2625.943,"Include",107
"JCD2012_e1b","JCD2012_e1b_1",1,"NoCue",6,1191.942,"Include",108
"JCD2012_e1b","JCD2012_e1b_1",0,"NoCue",2,2641.544,"Include",109
"JCD2012_e1b","JCD2012_e1b_1",1,"NoCue",2,2780.838,"Include",110
"JCD2012_e1b","JCD2012_e1b_1",0,"NoCue",1,2099.802,"Include",111
"JCD2012_e1b","JCD2012_e1b_1",1,"NoCue",1,1563.417,"Include",112
"JCD2012_e1b","JCD2012_e1b_1",0,"NoCue",5,1614.911,"Include",113
"JCD2012_e1b","JCD2012_e1b_1",0,"NoCue",2,2120.429,"Include",114
"JCD2012_e1b","JCD2012_e1b_1",0,"NoCue",2,2177.225,"Include",115
"JCD2012_e1b","JCD2012_e1b_1",0,"NoCue",2,867.1754,"Include",116
"JCD2012_e1b","JCD2012_e1b_1",1,"NoCue",2,898.0141,"Include",117
"JCD2012_e1b","JCD2012_e1b_1",1,"NoCue",2,882.6022,"Include",118
"JCD2012_e1b","JCD2012_e1b_1",1,"NoCue",6,2094.783,"Include",119
"JCD2012_e1b","JCD2012_e1b_1",0,"NoCue",1,1728.415,"Include",120
"JCD2012_e1b","JCD2012_e1b_10",1,"ValidCue",6,2807.465,"Include",1
"JCD2012_e1b","JCD2012_e1b_10",1,"InvalidCue",6,3851.336,"Include",1
"JCD2012_e1b","JCD2012_e1b_10",1,"ValidCue",6,1613.013,"Include",2
"JCD2012_e1b","JCD2012_e1b_10",0,"ValidCue",1,2213.607,"Include",3
"JCD2012_e1b","JCD2012_e1b_10",1,"ValidCue",6,1602.133,"Include",4
"JCD2012_e1b","JCD2012_e1b_10",0,"ValidCue",1,1875.714,"Include",5
"JCD2012_e1b","JCD2012_e1b_10",1,"InvalidCue",3,3084.027,"Include",2
"JCD2012_e1b","JCD2012_e1b_10",1,"InvalidCue",6,1870.535,"Include",3
"JCD2012_e1b","JCD2012_e1b_10",0,"ValidCue",6,2469.814,"Include",6
"JCD2012_e1b","JCD2012_e1b_10",0,"ValidCue",1,1612.752,"Include",7
"JCD2012_e1b","JCD2012_e1b_10",1,"ValidCue",6,1526.795,"Include",8
"JCD2012_e1b","JCD2012_e1b_10",1,"ValidCue",2,2548.804,"Include",9
"JCD2012_e1b","JCD2012_e1b_10",0,"ValidCue",1,2099.196,"Include",10
"JCD2012_e1b","JCD2012_e1b_10",1,"ValidCue",6,1936.028,"Include",11
"JCD2012_e1b","JCD2012_e1b_10",1,"InvalidCue",6,1205.933,"Include",4
"JCD2012_e1b","JCD2012_e1b_10",0,"InvalidCue",1,1424.304,"Include",5
"JCD2012_e1b","JCD2012_e1b_10",0,"ValidCue",4,3591.852,"Include",12
"JCD2012_e1b","JCD2012_e1b_10",1,"ValidCue",1,2305.176,"Include",13
"JCD2012_e1b","JCD2012_e1b_10",1,"ValidCue",4,2875.165,"Include",14
"JCD2012_e1b","JCD2012_e1b_10",1,"InvalidCue",3,3337.452,"Include",6
"JCD2012_e1b","JCD2012_e1b_10",0,"ValidCue",1,2291.965,"Include",15
"JCD2012_e1b","JCD2012_e1b_10",0,"InvalidCue",1,3593.133,"Include",7
"JCD2012_e1b","JCD2012_e1b_10",0,"ValidCue",4,2416.793,"Include",16
"JCD2012_e1b","JCD2012_e1b_10",1,"ValidCue",6,2154.621,"Include",17
"JCD2012_e1b","JCD2012_e1b_10",0,"InvalidCue",1,1501.908,"Include",8
"JCD2012_e1b","JCD2012_e1b_10",1,"ValidCue",6,1639.56,"Include",18
"JCD2012_e1b","JCD2012_e1b_10",0,"InvalidCue",6,1726.899,"Include",9
"JCD2012_e1b","JCD2012_e1b_10",0,"InvalidCue",1,1395.38,"Include",10
"JCD2012_e1b","JCD2012_e1b_10",0,"ValidCue",6,2296.537,"Include",19
"JCD2012_e1b","JCD2012_e1b_10",0,"ValidCue",3,2245.022,"Include",20
"JCD2012_e1b","JCD2012_e1b_10",0,"ValidCue",1,1486.142,"Include",21
"JCD2012_e1b","JCD2012_e1b_10",0,"ValidCue",6,2099.411,"Include",22
"JCD2012_e1b","JCD2012_e1b_10",0,"ValidCue",4,2894.658,"Include",23
"JCD2012_e1b","JCD2012_e1b_10",1,"ValidCue",6,1946.976,"Include",24
"JCD2012_e1b","JCD2012_e1b_10",0,"ValidCue",1,2291.481,"Include",25
"JCD2012_e1b","JCD2012_e1b_10",0,"ValidCue",1,1539.479,"Include",26
"JCD2012_e1b","JCD2012_e1b_10",0,"ValidCue",1,2416.212,"Include",27
"JCD2012_e1b","JCD2012_e1b_10",0,"InvalidCue",1,1897.984,"Include",11
"JCD2012_e1b","JCD2012_e1b_10",1,"ValidCue",6,2177.345,"Include",28
"JCD2012_e1b","JCD2012_e1b_10",0,"ValidCue",1,2579.884,"Include",29
"JCD2012_e1b","JCD2012_e1b_10",1,"ValidCue",6,1700.808,"Include",30
"JCD2012_e1b","JCD2012_e1b_10",1,"ValidCue",3,2618.998,"Include",31
"JCD2012_e1b","JCD2012_e1b_10",1,"ValidCue",1,2127.585,"Include",32
"JCD2012_e1b","JCD2012_e1b_10",1,"ValidCue",3,2132.821,"Include",33
"JCD2012_e1b","JCD2012_e1b_10",1,"ValidCue",6,2159.934,"Include",34
"JCD2012_e1b","JCD2012_e1b_10",1,"ValidCue",6,1707.928,"Include",35
"JCD2012_e1b","JCD2012_e1b_10",1,"ValidCue",6,1914.378,"Include",36
"JCD2012_e1b","JCD2012_e1b_10",0,"ValidCue",1,2583.054,"Include",37
"JCD2012_e1b","JCD2012_e1b_10",0,"ValidCue",1,1577.018,"Include",38
"JCD2012_e1b","JCD2012_e1b_10",0,"InvalidCue",5,1792.432,"Include",12
"JCD2012_e1b","JCD2012_e1b_10",1,"InvalidCue",1,1373.064,"Include",13
"JCD2012_e1b","JCD2012_e1b_10",1,"ValidCue",6,2061.761,"Include",39
"JCD2012_e1b","JCD2012_e1b_10",1,"ValidCue",6,1196.852,"Include",40
"JCD2012_e1b","JCD2012_e1b_10",1,"ValidCue",6,723.3779,"Include",41
"JCD2012_e1b","JCD2012_e1b_10",1,"InvalidCue",5,3269.85,"Include",14
"JCD2012_e1b","JCD2012_e1b_10",0,"InvalidCue",1,1317.539,"Include",15
"JCD2012_e1b","JCD2012_e1b_10",1,"InvalidCue",6,1681.009,"Include",16
"JCD2012_e1b","JCD2012_e1b_10",1,"ValidCue",6,1386.952,"Include",42
"JCD2012_e1b","JCD2012_e1b_10",0,"ValidCue",1,1669.717,"Include",43
"JCD2012_e1b","JCD2012_e1b_10",1,"ValidCue",6,1091.305,"Include",44
"JCD2012_e1b","JCD2012_e1b_10",1,"ValidCue",6,1108.062,"Include",45
"JCD2012_e1b","JCD2012_e1b_10",1,"ValidCue",6,3731.604,"Include",46
"JCD2012_e1b","JCD2012_e1b_10",1,"ValidCue",5,1291.11,"Include",47
"JCD2012_e1b","JCD2012_e1b_10",0,"ValidCue",1,1532.437,"Include",48
"JCD2012_e1b","JCD2012_e1b_10",0,"ValidCue",1,2989.625,"Include",49
"JCD2012_e1b","JCD2012_e1b_10",1,"ValidCue",4,3272.579,"Include",50
"JCD2012_e1b","JCD2012_e1b_10",0,"ValidCue",1,1988.784,"Include",51
"JCD2012_e1b","JCD2012_e1b_10",1,"InvalidCue",6,3628.501,"Include",17
"JCD2012_e1b","JCD2012_e1b_10",0,"ValidCue",6,2538.178,"Include",52
"JCD2012_e1b","JCD2012_e1b_10",1,"ValidCue",6,1344.432,"Include",53
"JCD2012_e1b","JCD2012_e1b_10",1,"InvalidCue",1,1832.226,"Include",18
"JCD2012_e1b","JCD2012_e1b_10",1,"ValidCue",1,1495.654,"Include",54
"JCD2012_e1b","JCD2012_e1b_10",1,"ValidCue",6,1239.875,"Include",55
"JCD2012_e1b","JCD2012_e1b_10",1,"ValidCue",6,986.3239,"Include",56
"JCD2012_e1b","JCD2012_e1b_10",0,"ValidCue",2,2097.251,"Include",57
"JCD2012_e1b","JCD2012_e1b_10",1,"ValidCue",5,1936.524,"Include",58
"JCD2012_e1b","JCD2012_e1b_10",1,"ValidCue",6,1094.537,"Include",59
"JCD2012_e1b","JCD2012_e1b_10",1,"ValidCue",4,2864.853,"Include",60
"JCD2012_e1b","JCD2012_e1b_10",0,"ValidCue",1,1776.343,"Include",61
"JCD2012_e1b","JCD2012_e1b_10",0,"InvalidCue",1,1760.565,"Include",19
"JCD2012_e1b","JCD2012_e1b_10",1,"InvalidCue",3,1954.727,"Include",20
"JCD2012_e1b","JCD2012_e1b_10",1,"ValidCue",4,2841.256,"Include",62
"JCD2012_e1b","JCD2012_e1b_10",0,"ValidCue",1,1517.93,"Include",63
"JCD2012_e1b","JCD2012_e1b_10",0,"ValidCue",1,1370.779,"Include",64
"JCD2012_e1b","JCD2012_e1b_10",0,"ValidCue",1,1054.641,"Include",65
"JCD2012_e1b","JCD2012_e1b_10",0,"ValidCue",3,2543.044,"Include",66
"JCD2012_e1b","JCD2012_e1b_10",1,"InvalidCue",4,1960.499,"Include",21
"JCD2012_e1b","JCD2012_e1b_10",0,"ValidCue",1,1780.252,"Include",67
"JCD2012_e1b","JCD2012_e1b_10",0,"ValidCue",6,2300.795,"Include",68
"JCD2012_e1b","JCD2012_e1b_10",0,"ValidCue",1,1635.8,"Include",69
"JCD2012_e1b","JCD2012_e1b_10",0,"ValidCue",3,3230.299,"Include",70
"JCD2012_e1b","JCD2012_e1b_10",1,"ValidCue",4,3272.712,"Include",71
"JCD2012_e1b","JCD2012_e1b_10",0,"ValidCue",3,4049.637,"Include",72
"JCD2012_e1b","JCD2012_e1b_10",0,"ValidCue",6,1780.13,"Include",73
"JCD2012_e1b","JCD2012_e1b_10",0,"ValidCue",2,2415.661,"Include",74
"JCD2012_e1b","JCD2012_e1b_10",0,"ValidCue",1,1461.979,"Include",75
"JCD2012_e1b","JCD2012_e1b_10",0,"ValidCue",1,1245.088,"Include",76
"JCD2012_e1b","JCD2012_e1b_10",0,"ValidCue",2,1806.616,"Include",77
"JCD2012_e1b","JCD2012_e1b_10",0,"InvalidCue",2,1478.754,"Include",22
"JCD2012_e1b","JCD2012_e1b_10",1,"ValidCue",2,1975.308,"Include",78
"JCD2012_e1b","JCD2012_e1b_10",0,"InvalidCue",4,2087.787,"Include",23
"JCD2012_e1b","JCD2012_e1b_10",1,"ValidCue",6,1461.38,"Include",79
"JCD2012_e1b","JCD2012_e1b_10",1,"ValidCue",5,1767.593,"Include",80
"JCD2012_e1b","JCD2012_e1b_10",1,"ValidCue",6,1264.572,"Include",81
"JCD2012_e1b","JCD2012_e1b_10",0,"InvalidCue",6,2155.591,"Include",24
"JCD2012_e1b","JCD2012_e1b_10",0,"InvalidCue",2,1869.358,"Include",25
"JCD2012_e1b","JCD2012_e1b_10",1,"ValidCue",2,2277.162,"Include",82
"JCD2012_e1b","JCD2012_e1b_10",1,"ValidCue",6,1922.565,"Include",83
"JCD2012_e1b","JCD2012_e1b_10",0,"ValidCue",1,1750.909,"Include",84
"JCD2012_e1b","JCD2012_e1b_10",0,"ValidCue",1,1290.16,"Include",85
"JCD2012_e1b","JCD2012_e1b_10",1,"InvalidCue",6,1743.885,"Include",26
"JCD2012_e1b","JCD2012_e1b_10",1,"ValidCue",6,1512.644,"Include",86
"JCD2012_e1b","JCD2012_e1b_10",0,"ValidCue",1,1151.915,"Include",87
"JCD2012_e1b","JCD2012_e1b_10",0,"InvalidCue",1,1597.959,"Include",27
"JCD2012_e1b","JCD2012_e1b_10",1,"InvalidCue",2,1468.888,"Include",28
"JCD2012_e1b","JCD2012_e1b_10",1,"InvalidCue",6,1429.419,"Include",29
"JCD2012_e1b","JCD2012_e1b_10",0,"InvalidCue",2,1597.326,"Include",30
"JCD2012_e1b","JCD2012_e1b_10",0,"ValidCue",6,1635.015,"Include",88
"JCD2012_e1b","JCD2012_e1b_10",0,"ValidCue",3,2700.045,"Include",89
"JCD2012_e1b","JCD2012_e1b_10",1,"ValidCue",1,1501.834,"Include",90
"JCD2012_e1b","JCD2012_e1b_10",1,"ValidCue",6,1652.61,"Include",91
"JCD2012_e1b","JCD2012_e1b_10",1,"ValidCue",6,807.2754,"Include",92
"JCD2012_e1b","JCD2012_e1b_10",0,"ValidCue",1,1390.683,"Include",93
"JCD2012_e1b","JCD2012_e1b_10",1,"ValidCue",6,923.5757,"Include",94
"JCD2012_e1b","JCD2012_e1b_10",1,"ValidCue",6,647.4249,"Include",95
"JCD2012_e1b","JCD2012_e1b_10",1,"ValidCue",6,557.9244,"Include",96
"JCD2012_e1b","JCD2012_e1b_10",1,"InvalidCue",6,657.1312,"Include",31
"JCD2012_e1b","JCD2012_e1b_10",0,"ValidCue",1,857.9162,"Include",97
"JCD2012_e1b","JCD2012_e1b_10",0,"ValidCue",1,967.2009,"Include",98
"JCD2012_e1b","JCD2012_e1b_10",0,"ValidCue",1,860.9821,"Include",99
"JCD2012_e1b","JCD2012_e1b_10",0,"ValidCue",1,1084.515,"Include",100
"JCD2012_e1b","JCD2012_e1b_10",0,"InvalidCue",1,852.0482,"Include",32
"JCD2012_e1b","JCD2012_e1b_10",0,"ValidCue",1,966.4416,"Include",101
"JCD2012_e1b","JCD2012_e1b_10",1,"ValidCue",6,812.4365,"Include",102
"JCD2012_e1b","JCD2012_e1b_10",1,"ValidCue",6,677.1883,"Include",103
"JCD2012_e1b","JCD2012_e1b_10",0,"ValidCue",1,989.5158,"Include",104
"JCD2012_e1b","JCD2012_e1b_10",0,"ValidCue",1,802.3047,"Include",105
"JCD2012_e1b","JCD2012_e1b_10",1,"ValidCue",6,618.7508,"Include",106
"JCD2012_e1b","JCD2012_e1b_10",0,"ValidCue",1,1309.655,"Include",107
"JCD2012_e1b","JCD2012_e1b_10",1,"ValidCue",6,728.343,"Include",108
"JCD2012_e1b","JCD2012_e1b_10",0,"ValidCue",1,1188.942,"Include",109
"JCD2012_e1b","JCD2012_e1b_10",0,"ValidCue",1,974.6939,"Include",110
"JCD2012_e1b","JCD2012_e1b_10",1,"ValidCue",6,1241.758,"Include",111
"JCD2012_e1b","JCD2012_e1b_10",1,"ValidCue",6,937.884,"Include",112
"JCD2012_e1b","JCD2012_e1b_10",1,"ValidCue",6,738.9023,"Include",113
"JCD2012_e1b","JCD2012_e1b_10",1,"InvalidCue",6,1105.175,"Include",33
"JCD2012_e1b","JCD2012_e1b_10",0,"ValidCue",1,1089.509,"Include",114
"JCD2012_e1b","JCD2012_e1b_10",0,"ValidCue",1,932.6745,"Include",115
"JCD2012_e1b","JCD2012_e1b_10",0,"ValidCue",1,1141.889,"Include",116
"JCD2012_e1b","JCD2012_e1b_10",1,"ValidCue",6,938.4392,"Include",117
"JCD2012_e1b","JCD2012_e1b_10",0,"ValidCue",1,744.1536,"Include",118
"JCD2012_e1b","JCD2012_e1b_10",0,"ValidCue",1,827.7709,"Include",119
"JCD2012_e1b","JCD2012_e1b_10",0,"ValidCue",1,717.7916,"Include",120
"JCD2012_e1b","JCD2012_e1b_10",0,"ValidCue",1,765.716,"Include",121
"JCD2012_e1b","JCD2012_e1b_10",0,"ValidCue",1,796.4537,"Include",122
"JCD2012_e1b","JCD2012_e1b_10",0,"ValidCue",1,812.3698,"Include",123
"JCD2012_e1b","JCD2012_e1b_10",1,"InvalidCue",6,671.108,"Include",34
"JCD2012_e1b","JCD2012_e1b_10",0,"ValidCue",1,964.0082,"Include",124
"JCD2012_e1b","JCD2012_e1b_10",0,"InvalidCue",1,848.5969,"Include",35
"JCD2012_e1b","JCD2012_e1b_10",0,"InvalidCue",1,817.375,"Include",36
"JCD2012_e1b","JCD2012_e1b_10",1,"ValidCue",1,660.4791,"Include",125
"JCD2012_e1b","JCD2012_e1b_10",1,"ValidCue",6,1084.292,"Include",126
"JCD2012_e1b","JCD2012_e1b_10",1,"ValidCue",6,618.3351,"Include",127
"JCD2012_e1b","JCD2012_e1b_10",1,"InvalidCue",6,702.66,"Include",37
"JCD2012_e1b","JCD2012_e1b_10",1,"ValidCue",6,916.7372,"Include",128
"JCD2012_e1b","JCD2012_e1b_10",1,"ValidCue",6,534.8845,"Include",129
"JCD2012_e1b","JCD2012_e1b_10",0,"ValidCue",1,1157.377,"Include",130
"JCD2012_e1b","JCD2012_e1b_10",1,"InvalidCue",1,1047.676,"Include",38
"JCD2012_e1b","JCD2012_e1b_10",1,"InvalidCue",3,2665.634,"Include",39
"JCD2012_e1b","JCD2012_e1b_10",0,"ValidCue",1,1660.484,"Include",131
"JCD2012_e1b","JCD2012_e1b_10",0,"ValidCue",1,1148.162,"Include",132
"JCD2012_e1b","JCD2012_e1b_10",0,"ValidCue",1,780.8346,"Include",133
"JCD2012_e1b","JCD2012_e1b_10",0,"InvalidCue",1,697.0237,"Include",40
"JCD2012_e1b","JCD2012_e1b_10",1,"ValidCue",6,1854.109,"Include",134
"JCD2012_e1b","JCD2012_e1b_10",1,"ValidCue",6,613.535,"Include",135
"JCD2012_e1b","JCD2012_e1b_10",0,"InvalidCue",1,880.5612,"Include",41
"JCD2012_e1b","JCD2012_e1b_10",0,"InvalidCue",1,922.2243,"Include",42
"JCD2012_e1b","JCD2012_e1b_10",0,"InvalidCue",1,728.4214,"Include",43
"JCD2012_e1b","JCD2012_e1b_10",0,"InvalidCue",1,1969.379,"Include",44
"JCD2012_e1b","JCD2012_e1b_10",0,"ValidCue",1,1042.543,"Include",136
"JCD2012_e1b","JCD2012_e1b_10",1,"ValidCue",1,849.2719,"Include",137
"JCD2012_e1b","JCD2012_e1b_10",1,"ValidCue",6,764.8849,"Include",138
"JCD2012_e1b","JCD2012_e1b_10",1,"ValidCue",2,1539.853,"Include",139
"JCD2012_e1b","JCD2012_e1b_10",0,"InvalidCue",2,1880.244,"Include",45
"JCD2012_e1b","JCD2012_e1b_10",1,"ValidCue",6,932.4855,"Include",140
"JCD2012_e1b","JCD2012_e1b_10",0,"ValidCue",1,1477.154,"Include",141
"JCD2012_e1b","JCD2012_e1b_10",0,"InvalidCue",1,801.6593,"Include",46
"JCD2012_e1b","JCD2012_e1b_10",1,"InvalidCue",6,1158.041,"Include",47
"JCD2012_e1b","JCD2012_e1b_10",1,"ValidCue",6,864.4668,"Include",142
"JCD2012_e1b","JCD2012_e1b_10",0,"ValidCue",1,901.037,"Include",143
"JCD2012_e1b","JCD2012_e1b_10",0,"ValidCue",1,864.5338,"Include",144
"JCD2012_e1b","JCD2012_e1b_10",1,"ValidCue",1,1508.272,"Include",145
"JCD2012_e1b","JCD2012_e1b_10",1,"ValidCue",6,639.3684,"Include",146
"JCD2012_e1b","JCD2012_e1b_10",0,"InvalidCue",1,827.8793,"Include",48
"JCD2012_e1b","JCD2012_e1b_10",0,"ValidCue",1,901.2927,"Include",147
"JCD2012_e1b","JCD2012_e1b_10",0,"ValidCue",1,686.5628,"Include",148
"JCD2012_e1b","JCD2012_e1b_10",0,"ValidCue",1,843.7959,"Include",149
"JCD2012_e1b","JCD2012_e1b_10",0,"ValidCue",6,1016.373,"Include",150
"JCD2012_e1b","JCD2012_e1b_10",0,"InvalidCue",1,1246.931,"Include",49
"JCD2012_e1b","JCD2012_e1b_10",1,"ValidCue",6,864.5147,"Include",151
"JCD2012_e1b","JCD2012_e1b_10",1,"ValidCue",6,676.3141,"Include",152
"JCD2012_e1b","JCD2012_e1b_10",1,"ValidCue",6,979.7072,"Include",153
"JCD2012_e1b","JCD2012_e1b_10",1,"InvalidCue",2,1748.871,"Include",50
"JCD2012_e1b","JCD2012_e1b_10",1,"InvalidCue",6,749.4375,"Include",51
"JCD2012_e1b","JCD2012_e1b_10",1,"ValidCue",6,775.5461,"Include",154
"JCD2012_e1b","JCD2012_e1b_10",1,"ValidCue",2,1723.051,"Include",155
"JCD2012_e1b","JCD2012_e1b_10",1,"ValidCue",1,1304.354,"Include",156
"JCD2012_e1b","JCD2012_e1b_10",0,"ValidCue",2,1855.008,"Include",157
"JCD2012_e1b","JCD2012_e1b_10",0,"InvalidCue",3,2937.966,"Include",52
"JCD2012_e1b","JCD2012_e1b_10",1,"ValidCue",6,1147.827,"Include",158
"JCD2012_e1b","JCD2012_e1b_10",0,"ValidCue",1,1162.817,"Include",159
"JCD2012_e1b","JCD2012_e1b_10",1,"ValidCue",6,1136.953,"Include",160
"JCD2012_e1b","JCD2012_e1b_10",0,"ValidCue",1,1115.785,"Include",161
"JCD2012_e1b","JCD2012_e1b_10",0,"ValidCue",1,1304.137,"Include",162
"JCD2012_e1b","JCD2012_e1b_10",0,"ValidCue",1,854.1958,"Include",163
"JCD2012_e1b","JCD2012_e1b_10",0,"ValidCue",1,1472.083,"Include",164
"JCD2012_e1b","JCD2012_e1b_10",1,"ValidCue",1,1330.336,"Include",165
"JCD2012_e1b","JCD2012_e1b_10",0,"ValidCue",1,1284.061,"Include",166
"JCD2012_e1b","JCD2012_e1b_10",1,"InvalidCue",1,702.2525,"Include",53
"JCD2012_e1b","JCD2012_e1b_10",1,"InvalidCue",1,1587.224,"Include",54
"JCD2012_e1b","JCD2012_e1b_10",1,"InvalidCue",6,649.9311,"Include",55
"JCD2012_e1b","JCD2012_e1b_10",1,"ValidCue",5,2315.222,"Include",167
"JCD2012_e1b","JCD2012_e1b_10",1,"InvalidCue",2,1340.91,"Include",56
"JCD2012_e1b","JCD2012_e1b_10",0,"ValidCue",1,1236.509,"Include",168
"JCD2012_e1b","JCD2012_e1b_10",0,"ValidCue",1,896.1726,"Include",169
"JCD2012_e1b","JCD2012_e1b_10",1,"ValidCue",6,796.4064,"Include",170
"JCD2012_e1b","JCD2012_e1b_10",0,"InvalidCue",1,1272.851,"Include",57
"JCD2012_e1b","JCD2012_e1b_10",1,"ValidCue",6,1016.288,"Include",171
"JCD2012_e1b","JCD2012_e1b_10",0,"ValidCue",1,827.7809,"Include",172
"JCD2012_e1b","JCD2012_e1b_10",0,"ValidCue",1,1037.519,"Include",173
"JCD2012_e1b","JCD2012_e1b_10",1,"InvalidCue",6,806.9125,"Include",58
"JCD2012_e1b","JCD2012_e1b_10",0,"ValidCue",1,953.4082,"Include",174
"JCD2012_e1b","JCD2012_e1b_10",1,"ValidCue",6,1016.212,"Include",175
"JCD2012_e1b","JCD2012_e1b_10",1,"InvalidCue",6,1152.515,"Include",59
"JCD2012_e1b","JCD2012_e1b_10",1,"ValidCue",6,759.6426,"Include",176
"JCD2012_e1b","JCD2012_e1b_10",1,"ValidCue",1,1874.969,"Include",177
"JCD2012_e1b","JCD2012_e1b_10",1,"ValidCue",1,1424.593,"Include",178
"JCD2012_e1b","JCD2012_e1b_10",1,"ValidCue",2,1728.118,"Include",179
"JCD2012_e1b","JCD2012_e1b_10",1,"ValidCue",2,1189.356,"Include",180
"JCD2012_e1b","JCD2012_e1b_10",0,"InvalidCue",2,864.6726,"Include",60
"JCD2012_e1b","JCD2012_e1b_10",1,"ValidCue",5,2247.333,"Include",181
"JCD2012_e1b","JCD2012_e1b_10",1,"ValidCue",6,1361.653,"Include",182
"JCD2012_e1b","JCD2012_e1b_10",1,"ValidCue",6,948.2215,"Include",183
"JCD2012_e1b","JCD2012_e1b_10",1,"InvalidCue",6,890.9616,"Include",61
"JCD2012_e1b","JCD2012_e1b_10",1,"InvalidCue",6,953.5027,"Include",62
"JCD2012_e1b","JCD2012_e1b_10",0,"InvalidCue",2,1581.888,"Include",63
"JCD2012_e1b","JCD2012_e1b_10",1,"ValidCue",2,1419.559,"Include",184
"JCD2012_e1b","JCD2012_e1b_10",0,"InvalidCue",2,1115.577,"Include",64
"JCD2012_e1b","JCD2012_e1b_10",1,"ValidCue",6,1042.979,"Include",185
"JCD2012_e1b","JCD2012_e1b_10",0,"ValidCue",1,1387.918,"Include",186
"JCD2012_e1b","JCD2012_e1b_10",0,"InvalidCue",1,2262.587,"Include",65
"JCD2012_e1b","JCD2012_e1b_10",0,"ValidCue",1,1205.241,"Include",187
"JCD2012_e1b","JCD2012_e1b_10",1,"ValidCue",1,1005.844,"Include",188
"JCD2012_e1b","JCD2012_e1b_10",0,"ValidCue",1,1544.833,"Include",189
"JCD2012_e1b","JCD2012_e1b_10",1,"ValidCue",6,833.2211,"Include",190
"JCD2012_e1b","JCD2012_e1b_10",1,"ValidCue",1,1210.126,"Include",191
"JCD2012_e1b","JCD2012_e1b_10",1,"ValidCue",6,1120.962,"Include",192
"JCD2012_e1b","JCD2012_e1b_10",0,"ValidCue",1,1048.078,"Include",193
"JCD2012_e1b","JCD2012_e1b_10",0,"ValidCue",1,796.2803,"Include",194
"JCD2012_e1b","JCD2012_e1b_10",0,"ValidCue",1,1283.49,"Include",195
"JCD2012_e1b","JCD2012_e1b_10",1,"ValidCue",6,900.9375,"Include",196
"JCD2012_e1b","JCD2012_e1b_10",1,"ValidCue",6,890.5377,"Include",197
"JCD2012_e1b","JCD2012_e1b_10",1,"ValidCue",1,964.2498,"Include",198
"JCD2012_e1b","JCD2012_e1b_10",0,"InvalidCue",1,1063.404,"Include",66
"JCD2012_e1b","JCD2012_e1b_10",0,"InvalidCue",1,864.3967,"Include",67
"JCD2012_e1b","JCD2012_e1b_10",1,"ValidCue",6,1016.9,"Include",199
"JCD2012_e1b","JCD2012_e1b_10",1,"ValidCue",6,938.0485,"Include",200
"JCD2012_e1b","JCD2012_e1b_10",1,"ValidCue",6,712.6124,"Include",201
"JCD2012_e1b","JCD2012_e1b_10",0,"ValidCue",1,1152.416,"Include",202
"JCD2012_e1b","JCD2012_e1b_10",1,"InvalidCue",6,911.5337,"Include",68
"JCD2012_e1b","JCD2012_e1b_10",0,"InvalidCue",6,801.8875,"Include",69
"JCD2012_e1b","JCD2012_e1b_10",1,"ValidCue",6,649.8342,"Include",203
"JCD2012_e1b","JCD2012_e1b_10",0,"ValidCue",1,817.1672,"Include",204
"JCD2012_e1b","JCD2012_e1b_10",1,"ValidCue",6,843.5461,"Include",205
"JCD2012_e1b","JCD2012_e1b_10",1,"InvalidCue",6,791.3962,"Include",70
"JCD2012_e1b","JCD2012_e1b_10",1,"ValidCue",1,1152.295,"Include",206
"JCD2012_e1b","JCD2012_e1b_10",1,"ValidCue",6,843.7147,"Include",207
"JCD2012_e1b","JCD2012_e1b_10",0,"ValidCue",1,1487.94,"Include",208
"JCD2012_e1b","JCD2012_e1b_10",0,"ValidCue",6,806.8426,"Include",209
"JCD2012_e1b","JCD2012_e1b_10",0,"InvalidCue",1,984.7379,"Include",71
"JCD2012_e1b","JCD2012_e1b_10",0,"ValidCue",6,707.3387,"Include",210
"JCD2012_e1b","JCD2012_e1b_10",0,"ValidCue",6,1163.538,"Include",211
"JCD2012_e1b","JCD2012_e1b_10",0,"ValidCue",1,890.4311,"Include",212
"JCD2012_e1b","JCD2012_e1b_10",0,"InvalidCue",1,885.56,"Include",72
"JCD2012_e1b","JCD2012_e1b_10",1,"ValidCue",6,906.6289,"Include",213
"JCD2012_e1b","JCD2012_e1b_10",1,"ValidCue",6,807.6297,"Include",214
"JCD2012_e1b","JCD2012_e1b_10",1,"ValidCue",6,623.665,"Include",215
"JCD2012_e1b","JCD2012_e1b_10",0,"ValidCue",1,890.7853,"Include",216
"JCD2012_e1b","JCD2012_e1b_10",0,"InvalidCue",1,781.3737,"Include",73
"JCD2012_e1b","JCD2012_e1b_10",1,"InvalidCue",6,2136.488,"Include",74
"JCD2012_e1b","JCD2012_e1b_10",1,"InvalidCue",1,874.8038,"Include",75
"JCD2012_e1b","JCD2012_e1b_10",0,"ValidCue",1,634.5892,"Include",217
"JCD2012_e1b","JCD2012_e1b_10",0,"InvalidCue",1,979.502,"Include",76
"JCD2012_e1b","JCD2012_e1b_10",0,"ValidCue",1,770.2804,"Include",218
"JCD2012_e1b","JCD2012_e1b_10",0,"ValidCue",1,964.169,"Include",219
"JCD2012_e1b","JCD2012_e1b_10",1,"ValidCue",6,943.6068,"Include",220
"JCD2012_e1b","JCD2012_e1b_10",0,"ValidCue",1,696.9204,"Include",221
"JCD2012_e1b","JCD2012_e1b_10",1,"InvalidCue",6,848.8666,"Include",77
"JCD2012_e1b","JCD2012_e1b_10",1,"InvalidCue",1,943.039,"Include",78
"JCD2012_e1b","JCD2012_e1b_10",1,"InvalidCue",1,1251.77,"Include",79
"JCD2012_e1b","JCD2012_e1b_10",0,"ValidCue",1,927.2234,"Include",222
"JCD2012_e1b","JCD2012_e1b_10",1,"ValidCue",6,1147.211,"Include",223
"JCD2012_e1b","JCD2012_e1b_10",1,"InvalidCue",5,1702.627,"Include",80
"JCD2012_e1b","JCD2012_e1b_10",1,"ValidCue",6,1655.216,"Include",224
"JCD2012_e1b","JCD2012_e1b_10",0,"ValidCue",1,901.1435,"Include",225
"JCD2012_e1b","JCD2012_e1b_10",0,"ValidCue",1,880.3968,"Include",226
"JCD2012_e1b","JCD2012_e1b_10",0,"ValidCue",1,853.9123,"Include",227
"JCD2012_e1b","JCD2012_e1b_10",0,"ValidCue",1,1121.155,"Include",228
"JCD2012_e1b","JCD2012_e1b_10",0,"ValidCue",1,2084.49,"Include",229
"JCD2012_e1b","JCD2012_e1b_10",1,"ValidCue",6,707.423,"Include",230
"JCD2012_e1b","JCD2012_e1b_10",0,"InvalidCue",1,2885.018,"Include",81
"JCD2012_e1b","JCD2012_e1b_10",0,"ValidCue",1,1806.84,"Include",231
"JCD2012_e1b","JCD2012_e1b_10",1,"ValidCue",1,916.9694,"Include",232
"JCD2012_e1b","JCD2012_e1b_10",1,"InvalidCue",1,1906.172,"Include",82
"JCD2012_e1b","JCD2012_e1b_10",0,"ValidCue",1,927.2704,"Include",233
"JCD2012_e1b","JCD2012_e1b_10",0,"ValidCue",1,1942.596,"Include",234
"JCD2012_e1b","JCD2012_e1b_10",1,"ValidCue",1,984.8885,"Include",235
"JCD2012_e1b","JCD2012_e1b_10",1,"ValidCue",6,1173.329,"Include",236
"JCD2012_e1b","JCD2012_e1b_10",1,"ValidCue",6,1335.867,"Include",237
"JCD2012_e1b","JCD2012_e1b_10",0,"ValidCue",1,744.164,"Include",238
"JCD2012_e1b","JCD2012_e1b_10",1,"ValidCue",1,2331.025,"Include",239
"JCD2012_e1b","JCD2012_e1b_10",1,"ValidCue",1,895.8373,"Include",240
"JCD2012_e1b","JCD2012_e1b_10",0,"ValidCue",1,697,"Include",241
"JCD2012_e1b","JCD2012_e1b_10",0,"InvalidCue",1,780.979,"Include",83
"JCD2012_e1b","JCD2012_e1b_10",0,"ValidCue",1,801.567,"Include",242
"JCD2012_e1b","JCD2012_e1b_10",0,"ValidCue",1,1173.419,"Include",243
"JCD2012_e1b","JCD2012_e1b_10",0,"InvalidCue",2,1267.498,"Include",84
"JCD2012_e1b","JCD2012_e1b_10",0,"ValidCue",6,833.1768,"Include",244
"JCD2012_e1b","JCD2012_e1b_10",0,"ValidCue",1,1571.218,"Include",245
"JCD2012_e1b","JCD2012_e1b_10",1,"ValidCue",1,807.0678,"Include",246
"JCD2012_e1b","JCD2012_e1b_10",0,"ValidCue",6,1068.847,"Include",247
"JCD2012_e1b","JCD2012_e1b_10",0,"InvalidCue",6,932.1371,"Include",85
"JCD2012_e1b","JCD2012_e1b_10",1,"ValidCue",1,796.4822,"Include",248
"JCD2012_e1b","JCD2012_e1b_10",0,"ValidCue",1,885.5015,"Include",249
"JCD2012_e1b","JCD2012_e1b_10",1,"ValidCue",6,749.2929,"Include",250
"JCD2012_e1b","JCD2012_e1b_10",1,"InvalidCue",2,1173.319,"Include",86
"JCD2012_e1b","JCD2012_e1b_10",1,"InvalidCue",6,1000.856,"Include",87
"JCD2012_e1b","JCD2012_e1b_10",1,"ValidCue",6,764.9685,"Include",251
"JCD2012_e1b","JCD2012_e1b_10",1,"ValidCue",1,2832.764,"Include",252
"JCD2012_e1b","JCD2012_e1b_10",1,"InvalidCue",1,958.7307,"Include",88
"JCD2012_e1b","JCD2012_e1b_10",0,"ValidCue",2,1257.51,"Include",253
"JCD2012_e1b","JCD2012_e1b_10",0,"ValidCue",1,906.1884,"Include",254
"JCD2012_e1b","JCD2012_e1b_10",0,"ValidCue",1,1011.182,"Include",255
"JCD2012_e1b","JCD2012_e1b_10",0,"ValidCue",6,1958.466,"Include",256
"JCD2012_e1b","JCD2012_e1b_10",1,"ValidCue",1,928.0655,"Include",257
"JCD2012_e1b","JCD2012_e1b_10",0,"InvalidCue",1,807.0223,"Include",89
"JCD2012_e1b","JCD2012_e1b_10",0,"ValidCue",1,1864.938,"Include",258
"JCD2012_e1b","JCD2012_e1b_10",1,"ValidCue",6,912.3318,"Include",259
"JCD2012_e1b","JCD2012_e1b_10",0,"ValidCue",1,686.7288,"Include",260
"JCD2012_e1b","JCD2012_e1b_10",0,"ValidCue",1,743.9717,"Include",261
"JCD2012_e1b","JCD2012_e1b_10",1,"ValidCue",6,1074.118,"Include",262
"JCD2012_e1b","JCD2012_e1b_10",1,"ValidCue",6,906.5312,"Include",263
"JCD2012_e1b","JCD2012_e1b_10",1,"ValidCue",1,749.8647,"Include",264
"JCD2012_e1b","JCD2012_e1b_10",1,"InvalidCue",2,1120.872,"Include",90
"JCD2012_e1b","JCD2012_e1b_10",1,"ValidCue",6,848.8959,"Include",265
"JCD2012_e1b","JCD2012_e1b_10",0,"ValidCue",1,759.9864,"Include",266
"JCD2012_e1b","JCD2012_e1b_10",1,"ValidCue",6,718.1444,"Include",267
"JCD2012_e1b","JCD2012_e1b_10",0,"ValidCue",1,754.3429,"Include",268
"JCD2012_e1b","JCD2012_e1b_10",0,"ValidCue",1,939.0795,"Include",269
"JCD2012_e1b","JCD2012_e1b_10",1,"ValidCue",6,786.2233,"Include",270
"JCD2012_e1b","JCD2012_e1b_10",1,"NoCue",6,1879.696,"Include",1
"JCD2012_e1b","JCD2012_e1b_10",1,"NoCue",6,1000.558,"Include",2
"JCD2012_e1b","JCD2012_e1b_10",0,"NoCue",1,869.5076,"Include",3
"JCD2012_e1b","JCD2012_e1b_10",1,"NoCue",6,696.9113,"Include",4
"JCD2012_e1b","JCD2012_e1b_10",1,"NoCue",6,854.0892,"Include",5
"JCD2012_e1b","JCD2012_e1b_10",0,"NoCue",1,744.1493,"Include",6
"JCD2012_e1b","JCD2012_e1b_10",0,"NoCue",1,791.8096,"Include",7
"JCD2012_e1b","JCD2012_e1b_10",1,"NoCue",6,718.0328,"Include",8
"JCD2012_e1b","JCD2012_e1b_10",0,"NoCue",1,864.501,"Include",9
"JCD2012_e1b","JCD2012_e1b_10",1,"NoCue",6,770.8302,"Include",10
"JCD2012_e1b","JCD2012_e1b_10",1,"NoCue",6,995.3272,"Include",11
"JCD2012_e1b","JCD2012_e1b_10",1,"NoCue",6,738.9215,"Include",12
"JCD2012_e1b","JCD2012_e1b_10",0,"NoCue",1,864.7361,"Include",13
"JCD2012_e1b","JCD2012_e1b_10",0,"NoCue",1,859.5197,"Include",14
"JCD2012_e1b","JCD2012_e1b_10",0,"NoCue",1,822.8407,"Include",15
"JCD2012_e1b","JCD2012_e1b_10",0,"NoCue",1,1341.091,"Include",16
"JCD2012_e1b","JCD2012_e1b_10",0,"NoCue",1,1037.419,"Include",17
"JCD2012_e1b","JCD2012_e1b_10",1,"NoCue",6,801.5448,"Include",18
"JCD2012_e1b","JCD2012_e1b_10",0,"NoCue",1,859.1509,"Include",19
"JCD2012_e1b","JCD2012_e1b_10",0,"NoCue",1,1315.019,"Include",20
"JCD2012_e1b","JCD2012_e1b_10",1,"NoCue",1,1372.545,"Include",21
"JCD2012_e1b","JCD2012_e1b_10",1,"NoCue",1,1948.352,"Include",22
"JCD2012_e1b","JCD2012_e1b_10",1,"NoCue",6,608.0516,"Include",23
"JCD2012_e1b","JCD2012_e1b_10",1,"NoCue",6,623.5837,"Include",24
"JCD2012_e1b","JCD2012_e1b_10",1,"NoCue",6,691.785,"Include",25
"JCD2012_e1b","JCD2012_e1b_10",0,"NoCue",1,1749.548,"Include",26
"JCD2012_e1b","JCD2012_e1b_10",1,"NoCue",6,655.0337,"Include",27
"JCD2012_e1b","JCD2012_e1b_10",1,"NoCue",6,948.7439,"Include",28
"JCD2012_e1b","JCD2012_e1b_10",0,"NoCue",1,764.9992,"Include",29
"JCD2012_e1b","JCD2012_e1b_10",0,"NoCue",1,728.4782,"Include",30
"JCD2012_e1b","JCD2012_e1b_10",0,"NoCue",1,634.1559,"Include",31
"JCD2012_e1b","JCD2012_e1b_10",1,"NoCue",6,890.7447,"Include",32
"JCD2012_e1b","JCD2012_e1b_10",0,"NoCue",1,771.0441,"Include",33
"JCD2012_e1b","JCD2012_e1b_10",1,"NoCue",6,728.3812,"Include",34
"JCD2012_e1b","JCD2012_e1b_10",1,"NoCue",6,780.5673,"Include",35
"JCD2012_e1b","JCD2012_e1b_10",1,"NoCue",6,608.3289,"Include",36
"JCD2012_e1b","JCD2012_e1b_10",0,"NoCue",6,932.8766,"Include",37
"JCD2012_e1b","JCD2012_e1b_10",0,"NoCue",1,1377.658,"Include",38
"JCD2012_e1b","JCD2012_e1b_10",1,"NoCue",6,571.5577,"Include",39
"JCD2012_e1b","JCD2012_e1b_10",0,"NoCue",6,1021.533,"Include",40
"JCD2012_e1b","JCD2012_e1b_10",0,"NoCue",1,980.4389,"Include",41
"JCD2012_e1b","JCD2012_e1b_10",1,"NoCue",6,712.8666,"Include",42
"JCD2012_e1b","JCD2012_e1b_10",0,"NoCue",1,770.6346,"Include",43
"JCD2012_e1b","JCD2012_e1b_10",1,"NoCue",6,786.7161,"Include",44
"JCD2012_e1b","JCD2012_e1b_10",1,"NoCue",6,728.3856,"Include",45
"JCD2012_e1b","JCD2012_e1b_10",1,"NoCue",6,676.1848,"Include",46
"JCD2012_e1b","JCD2012_e1b_10",0,"NoCue",1,828.4598,"Include",47
"JCD2012_e1b","JCD2012_e1b_10",0,"NoCue",1,922.0568,"Include",48
"JCD2012_e1b","JCD2012_e1b_10",0,"NoCue",1,676.1949,"Include",49
"JCD2012_e1b","JCD2012_e1b_10",0,"NoCue",1,958.7809,"Include",50
"JCD2012_e1b","JCD2012_e1b_10",1,"NoCue",6,728.6391,"Include",51
"JCD2012_e1b","JCD2012_e1b_10",0,"NoCue",1,712.7238,"Include",52
"JCD2012_e1b","JCD2012_e1b_10",1,"NoCue",6,806.654,"Include",53
"JCD2012_e1b","JCD2012_e1b_10",1,"NoCue",6,1006.452,"Include",54
"JCD2012_e1b","JCD2012_e1b_10",1,"NoCue",6,665.4279,"Include",55
"JCD2012_e1b","JCD2012_e1b_10",0,"NoCue",1,838.6918,"Include",56
"JCD2012_e1b","JCD2012_e1b_10",1,"NoCue",6,649.8372,"Include",57
"JCD2012_e1b","JCD2012_e1b_10",1,"NoCue",6,665.5057,"Include",58
"JCD2012_e1b","JCD2012_e1b_10",0,"NoCue",1,780.5993,"Include",59
"JCD2012_e1b","JCD2012_e1b_10",1,"NoCue",6,1299.684,"Include",60
"JCD2012_e1b","JCD2012_e1b_10",0,"NoCue",1,739.072,"Include",61
"JCD2012_e1b","JCD2012_e1b_10",0,"NoCue",1,948.072,"Include",62
"JCD2012_e1b","JCD2012_e1b_10",0,"NoCue",1,691.6843,"Include",63
"JCD2012_e1b","JCD2012_e1b_10",0,"NoCue",1,838.3448,"Include",64
"JCD2012_e1b","JCD2012_e1b_10",0,"NoCue",1,686.4243,"Include",65
"JCD2012_e1b","JCD2012_e1b_10",1,"NoCue",6,1377.917,"Include",66
"JCD2012_e1b","JCD2012_e1b_10",1,"NoCue",6,734.2494,"Include",67
"JCD2012_e1b","JCD2012_e1b_10",1,"NoCue",6,655.1016,"Include",68
"JCD2012_e1b","JCD2012_e1b_10",1,"NoCue",6,681.2593,"Include",69
"JCD2012_e1b","JCD2012_e1b_10",1,"NoCue",6,733.5775,"Include",70
"JCD2012_e1b","JCD2012_e1b_10",0,"NoCue",1,764.9834,"Include",71
"JCD2012_e1b","JCD2012_e1b_10",0,"NoCue",1,576.5091,"Include",72
"JCD2012_e1b","JCD2012_e1b_10",0,"NoCue",1,1398.36,"Include",73
"JCD2012_e1b","JCD2012_e1b_10",0,"NoCue",1,921.9266,"Include",74
"JCD2012_e1b","JCD2012_e1b_10",0,"NoCue",1,718.5237,"Include",75
"JCD2012_e1b","JCD2012_e1b_10",0,"NoCue",1,707.401,"Include",76
"JCD2012_e1b","JCD2012_e1b_10",1,"NoCue",1,806.9928,"Include",77
"JCD2012_e1b","JCD2012_e1b_10",0,"NoCue",1,660.4183,"Include",78
"JCD2012_e1b","JCD2012_e1b_10",0,"NoCue",1,639.3234,"Include",79
"JCD2012_e1b","JCD2012_e1b_10",0,"NoCue",1,1629.138,"Include",80
"JCD2012_e1b","JCD2012_e1b_10",1,"NoCue",6,681.2706,"Include",81
"JCD2012_e1b","JCD2012_e1b_10",0,"NoCue",1,634.8807,"Include",82
"JCD2012_e1b","JCD2012_e1b_10",1,"NoCue",6,738.7545,"Include",83
"JCD2012_e1b","JCD2012_e1b_10",0,"NoCue",1,707.8649,"Include",84
"JCD2012_e1b","JCD2012_e1b_10",0,"NoCue",1,707.482,"Include",85
"JCD2012_e1b","JCD2012_e1b_10",0,"NoCue",1,917.0239,"Include",86
"JCD2012_e1b","JCD2012_e1b_10",1,"NoCue",6,775.4735,"Include",87
"JCD2012_e1b","JCD2012_e1b_10",1,"NoCue",6,654.9459,"Include",88
"JCD2012_e1b","JCD2012_e1b_10",0,"NoCue",6,1058.311,"Include",89
"JCD2012_e1b","JCD2012_e1b_10",0,"NoCue",1,655.1844,"Include",90
"JCD2012_e1b","JCD2012_e1b_10",0,"NoCue",1,707.3888,"Include",91
"JCD2012_e1b","JCD2012_e1b_10",1,"NoCue",6,1283.37,"Include",92
"JCD2012_e1b","JCD2012_e1b_10",1,"NoCue",6,780.6899,"Include",93
"JCD2012_e1b","JCD2012_e1b_10",1,"NoCue",6,665.6678,"Include",94
"JCD2012_e1b","JCD2012_e1b_10",1,"NoCue",6,822.468,"Include",95
"JCD2012_e1b","JCD2012_e1b_10",0,"NoCue",1,676.1392,"Include",96
"JCD2012_e1b","JCD2012_e1b_10",0,"NoCue",1,702.2486,"Include",97
"JCD2012_e1b","JCD2012_e1b_10",1,"NoCue",6,665.4593,"Include",98
"JCD2012_e1b","JCD2012_e1b_10",1,"NoCue",6,644.5628,"Include",99
"JCD2012_e1b","JCD2012_e1b_10",0,"NoCue",1,634.1526,"Include",100
"JCD2012_e1b","JCD2012_e1b_10",1,"NoCue",6,670.6893,"Include",101
"JCD2012_e1b","JCD2012_e1b_10",0,"NoCue",6,728.6425,"Include",102
"JCD2012_e1b","JCD2012_e1b_10",0,"NoCue",1,634.1575,"Include",103
"JCD2012_e1b","JCD2012_e1b_10",1,"NoCue",1,1288.302,"Include",104
"JCD2012_e1b","JCD2012_e1b_10",1,"NoCue",6,602.764,"Include",105
"JCD2012_e1b","JCD2012_e1b_10",1,"NoCue",6,911.4513,"Include",106
"JCD2012_e1b","JCD2012_e1b_10",1,"NoCue",6,812.0444,"Include",107
"JCD2012_e1b","JCD2012_e1b_10",0,"NoCue",1,566.1944,"Include",108
"JCD2012_e1b","JCD2012_e1b_10",0,"NoCue",1,890.5469,"Include",109
"JCD2012_e1b","JCD2012_e1b_10",1,"NoCue",6,712.618,"Include",110
"JCD2012_e1b","JCD2012_e1b_10",1,"NoCue",6,738.8168,"Include",111
"JCD2012_e1b","JCD2012_e1b_10",1,"NoCue",6,587.1306,"Include",112
"JCD2012_e1b","JCD2012_e1b_10",0,"NoCue",1,859.4048,"Include",113
"JCD2012_e1b","JCD2012_e1b_10",1,"NoCue",6,629.5984,"Include",114
"JCD2012_e1b","JCD2012_e1b_10",1,"NoCue",6,629.0008,"Include",115
"JCD2012_e1b","JCD2012_e1b_10",0,"NoCue",1,759.6635,"Include",116
"JCD2012_e1b","JCD2012_e1b_10",1,"NoCue",6,550.5256,"Include",117
"JCD2012_e1b","JCD2012_e1b_10",0,"NoCue",1,671.0646,"Include",118
"JCD2012_e1b","JCD2012_e1b_10",1,"NoCue",6,571.3651,"Include",119
"JCD2012_e1b","JCD2012_e1b_10",0,"NoCue",1,566.0485,"Include",120
"JCD2012_e1b","JCD2012_e1b_11",0,"ValidCue",5,2898.801,"Include",1
"JCD2012_e1b","JCD2012_e1b_11",0,"ValidCue",5,1150.072,"Include",2
"JCD2012_e1b","JCD2012_e1b_11",0,"ValidCue",5,964.4002,"Include",3
"JCD2012_e1b","JCD2012_e1b_11",0,"InvalidCue",3,2346.529,"Include",1
"JCD2012_e1b","JCD2012_e1b_11",1,"InvalidCue",1,1784.216,"Include",2
"JCD2012_e1b","JCD2012_e1b_11",1,"ValidCue",6,2346.191,"Include",4
"JCD2012_e1b","JCD2012_e1b_11",0,"ValidCue",3,3057.739,"Include",5
"JCD2012_e1b","JCD2012_e1b_11",0,"ValidCue",2,3021.515,"Include",6
"JCD2012_e1b","JCD2012_e1b_11",0,"InvalidCue",5,2222.473,"Include",3
"JCD2012_e1b","JCD2012_e1b_11",0,"ValidCue",1,3361.678,"Include",7
"JCD2012_e1b","JCD2012_e1b_11",1,"ValidCue",6,1552.135,"Include",8
"JCD2012_e1b","JCD2012_e1b_11",0,"ValidCue",2,2671.023,"Include",9
"JCD2012_e1b","JCD2012_e1b_11",1,"ValidCue",6,2732.734,"Include",10
"JCD2012_e1b","JCD2012_e1b_11",0,"ValidCue",1,1949.159,"Include",11
"JCD2012_e1b","JCD2012_e1b_11",0,"ValidCue",1,1464.465,"Include",12
"JCD2012_e1b","JCD2012_e1b_11",1,"ValidCue",6,1212,"Include",13
"JCD2012_e1b","JCD2012_e1b_11",0,"ValidCue",1,1016.113,"Include",14
"JCD2012_e1b","JCD2012_e1b_11",1,"InvalidCue",5,2222.459,"Include",4
"JCD2012_e1b","JCD2012_e1b_11",0,"ValidCue",1,1026.32,"Include",15
"JCD2012_e1b","JCD2012_e1b_11",0,"ValidCue",1,1902.869,"Include",16
"JCD2012_e1b","JCD2012_e1b_11",0,"ValidCue",3,2980.187,"Include",17
"JCD2012_e1b","JCD2012_e1b_11",1,"ValidCue",5,1660.712,"Include",18
"JCD2012_e1b","JCD2012_e1b_11",1,"ValidCue",5,1155.485,"Include",19
"JCD2012_e1b","JCD2012_e1b_11",1,"ValidCue",5,1196.413,"Include",20
"JCD2012_e1b","JCD2012_e1b_11",1,"ValidCue",6,969.7044,"Include",21
"JCD2012_e1b","JCD2012_e1b_11",1,"ValidCue",6,1315.057,"Include",22
"JCD2012_e1b","JCD2012_e1b_11",1,"InvalidCue",3,4258.535,"Include",5
"JCD2012_e1b","JCD2012_e1b_11",1,"ValidCue",6,1644.988,"Include",23
"JCD2012_e1b","JCD2012_e1b_11",1,"ValidCue",6,923.2387,"Include",24
"JCD2012_e1b","JCD2012_e1b_11",0,"ValidCue",2,2310.147,"Include",25
"JCD2012_e1b","JCD2012_e1b_11",0,"InvalidCue",4,2155.246,"Include",6
"JCD2012_e1b","JCD2012_e1b_11",1,"ValidCue",6,1320.204,"Include",26
"JCD2012_e1b","JCD2012_e1b_11",1,"ValidCue",6,1593.393,"Include",27
"JCD2012_e1b","JCD2012_e1b_11",0,"ValidCue",2,1500.692,"Include",28
"JCD2012_e1b","JCD2012_e1b_11",1,"ValidCue",6,2103.682,"Include",29
"JCD2012_e1b","JCD2012_e1b_11",0,"ValidCue",2,1418.29,"Include",30
"JCD2012_e1b","JCD2012_e1b_11",0,"ValidCue",2,1201.563,"Include",31
"JCD2012_e1b","JCD2012_e1b_11",1,"InvalidCue",5,1742.917,"Include",7
"JCD2012_e1b","JCD2012_e1b_11",0,"ValidCue",1,2021.867,"Include",32
"JCD2012_e1b","JCD2012_e1b_11",0,"ValidCue",1,2258.446,"Include",33
"JCD2012_e1b","JCD2012_e1b_11",1,"ValidCue",6,866.4997,"Include",34
"JCD2012_e1b","JCD2012_e1b_11",1,"ValidCue",5,2650.284,"Include",35
"JCD2012_e1b","JCD2012_e1b_11",0,"InvalidCue",4,1423.261,"Include",8
"JCD2012_e1b","JCD2012_e1b_11",0,"ValidCue",1,1377.001,"Include",36
"JCD2012_e1b","JCD2012_e1b_11",1,"ValidCue",5,1913.036,"Include",37
"JCD2012_e1b","JCD2012_e1b_11",0,"InvalidCue",5,1438.791,"Include",9
"JCD2012_e1b","JCD2012_e1b_11",0,"InvalidCue",5,1696.473,"Include",10
"JCD2012_e1b","JCD2012_e1b_11",1,"ValidCue",6,722.2097,"Include",38
"JCD2012_e1b","JCD2012_e1b_11",0,"ValidCue",2,1340.771,"Include",39
"JCD2012_e1b","JCD2012_e1b_11",1,"ValidCue",6,1727.403,"Include",40
"JCD2012_e1b","JCD2012_e1b_11",0,"InvalidCue",5,2413.017,"Include",11
"JCD2012_e1b","JCD2012_e1b_11",0,"ValidCue",2,1789.428,"Include",41
"JCD2012_e1b","JCD2012_e1b_11",1,"ValidCue",6,902.5567,"Include",42
"JCD2012_e1b","JCD2012_e1b_11",0,"InvalidCue",5,1572.78,"Include",12
"JCD2012_e1b","JCD2012_e1b_11",1,"ValidCue",6,974.7647,"Include",43
"JCD2012_e1b","JCD2012_e1b_11",1,"ValidCue",6,768.524,"Include",44
"JCD2012_e1b","JCD2012_e1b_11",0,"InvalidCue",5,2114,"Include",13
"JCD2012_e1b","JCD2012_e1b_11",1,"ValidCue",6,902.6065,"Include",45
"JCD2012_e1b","JCD2012_e1b_11",1,"ValidCue",5,1010.9,"Include",46
"JCD2012_e1b","JCD2012_e1b_11",1,"InvalidCue",4,2552.274,"Include",14
"JCD2012_e1b","JCD2012_e1b_11",0,"InvalidCue",3,1928.563,"Include",15
"JCD2012_e1b","JCD2012_e1b_11",0,"ValidCue",2,2145.277,"Include",47
"JCD2012_e1b","JCD2012_e1b_11",1,"InvalidCue",3,2526.72,"Include",16
"JCD2012_e1b","JCD2012_e1b_11",0,"ValidCue",3,1650.114,"Include",48
"JCD2012_e1b","JCD2012_e1b_11",1,"ValidCue",5,1289.225,"Include",49
"JCD2012_e1b","JCD2012_e1b_11",0,"ValidCue",2,1861.618,"Include",50
"JCD2012_e1b","JCD2012_e1b_11",1,"ValidCue",6,814.9551,"Include",51
"JCD2012_e1b","JCD2012_e1b_11",0,"ValidCue",2,1139.725,"Include",52
"JCD2012_e1b","JCD2012_e1b_11",0,"ValidCue",2,2114.217,"Include",53
"JCD2012_e1b","JCD2012_e1b_11",1,"ValidCue",6,1170.691,"Include",54
"JCD2012_e1b","JCD2012_e1b_11",1,"ValidCue",6,1217.265,"Include",55
"JCD2012_e1b","JCD2012_e1b_11",1,"ValidCue",5,1315.165,"Include",56
"JCD2012_e1b","JCD2012_e1b_11",0,"InvalidCue",3,2005.976,"Include",17
"JCD2012_e1b","JCD2012_e1b_11",1,"ValidCue",6,1222.613,"Include",57
"JCD2012_e1b","JCD2012_e1b_11",1,"InvalidCue",2,3443.907,"Include",18
"JCD2012_e1b","JCD2012_e1b_11",1,"ValidCue",5,1521.23,"Include",58
"JCD2012_e1b","JCD2012_e1b_11",0,"ValidCue",2,1505.738,"Include",59
"JCD2012_e1b","JCD2012_e1b_11",1,"ValidCue",6,856.2027,"Include",60
"JCD2012_e1b","JCD2012_e1b_11",1,"InvalidCue",2,1815.041,"Include",19
"JCD2012_e1b","JCD2012_e1b_11",0,"ValidCue",1,1150.161,"Include",61
"JCD2012_e1b","JCD2012_e1b_11",1,"ValidCue",6,799.5003,"Include",62
"JCD2012_e1b","JCD2012_e1b_11",1,"InvalidCue",2,1717.055,"Include",20
"JCD2012_e1b","JCD2012_e1b_11",1,"ValidCue",6,1175.895,"Include",63
"JCD2012_e1b","JCD2012_e1b_11",0,"InvalidCue",5,1268.597,"Include",21
"JCD2012_e1b","JCD2012_e1b_11",0,"ValidCue",2,1655.396,"Include",64
"JCD2012_e1b","JCD2012_e1b_11",0,"ValidCue",2,1913.04,"Include",65
"JCD2012_e1b","JCD2012_e1b_11",0,"ValidCue",2,1031.523,"Include",66
"JCD2012_e1b","JCD2012_e1b_11",0,"ValidCue",1,1108.897,"Include",67
"JCD2012_e1b","JCD2012_e1b_11",0,"InvalidCue",5,1232.58,"Include",22
"JCD2012_e1b","JCD2012_e1b_11",1,"ValidCue",6,825.2144,"Include",68
"JCD2012_e1b","JCD2012_e1b_11",1,"InvalidCue",1,1392.407,"Include",23
"JCD2012_e1b","JCD2012_e1b_11",0,"ValidCue",1,1119.111,"Include",69
"JCD2012_e1b","JCD2012_e1b_11",1,"ValidCue",6,897.5563,"Include",70
"JCD2012_e1b","JCD2012_e1b_11",1,"ValidCue",6,804.6883,"Include",71
"JCD2012_e1b","JCD2012_e1b_11",1,"ValidCue",6,1732.571,"Include",72
"JCD2012_e1b","JCD2012_e1b_11",1,"ValidCue",6,1562.614,"Include",73
"JCD2012_e1b","JCD2012_e1b_11",0,"ValidCue",2,1660.398,"Include",74
"JCD2012_e1b","JCD2012_e1b_11",0,"ValidCue",1,1232.617,"Include",75
"JCD2012_e1b","JCD2012_e1b_11",0,"ValidCue",1,1634.794,"Include",76
"JCD2012_e1b","JCD2012_e1b_11",1,"InvalidCue",5,1773.834,"Include",24
"JCD2012_e1b","JCD2012_e1b_11",1,"ValidCue",5,1397.56,"Include",77
"JCD2012_e1b","JCD2012_e1b_11",1,"ValidCue",6,1712.158,"Include",78
"JCD2012_e1b","JCD2012_e1b_11",0,"ValidCue",1,1639.897,"Include",79
"JCD2012_e1b","JCD2012_e1b_11",0,"ValidCue",1,1041.836,"Include",80
"JCD2012_e1b","JCD2012_e1b_11",0,"ValidCue",2,1608.964,"Include",81
"JCD2012_e1b","JCD2012_e1b_11",1,"InvalidCue",2,1433.731,"Include",25
"JCD2012_e1b","JCD2012_e1b_11",0,"InvalidCue",4,3088.514,"Include",26
"JCD2012_e1b","JCD2012_e1b_11",1,"InvalidCue",4,2170.974,"Include",27
"JCD2012_e1b","JCD2012_e1b_11",0,"ValidCue",2,1546.993,"Include",82
"JCD2012_e1b","JCD2012_e1b_11",0,"ValidCue",2,2531.622,"Include",83
"JCD2012_e1b","JCD2012_e1b_11",1,"ValidCue",5,887.1558,"Include",84
"JCD2012_e1b","JCD2012_e1b_11",1,"ValidCue",6,985.0251,"Include",85
"JCD2012_e1b","JCD2012_e1b_11",1,"InvalidCue",2,1639.79,"Include",28
"JCD2012_e1b","JCD2012_e1b_11",0,"InvalidCue",5,1304.935,"Include",29
"JCD2012_e1b","JCD2012_e1b_11",0,"ValidCue",2,2011.087,"Include",86
"JCD2012_e1b","JCD2012_e1b_11",1,"ValidCue",6,913.1425,"Include",87
"JCD2012_e1b","JCD2012_e1b_11",0,"ValidCue",1,1505.925,"Include",88
"JCD2012_e1b","JCD2012_e1b_11",1,"ValidCue",5,1273.864,"Include",89
"JCD2012_e1b","JCD2012_e1b_11",1,"InvalidCue",2,1227.381,"Include",30
"JCD2012_e1b","JCD2012_e1b_11",0,"ValidCue",1,1614.244,"Include",90
"JCD2012_e1b","JCD2012_e1b_11",1,"ValidCue",6,1547.065,"Include",91
"JCD2012_e1b","JCD2012_e1b_11",1,"ValidCue",6,758.2973,"Include",92
"JCD2012_e1b","JCD2012_e1b_11",0,"ValidCue",2,1155.391,"Include",93
"JCD2012_e1b","JCD2012_e1b_11",1,"ValidCue",6,701.5648,"Include",94
"JCD2012_e1b","JCD2012_e1b_11",0,"InvalidCue",1,1815.44,"Include",31
"JCD2012_e1b","JCD2012_e1b_11",0,"InvalidCue",5,2073.157,"Include",32
"JCD2012_e1b","JCD2012_e1b_11",0,"ValidCue",1,2212.365,"Include",95
"JCD2012_e1b","JCD2012_e1b_11",1,"ValidCue",6,851.061,"Include",96
"JCD2012_e1b","JCD2012_e1b_11",1,"InvalidCue",6,1243.001,"Include",33
"JCD2012_e1b","JCD2012_e1b_11",1,"ValidCue",6,1572.754,"Include",97
"JCD2012_e1b","JCD2012_e1b_11",0,"ValidCue",1,1186.148,"Include",98
"JCD2012_e1b","JCD2012_e1b_11",1,"ValidCue",6,1057.461,"Include",99
"JCD2012_e1b","JCD2012_e1b_11",0,"ValidCue",1,1222.31,"Include",100
"JCD2012_e1b","JCD2012_e1b_11",1,"ValidCue",6,794.3039,"Include",101
"JCD2012_e1b","JCD2012_e1b_11",0,"ValidCue",1,1258.334,"Include",102
"JCD2012_e1b","JCD2012_e1b_11",1,"ValidCue",6,748.0193,"Include",103
"JCD2012_e1b","JCD2012_e1b_11",0,"InvalidCue",6,1248.13,"Include",34
"JCD2012_e1b","JCD2012_e1b_11",1,"InvalidCue",1,1196.704,"Include",35
"JCD2012_e1b","JCD2012_e1b_11",0,"ValidCue",1,1712.026,"Include",104
"JCD2012_e1b","JCD2012_e1b_11",0,"ValidCue",2,1000.779,"Include",105
"JCD2012_e1b","JCD2012_e1b_11",1,"ValidCue",3,1846.023,"Include",106
"JCD2012_e1b","JCD2012_e1b_11",1,"ValidCue",6,856.2929,"Include",107
"JCD2012_e1b","JCD2012_e1b_11",0,"ValidCue",3,1253.204,"Include",108
"JCD2012_e1b","JCD2012_e1b_11",0,"ValidCue",2,1201.715,"Include",109
"JCD2012_e1b","JCD2012_e1b_11",0,"ValidCue",2,856.3098,"Include",110
"JCD2012_e1b","JCD2012_e1b_11",1,"ValidCue",6,1325.351,"Include",111
"JCD2012_e1b","JCD2012_e1b_11",1,"InvalidCue",2,2057.379,"Include",36
"JCD2012_e1b","JCD2012_e1b_11",1,"InvalidCue",3,1505.909,"Include",37
"JCD2012_e1b","JCD2012_e1b_11",1,"InvalidCue",3,2181.416,"Include",38
"JCD2012_e1b","JCD2012_e1b_11",0,"ValidCue",2,1052.4,"Include",112
"JCD2012_e1b","JCD2012_e1b_11",1,"ValidCue",6,2505.962,"Include",113
"JCD2012_e1b","JCD2012_e1b_11",1,"ValidCue",5,2176.119,"Include",114
"JCD2012_e1b","JCD2012_e1b_11",1,"InvalidCue",2,2057.456,"Include",39
"JCD2012_e1b","JCD2012_e1b_11",0,"ValidCue",2,1067.696,"Include",115
"JCD2012_e1b","JCD2012_e1b_11",1,"ValidCue",5,1701.83,"Include",116
"JCD2012_e1b","JCD2012_e1b_11",0,"ValidCue",2,1676.169,"Include",117
"JCD2012_e1b","JCD2012_e1b_11",0,"ValidCue",1,1459.599,"Include",118
"JCD2012_e1b","JCD2012_e1b_11",1,"ValidCue",5,1062.425,"Include",119
"JCD2012_e1b","JCD2012_e1b_11",1,"ValidCue",6,1418.189,"Include",120
"JCD2012_e1b","JCD2012_e1b_11",1,"ValidCue",4,1490.677,"Include",121
"JCD2012_e1b","JCD2012_e1b_11",1,"ValidCue",4,1232.664,"Include",122
"JCD2012_e1b","JCD2012_e1b_11",0,"InvalidCue",4,1413.191,"Include",40
"JCD2012_e1b","JCD2012_e1b_11",0,"ValidCue",1,1248.042,"Include",123
"JCD2012_e1b","JCD2012_e1b_11",0,"ValidCue",6,1614.133,"Include",124
"JCD2012_e1b","JCD2012_e1b_11",1,"ValidCue",5,1201.722,"Include",125
"JCD2012_e1b","JCD2012_e1b_11",1,"ValidCue",6,949.0589,"Include",126
"JCD2012_e1b","JCD2012_e1b_11",0,"ValidCue",1,1077.925,"Include",127
"JCD2012_e1b","JCD2012_e1b_11",0,"InvalidCue",5,1578.067,"Include",41
"JCD2012_e1b","JCD2012_e1b_11",0,"InvalidCue",6,1624.469,"Include",42
"JCD2012_e1b","JCD2012_e1b_11",1,"ValidCue",6,1083.02,"Include",128
"JCD2012_e1b","JCD2012_e1b_11",1,"ValidCue",6,830.6536,"Include",129
"JCD2012_e1b","JCD2012_e1b_11",1,"InvalidCue",2,1500.71,"Include",43
"JCD2012_e1b","JCD2012_e1b_11",0,"InvalidCue",3,2918.357,"Include",44
"JCD2012_e1b","JCD2012_e1b_11",1,"InvalidCue",5,1686.321,"Include",45
"JCD2012_e1b","JCD2012_e1b_11",1,"ValidCue",6,1134.638,"Include",130
"JCD2012_e1b","JCD2012_e1b_11",0,"ValidCue",2,1882.532,"Include",131
"JCD2012_e1b","JCD2012_e1b_11",0,"ValidCue",2,1047.041,"Include",132
"JCD2012_e1b","JCD2012_e1b_11",1,"ValidCue",4,1155.327,"Include",133
"JCD2012_e1b","JCD2012_e1b_11",0,"ValidCue",2,2000.845,"Include",134
"JCD2012_e1b","JCD2012_e1b_11",0,"InvalidCue",2,1877.085,"Include",46
"JCD2012_e1b","JCD2012_e1b_11",1,"ValidCue",6,763.621,"Include",135
"JCD2012_e1b","JCD2012_e1b_11",1,"InvalidCue",2,1624.404,"Include",47
"JCD2012_e1b","JCD2012_e1b_11",0,"ValidCue",2,1289.327,"Include",136
"JCD2012_e1b","JCD2012_e1b_11",0,"ValidCue",2,2124.558,"Include",137
"JCD2012_e1b","JCD2012_e1b_11",1,"ValidCue",6,1475.067,"Include",138
"JCD2012_e1b","JCD2012_e1b_11",1,"ValidCue",5,1722.498,"Include",139
"JCD2012_e1b","JCD2012_e1b_11",0,"ValidCue",1,1351.248,"Include",140
"JCD2012_e1b","JCD2012_e1b_11",1,"ValidCue",6,1150.094,"Include",141
"JCD2012_e1b","JCD2012_e1b_11",0,"ValidCue",2,990.3735,"Include",142
"JCD2012_e1b","JCD2012_e1b_11",0,"ValidCue",1,871.7954,"Include",143
"JCD2012_e1b","JCD2012_e1b_11",0,"InvalidCue",6,779.0185,"Include",48
"JCD2012_e1b","JCD2012_e1b_11",0,"ValidCue",1,949.225,"Include",144
"JCD2012_e1b","JCD2012_e1b_11",0,"ValidCue",1,1083.064,"Include",145
"JCD2012_e1b","JCD2012_e1b_11",0,"InvalidCue",5,2021.359,"Include",49
"JCD2012_e1b","JCD2012_e1b_11",1,"ValidCue",6,1768.666,"Include",146
"JCD2012_e1b","JCD2012_e1b_11",1,"InvalidCue",4,2243.142,"Include",50
"JCD2012_e1b","JCD2012_e1b_11",0,"ValidCue",2,1892.675,"Include",147
"JCD2012_e1b","JCD2012_e1b_11",0,"ValidCue",2,1346.151,"Include",148
"JCD2012_e1b","JCD2012_e1b_11",0,"ValidCue",1,1026.536,"Include",149
"JCD2012_e1b","JCD2012_e1b_11",1,"InvalidCue",6,954.2655,"Include",51
"JCD2012_e1b","JCD2012_e1b_11",1,"InvalidCue",2,1418.164,"Include",52
"JCD2012_e1b","JCD2012_e1b_11",0,"ValidCue",2,2176.295,"Include",150
"JCD2012_e1b","JCD2012_e1b_11",0,"InvalidCue",4,2062.919,"Include",53
"JCD2012_e1b","JCD2012_e1b_11",1,"ValidCue",5,969.8654,"Include",151
"JCD2012_e1b","JCD2012_e1b_11",1,"ValidCue",6,913.0983,"Include",152
"JCD2012_e1b","JCD2012_e1b_11",0,"ValidCue",2,1227.401,"Include",153
"JCD2012_e1b","JCD2012_e1b_11",1,"InvalidCue",5,1712.128,"Include",54
"JCD2012_e1b","JCD2012_e1b_11",0,"ValidCue",2,1392.474,"Include",154
"JCD2012_e1b","JCD2012_e1b_11",1,"ValidCue",6,918.1488,"Include",155
"JCD2012_e1b","JCD2012_e1b_11",1,"ValidCue",6,856.2078,"Include",156
"JCD2012_e1b","JCD2012_e1b_11",0,"ValidCue",1,2779.323,"Include",157
"JCD2012_e1b","JCD2012_e1b_11",0,"ValidCue",2,1186.404,"Include",158
"JCD2012_e1b","JCD2012_e1b_11",1,"ValidCue",5,1861.609,"Include",159
"JCD2012_e1b","JCD2012_e1b_11",0,"InvalidCue",5,1444.127,"Include",55
"JCD2012_e1b","JCD2012_e1b_11",1,"ValidCue",6,897.5181,"Include",160
"JCD2012_e1b","JCD2012_e1b_11",0,"ValidCue",2,1562.543,"Include",161
"JCD2012_e1b","JCD2012_e1b_11",0,"ValidCue",1,1377.033,"Include",162
"JCD2012_e1b","JCD2012_e1b_11",1,"ValidCue",5,1207.048,"Include",163
"JCD2012_e1b","JCD2012_e1b_11",1,"ValidCue",5,779.1307,"Include",164
"JCD2012_e1b","JCD2012_e1b_11",1,"ValidCue",5,897.6911,"Include",165
"JCD2012_e1b","JCD2012_e1b_11",0,"InvalidCue",5,918.1495,"Include",56
"JCD2012_e1b","JCD2012_e1b_11",0,"ValidCue",1,1160.527,"Include",166
"JCD2012_e1b","JCD2012_e1b_11",1,"InvalidCue",2,1186.116,"Include",57
"JCD2012_e1b","JCD2012_e1b_11",0,"ValidCue",2,985.1204,"Include",167
"JCD2012_e1b","JCD2012_e1b_11",0,"ValidCue",2,1072.806,"Include",168
"JCD2012_e1b","JCD2012_e1b_11",1,"ValidCue",5,1681.212,"Include",169
"JCD2012_e1b","JCD2012_e1b_11",1,"ValidCue",5,1242.901,"Include",170
"JCD2012_e1b","JCD2012_e1b_11",0,"ValidCue",4,1423.435,"Include",171
"JCD2012_e1b","JCD2012_e1b_11",1,"ValidCue",6,1665.689,"Include",172
"JCD2012_e1b","JCD2012_e1b_11",1,"ValidCue",6,758.319,"Include",173
"JCD2012_e1b","JCD2012_e1b_11",0,"ValidCue",1,1046.99,"Include",174
"JCD2012_e1b","JCD2012_e1b_11",0,"InvalidCue",1,1799.766,"Include",58
"JCD2012_e1b","JCD2012_e1b_11",1,"ValidCue",6,861.4028,"Include",175
"JCD2012_e1b","JCD2012_e1b_11",1,"ValidCue",6,639.7607,"Include",176
"JCD2012_e1b","JCD2012_e1b_11",0,"ValidCue",2,2072.849,"Include",177
"JCD2012_e1b","JCD2012_e1b_11",0,"ValidCue",2,1593.585,"Include",178
"JCD2012_e1b","JCD2012_e1b_11",0,"ValidCue",2,1005.756,"Include",179
"JCD2012_e1b","JCD2012_e1b_11",1,"InvalidCue",2,2067.893,"Include",59
"JCD2012_e1b","JCD2012_e1b_11",1,"ValidCue",6,1186.335,"Include",180
"JCD2012_e1b","JCD2012_e1b_11",0,"InvalidCue",5,2176.03,"Include",60
"JCD2012_e1b","JCD2012_e1b_11",0,"ValidCue",1,1552.428,"Include",181
"JCD2012_e1b","JCD2012_e1b_11",0,"ValidCue",2,1083.101,"Include",182
"JCD2012_e1b","JCD2012_e1b_11",1,"ValidCue",6,1289.386,"Include",183
"JCD2012_e1b","JCD2012_e1b_11",1,"ValidCue",6,722.3001,"Include",184
"JCD2012_e1b","JCD2012_e1b_11",0,"ValidCue",1,1237.868,"Include",185
"JCD2012_e1b","JCD2012_e1b_11",0,"ValidCue",1,938.7693,"Include",186
"JCD2012_e1b","JCD2012_e1b_11",0,"ValidCue",1,881.972,"Include",187
"JCD2012_e1b","JCD2012_e1b_11",1,"InvalidCue",5,1846.25,"Include",61
"JCD2012_e1b","JCD2012_e1b_11",0,"InvalidCue",5,1088.304,"Include",62
"JCD2012_e1b","JCD2012_e1b_11",0,"ValidCue",1,1871.883,"Include",188
"JCD2012_e1b","JCD2012_e1b_11",1,"ValidCue",6,696.6164,"Include",189
"JCD2012_e1b","JCD2012_e1b_11",0,"InvalidCue",5,1212.069,"Include",63
"JCD2012_e1b","JCD2012_e1b_11",1,"ValidCue",6,866.5758,"Include",190
"JCD2012_e1b","JCD2012_e1b_11",0,"ValidCue",1,1021.402,"Include",191
"JCD2012_e1b","JCD2012_e1b_11",1,"InvalidCue",2,1459.544,"Include",64
"JCD2012_e1b","JCD2012_e1b_11",0,"ValidCue",2,1237.811,"Include",192
"JCD2012_e1b","JCD2012_e1b_11",1,"ValidCue",5,990.3367,"Include",193
"JCD2012_e1b","JCD2012_e1b_11",0,"ValidCue",2,1155.316,"Include",194
"JCD2012_e1b","JCD2012_e1b_11",1,"ValidCue",6,1196.616,"Include",195
"JCD2012_e1b","JCD2012_e1b_11",0,"ValidCue",2,1366.721,"Include",196
"JCD2012_e1b","JCD2012_e1b_11",1,"InvalidCue",2,1990.425,"Include",65
"JCD2012_e1b","JCD2012_e1b_11",0,"InvalidCue",5,1072.832,"Include",66
"JCD2012_e1b","JCD2012_e1b_11",1,"ValidCue",6,799.5724,"Include",197
"JCD2012_e1b","JCD2012_e1b_11",0,"InvalidCue",6,892.3165,"Include",67
"JCD2012_e1b","JCD2012_e1b_11",0,"ValidCue",2,1320.315,"Include",198
"JCD2012_e1b","JCD2012_e1b_11",1,"ValidCue",6,969.7163,"Include",199
"JCD2012_e1b","JCD2012_e1b_11",0,"ValidCue",1,871.7569,"Include",200
"JCD2012_e1b","JCD2012_e1b_11",1,"ValidCue",6,938.8901,"Include",201
"JCD2012_e1b","JCD2012_e1b_11",0,"ValidCue",2,1191.405,"Include",202
"JCD2012_e1b","JCD2012_e1b_11",0,"ValidCue",6,758.3412,"Include",203
"JCD2012_e1b","JCD2012_e1b_11",0,"ValidCue",1,928.4701,"Include",204
"JCD2012_e1b","JCD2012_e1b_11",1,"ValidCue",6,1201.859,"Include",205
"JCD2012_e1b","JCD2012_e1b_11",1,"InvalidCue",6,1103.75,"Include",68
"JCD2012_e1b","JCD2012_e1b_11",0,"ValidCue",1,1495.724,"Include",206
"JCD2012_e1b","JCD2012_e1b_11",0,"ValidCue",1,1186.377,"Include",207
"JCD2012_e1b","JCD2012_e1b_11",1,"InvalidCue",6,1614.225,"Include",69
"JCD2012_e1b","JCD2012_e1b_11",1,"ValidCue",6,1077.954,"Include",208
"JCD2012_e1b","JCD2012_e1b_11",1,"ValidCue",6,696.3821,"Include",209
"JCD2012_e1b","JCD2012_e1b_11",0,"ValidCue",1,1660.561,"Include",210
"JCD2012_e1b","JCD2012_e1b_11",0,"InvalidCue",4,1779.171,"Include",70
"JCD2012_e1b","JCD2012_e1b_11",1,"ValidCue",5,1480.148,"Include",211
"JCD2012_e1b","JCD2012_e1b_11",1,"ValidCue",6,1160.662,"Include",212
"JCD2012_e1b","JCD2012_e1b_11",0,"ValidCue",1,1273.81,"Include",213
"JCD2012_e1b","JCD2012_e1b_11",0,"ValidCue",2,1933.771,"Include",214
"JCD2012_e1b","JCD2012_e1b_11",0,"InvalidCue",3,1624.497,"Include",71
"JCD2012_e1b","JCD2012_e1b_11",1,"ValidCue",6,902.857,"Include",215
"JCD2012_e1b","JCD2012_e1b_11",1,"InvalidCue",2,2006.282,"Include",72
"JCD2012_e1b","JCD2012_e1b_11",0,"InvalidCue",4,995.5808,"Include",73
"JCD2012_e1b","JCD2012_e1b_11",1,"ValidCue",4,1671.057,"Include",216
"JCD2012_e1b","JCD2012_e1b_11",1,"ValidCue",4,840.9786,"Include",217
"JCD2012_e1b","JCD2012_e1b_11",1,"ValidCue",6,758.2757,"Include",218
"JCD2012_e1b","JCD2012_e1b_11",0,"InvalidCue",6,1170.821,"Include",74
"JCD2012_e1b","JCD2012_e1b_11",1,"ValidCue",4,887.1229,"Include",219
"JCD2012_e1b","JCD2012_e1b_11",0,"ValidCue",2,1794.571,"Include",220
"JCD2012_e1b","JCD2012_e1b_11",1,"ValidCue",5,1902.859,"Include",221
"JCD2012_e1b","JCD2012_e1b_11",1,"InvalidCue",4,1990.646,"Include",75
"JCD2012_e1b","JCD2012_e1b_11",1,"ValidCue",5,1624.464,"Include",222
"JCD2012_e1b","JCD2012_e1b_11",0,"ValidCue",2,1026.66,"Include",223
"JCD2012_e1b","JCD2012_e1b_11",0,"InvalidCue",5,2067.933,"Include",76
"JCD2012_e1b","JCD2012_e1b_11",0,"ValidCue",1,1315.248,"Include",224
"JCD2012_e1b","JCD2012_e1b_11",0,"ValidCue",1,1129.513,"Include",225
"JCD2012_e1b","JCD2012_e1b_11",1,"ValidCue",6,1129.42,"Include",226
"JCD2012_e1b","JCD2012_e1b_11",0,"ValidCue",5,1825.429,"Include",227
"JCD2012_e1b","JCD2012_e1b_11",0,"InvalidCue",2,2047.181,"Include",77
"JCD2012_e1b","JCD2012_e1b_11",1,"ValidCue",6,1103.758,"Include",228
"JCD2012_e1b","JCD2012_e1b_11",1,"ValidCue",6,846.2765,"Include",229
"JCD2012_e1b","JCD2012_e1b_11",0,"ValidCue",1,1454.299,"Include",230
"JCD2012_e1b","JCD2012_e1b_11",1,"ValidCue",6,912.9905,"Include",231
"JCD2012_e1b","JCD2012_e1b_11",0,"InvalidCue",5,1201.684,"Include",78
"JCD2012_e1b","JCD2012_e1b_11",1,"InvalidCue",2,1325.68,"Include",79
"JCD2012_e1b","JCD2012_e1b_11",0,"ValidCue",2,1639.846,"Include",232
"JCD2012_e1b","JCD2012_e1b_11",1,"InvalidCue",4,1892.572,"Include",80
"JCD2012_e1b","JCD2012_e1b_11",1,"ValidCue",5,1505.913,"Include",233
"JCD2012_e1b","JCD2012_e1b_11",0,"ValidCue",2,1444.019,"Include",234
"JCD2012_e1b","JCD2012_e1b_11",0,"ValidCue",1,1196.521,"Include",235
"JCD2012_e1b","JCD2012_e1b_11",1,"ValidCue",6,1516.109,"Include",236
"JCD2012_e1b","JCD2012_e1b_11",1,"ValidCue",6,778.9791,"Include",237
"JCD2012_e1b","JCD2012_e1b_11",0,"ValidCue",1,1217.214,"Include",238
"JCD2012_e1b","JCD2012_e1b_11",0,"ValidCue",1,1557.751,"Include",239
"JCD2012_e1b","JCD2012_e1b_11",0,"ValidCue",1,980.0952,"Include",240
"JCD2012_e1b","JCD2012_e1b_11",1,"ValidCue",6,918.2009,"Include",241
"JCD2012_e1b","JCD2012_e1b_11",1,"ValidCue",6,1046.997,"Include",242
"JCD2012_e1b","JCD2012_e1b_11",0,"InvalidCue",6,1220,"Include",81
"JCD2012_e1b","JCD2012_e1b_11",0,"InvalidCue",5,1011.173,"Include",82
"JCD2012_e1b","JCD2012_e1b_11",1,"ValidCue",5,1217.253,"Include",243
"JCD2012_e1b","JCD2012_e1b_11",1,"InvalidCue",3,2681.551,"Include",83
"JCD2012_e1b","JCD2012_e1b_11",0,"ValidCue",1,2201.902,"Include",244
"JCD2012_e1b","JCD2012_e1b_11",1,"InvalidCue",5,1691.742,"Include",84
"JCD2012_e1b","JCD2012_e1b_11",1,"InvalidCue",2,2392.732,"Include",85
"JCD2012_e1b","JCD2012_e1b_11",0,"ValidCue",2,1289.355,"Include",245
"JCD2012_e1b","JCD2012_e1b_11",0,"ValidCue",1,1108.802,"Include",246
"JCD2012_e1b","JCD2012_e1b_11",0,"ValidCue",1,1624.495,"Include",247
"JCD2012_e1b","JCD2012_e1b_11",0,"InvalidCue",5,1248.373,"Include",86
"JCD2012_e1b","JCD2012_e1b_11",0,"ValidCue",2,1263.595,"Include",248
"JCD2012_e1b","JCD2012_e1b_11",1,"ValidCue",5,1098.562,"Include",249
"JCD2012_e1b","JCD2012_e1b_11",1,"ValidCue",6,949.1563,"Include",250
"JCD2012_e1b","JCD2012_e1b_11",1,"ValidCue",6,866.509,"Include",251
"JCD2012_e1b","JCD2012_e1b_11",0,"ValidCue",1,1165.545,"Include",252
"JCD2012_e1b","JCD2012_e1b_11",1,"ValidCue",6,1191.358,"Include",253
"JCD2012_e1b","JCD2012_e1b_11",1,"ValidCue",4,1330.921,"Include",254
"JCD2012_e1b","JCD2012_e1b_11",0,"ValidCue",4,1949.262,"Include",255
"JCD2012_e1b","JCD2012_e1b_11",1,"ValidCue",5,1433.627,"Include",256
"JCD2012_e1b","JCD2012_e1b_11",1,"ValidCue",6,1351.201,"Include",257
"JCD2012_e1b","JCD2012_e1b_11",0,"ValidCue",1,1254.027,"Include",258
"JCD2012_e1b","JCD2012_e1b_11",0,"ValidCue",1,845.889,"Include",259
"JCD2012_e1b","JCD2012_e1b_11",1,"ValidCue",5,1804.909,"Include",260
"JCD2012_e1b","JCD2012_e1b_11",1,"ValidCue",6,1000.64,"Include",261
"JCD2012_e1b","JCD2012_e1b_11",1,"ValidCue",6,1093.57,"Include",262
"JCD2012_e1b","JCD2012_e1b_11",1,"ValidCue",6,1103.674,"Include",263
"JCD2012_e1b","JCD2012_e1b_11",0,"InvalidCue",1,1253.15,"Include",87
"JCD2012_e1b","JCD2012_e1b_11",1,"InvalidCue",1,1206.959,"Include",88
"JCD2012_e1b","JCD2012_e1b_11",1,"InvalidCue",6,1150.132,"Include",89
"JCD2012_e1b","JCD2012_e1b_11",1,"InvalidCue",4,2490.694,"Include",90
"JCD2012_e1b","JCD2012_e1b_11",1,"ValidCue",5,1825.565,"Include",264
"JCD2012_e1b","JCD2012_e1b_11",1,"ValidCue",6,907.8304,"Include",265
"JCD2012_e1b","JCD2012_e1b_11",0,"ValidCue",2,2372.116,"Include",266
"JCD2012_e1b","JCD2012_e1b_11",0,"ValidCue",2,1186.291,"Include",267
"JCD2012_e1b","JCD2012_e1b_11",1,"ValidCue",5,1191.462,"Include",268
"JCD2012_e1b","JCD2012_e1b_11",0,"ValidCue",2,1181.221,"Include",269
"JCD2012_e1b","JCD2012_e1b_11",0,"ValidCue",2,1145.029,"Include",270
"JCD2012_e1b","JCD2012_e1b_11",1,"NoCue",5,2846.38,"Include",1
"JCD2012_e1b","JCD2012_e1b_11",0,"NoCue",1,1083.097,"Include",2
"JCD2012_e1b","JCD2012_e1b_11",0,"NoCue",2,1232.421,"Include",3
"JCD2012_e1b","JCD2012_e1b_11",0,"NoCue",2,1258.327,"Include",4
"JCD2012_e1b","JCD2012_e1b_11",1,"NoCue",6,995.3792,"Include",5
"JCD2012_e1b","JCD2012_e1b_11",1,"NoCue",6,887.1561,"Include",6
"JCD2012_e1b","JCD2012_e1b_11",1,"NoCue",6,799.4745,"Include",7
"JCD2012_e1b","JCD2012_e1b_11",1,"NoCue",5,1541.943,"Include",8
"JCD2012_e1b","JCD2012_e1b_11",1,"NoCue",6,851.0868,"Include",9
"JCD2012_e1b","JCD2012_e1b_11",0,"NoCue",1,1124.462,"Include",10
"JCD2012_e1b","JCD2012_e1b_11",1,"NoCue",6,887.2196,"Include",11
"JCD2012_e1b","JCD2012_e1b_11",1,"NoCue",6,980.1519,"Include",12
"JCD2012_e1b","JCD2012_e1b_11",1,"NoCue",6,784.0193,"Include",13
"JCD2012_e1b","JCD2012_e1b_11",1,"NoCue",6,1026.32,"Include",14
"JCD2012_e1b","JCD2012_e1b_11",1,"NoCue",6,918.0147,"Include",15
"JCD2012_e1b","JCD2012_e1b_11",1,"NoCue",6,758.2348,"Include",16
"JCD2012_e1b","JCD2012_e1b_11",1,"NoCue",6,716.9933,"Include",17
"JCD2012_e1b","JCD2012_e1b_11",1,"NoCue",6,882.0935,"Include",18
"JCD2012_e1b","JCD2012_e1b_11",0,"NoCue",1,980.1405,"Include",19
"JCD2012_e1b","JCD2012_e1b_11",1,"NoCue",6,768.5213,"Include",20
"JCD2012_e1b","JCD2012_e1b_11",0,"NoCue",1,727.3712,"Include",21
"JCD2012_e1b","JCD2012_e1b_11",1,"NoCue",4,1567.628,"Include",22
"JCD2012_e1b","JCD2012_e1b_11",1,"NoCue",6,1454.325,"Include",23
"JCD2012_e1b","JCD2012_e1b_11",0,"NoCue",1,1041.768,"Include",24
"JCD2012_e1b","JCD2012_e1b_11",1,"NoCue",6,907.7235,"Include",25
"JCD2012_e1b","JCD2012_e1b_11",1,"NoCue",4,1495.451,"Include",26
"JCD2012_e1b","JCD2012_e1b_11",1,"NoCue",3,1738.123,"Include",27
"JCD2012_e1b","JCD2012_e1b_11",0,"NoCue",2,1098.613,"Include",28
"JCD2012_e1b","JCD2012_e1b_11",1,"NoCue",2,1439.137,"Include",29
"JCD2012_e1b","JCD2012_e1b_11",0,"NoCue",2,1026.354,"Include",30
"JCD2012_e1b","JCD2012_e1b_11",1,"NoCue",5,1866.633,"Include",31
"JCD2012_e1b","JCD2012_e1b_11",1,"NoCue",6,809.8187,"Include",32
"JCD2012_e1b","JCD2012_e1b_11",1,"NoCue",6,1093.304,"Include",33
"JCD2012_e1b","JCD2012_e1b_11",1,"NoCue",6,933.4619,"Include",34
"JCD2012_e1b","JCD2012_e1b_11",1,"NoCue",6,861.4018,"Include",35
"JCD2012_e1b","JCD2012_e1b_11",1,"NoCue",6,670.6486,"Include",36
"JCD2012_e1b","JCD2012_e1b_11",1,"NoCue",6,727.3075,"Include",37
"JCD2012_e1b","JCD2012_e1b_11",1,"NoCue",3,1871.944,"Include",38
"JCD2012_e1b","JCD2012_e1b_11",0,"NoCue",5,1675.901,"Include",39
"JCD2012_e1b","JCD2012_e1b_11",0,"NoCue",2,1412.997,"Include",40
"JCD2012_e1b","JCD2012_e1b_11",1,"NoCue",4,1619.474,"Include",41
"JCD2012_e1b","JCD2012_e1b_11",0,"NoCue",2,3346.702,"Include",42
"JCD2012_e1b","JCD2012_e1b_11",1,"NoCue",2,2242.917,"Include",43
"JCD2012_e1b","JCD2012_e1b_11",1,"NoCue",6,979.9239,"Include",44
"JCD2012_e1b","JCD2012_e1b_11",0,"NoCue",3,2449.322,"Include",45
"JCD2012_e1b","JCD2012_e1b_11",0,"NoCue",2,1335.553,"Include",46
"JCD2012_e1b","JCD2012_e1b_11",1,"NoCue",6,763.3578,"Include",47
"JCD2012_e1b","JCD2012_e1b_11",0,"NoCue",4,2026.331,"Include",48
"JCD2012_e1b","JCD2012_e1b_11",0,"NoCue",1,1510.992,"Include",49
"JCD2012_e1b","JCD2012_e1b_11",0,"NoCue",1,820.1688,"Include",50
"JCD2012_e1b","JCD2012_e1b_11",1,"NoCue",6,897.4727,"Include",51
"JCD2012_e1b","JCD2012_e1b_11",0,"NoCue",2,1464.568,"Include",52
"JCD2012_e1b","JCD2012_e1b_11",0,"NoCue",1,1134.589,"Include",53
"JCD2012_e1b","JCD2012_e1b_11",0,"NoCue",2,1139.628,"Include",54
"JCD2012_e1b","JCD2012_e1b_11",1,"NoCue",6,1407.886,"Include",55
"JCD2012_e1b","JCD2012_e1b_11",0,"NoCue",2,1459.502,"Include",56
"JCD2012_e1b","JCD2012_e1b_11",0,"NoCue",1,1634.68,"Include",57
"JCD2012_e1b","JCD2012_e1b_11",0,"NoCue",1,1248.305,"Include",58
"JCD2012_e1b","JCD2012_e1b_11",1,"NoCue",5,1877.029,"Include",59
"JCD2012_e1b","JCD2012_e1b_11",0,"NoCue",1,1366.509,"Include",60
"JCD2012_e1b","JCD2012_e1b_11",0,"NoCue",2,1949.146,"Include",61
"JCD2012_e1b","JCD2012_e1b_11",0,"NoCue",2,902.6646,"Include",62
"JCD2012_e1b","JCD2012_e1b_11",0,"NoCue",5,1851.275,"Include",63
"JCD2012_e1b","JCD2012_e1b_11",0,"NoCue",5,1026.304,"Include",64
"JCD2012_e1b","JCD2012_e1b_11",0,"NoCue",5,1222.312,"Include",65
"JCD2012_e1b","JCD2012_e1b_11",0,"NoCue",2,1815.074,"Include",66
"JCD2012_e1b","JCD2012_e1b_11",0,"NoCue",2,1407.92,"Include",67
"JCD2012_e1b","JCD2012_e1b_11",0,"NoCue",2,975.0764,"Include",68
"JCD2012_e1b","JCD2012_e1b_11",1,"NoCue",5,1902.62,"Include",69
"JCD2012_e1b","JCD2012_e1b_11",1,"NoCue",6,1155.16,"Include",70
"JCD2012_e1b","JCD2012_e1b_11",0,"NoCue",1,1278.934,"Include",71
"JCD2012_e1b","JCD2012_e1b_11",0,"NoCue",6,1134.63,"Include",72
"JCD2012_e1b","JCD2012_e1b_11",1,"NoCue",4,2954.233,"Include",73
"JCD2012_e1b","JCD2012_e1b_11",1,"NoCue",4,1505.754,"Include",74
"JCD2012_e1b","JCD2012_e1b_11",0,"NoCue",3,2067.862,"Include",75
"JCD2012_e1b","JCD2012_e1b_11",0,"NoCue",1,1299.768,"Include",76
"JCD2012_e1b","JCD2012_e1b_11",0,"NoCue",2,1361.535,"Include",77
"JCD2012_e1b","JCD2012_e1b_11",0,"NoCue",1,1062.415,"Include",78
"JCD2012_e1b","JCD2012_e1b_11",1,"NoCue",6,1077.853,"Include",79
"JCD2012_e1b","JCD2012_e1b_11",1,"NoCue",6,1077.988,"Include",80
"JCD2012_e1b","JCD2012_e1b_11",1,"NoCue",4,2108.822,"Include",81
"JCD2012_e1b","JCD2012_e1b_11",0,"NoCue",1,1232.451,"Include",82
"JCD2012_e1b","JCD2012_e1b_11",1,"NoCue",1,1696.605,"Include",83
"JCD2012_e1b","JCD2012_e1b_11",0,"NoCue",2,2552.495,"Include",84
"JCD2012_e1b","JCD2012_e1b_11",0,"NoCue",2,1021.367,"Include",85
"JCD2012_e1b","JCD2012_e1b_11",0,"NoCue",2,2155.357,"Include",86
"JCD2012_e1b","JCD2012_e1b_11",0,"NoCue",5,2016.265,"Include",87
"JCD2012_e1b","JCD2012_e1b_11",0,"NoCue",2,1609.064,"Include",88
"JCD2012_e1b","JCD2012_e1b_11",1,"NoCue",3,1608.978,"Include",89
"JCD2012_e1b","JCD2012_e1b_11",0,"NoCue",2,1851.164,"Include",90
"JCD2012_e1b","JCD2012_e1b_11",1,"NoCue",5,1944.039,"Include",91
"JCD2012_e1b","JCD2012_e1b_11",1,"NoCue",2,1696.76,"Include",92
"JCD2012_e1b","JCD2012_e1b_11",0,"NoCue",2,1949.147,"Include",93
"JCD2012_e1b","JCD2012_e1b_11",1,"NoCue",6,1031.497,"Include",94
"JCD2012_e1b","JCD2012_e1b_11",0,"NoCue",2,1614.333,"Include",95
"JCD2012_e1b","JCD2012_e1b_11",0,"NoCue",5,1603.935,"Include",96
"JCD2012_e1b","JCD2012_e1b_11",1,"NoCue",5,1237.731,"Include",97
"JCD2012_e1b","JCD2012_e1b_11",0,"NoCue",2,1294.452,"Include",98
"JCD2012_e1b","JCD2012_e1b_11",1,"NoCue",6,1510.997,"Include",99
"JCD2012_e1b","JCD2012_e1b_11",0,"NoCue",1,1114.014,"Include",100
"JCD2012_e1b","JCD2012_e1b_11",0,"NoCue",3,1871.879,"Include",101
"JCD2012_e1b","JCD2012_e1b_11",0,"NoCue",3,1093.443,"Include",102
"JCD2012_e1b","JCD2012_e1b_11",1,"NoCue",5,1454.355,"Include",103
"JCD2012_e1b","JCD2012_e1b_11",1,"NoCue",2,1366.545,"Include",104
"JCD2012_e1b","JCD2012_e1b_11",0,"NoCue",4,2016.181,"Include",105
"JCD2012_e1b","JCD2012_e1b_11",0,"NoCue",2,2366.648,"Include",106
"JCD2012_e1b","JCD2012_e1b_11",1,"NoCue",6,990.2703,"Include",107
"JCD2012_e1b","JCD2012_e1b_11",1,"NoCue",5,1469.67,"Include",108
"JCD2012_e1b","JCD2012_e1b_11",1,"NoCue",5,876.8335,"Include",109
"JCD2012_e1b","JCD2012_e1b_11",0,"NoCue",2,1258.36,"Include",110
"JCD2012_e1b","JCD2012_e1b_11",0,"NoCue",6,1361.875,"Include",111
"JCD2012_e1b","JCD2012_e1b_11",1,"NoCue",6,1222.426,"Include",112
"JCD2012_e1b","JCD2012_e1b_11",0,"NoCue",5,2361.877,"Include",113
"JCD2012_e1b","JCD2012_e1b_11",1,"NoCue",5,2335.773,"Include",114
"JCD2012_e1b","JCD2012_e1b_11",0,"NoCue",1,1160.514,"Include",115
"JCD2012_e1b","JCD2012_e1b_11",0,"NoCue",5,1124.65,"Include",116
"JCD2012_e1b","JCD2012_e1b_11",1,"NoCue",1,1227.398,"Include",117
"JCD2012_e1b","JCD2012_e1b_11",0,"NoCue",1,1150.197,"Include",118
"JCD2012_e1b","JCD2012_e1b_11",1,"NoCue",2,2170.9,"Include",119
"JCD2012_e1b","JCD2012_e1b_11",1,"NoCue",1,1614.162,"Include",120
"JCD2012_e1b","JCD2012_e1b_12",0,"InvalidCue",3,7064.797,"Include",1
"JCD2012_e1b","JCD2012_e1b_12",0,"ValidCue",3,5775.368,"Include",1
"JCD2012_e1b","JCD2012_e1b_12",1,"ValidCue",6,3573.736,"Include",2
"JCD2012_e1b","JCD2012_e1b_12",0,"ValidCue",2,5100.013,"Include",3
"JCD2012_e1b","JCD2012_e1b_12",0,"ValidCue",4,5197.4,"Include",4
"JCD2012_e1b","JCD2012_e1b_12",1,"ValidCue",6,2377.285,"Include",5
"JCD2012_e1b","JCD2012_e1b_12",1,"ValidCue",6,2460.101,"Include",6
"JCD2012_e1b","JCD2012_e1b_12",1,"InvalidCue",3,7977.209,"Include",2
"JCD2012_e1b","JCD2012_e1b_12",1,"ValidCue",6,1748.413,"Include",7
"JCD2012_e1b","JCD2012_e1b_12",0,"InvalidCue",6,1011.045,"Include",3
"JCD2012_e1b","JCD2012_e1b_12",0,"ValidCue",5,2635.021,"Include",8
"JCD2012_e1b","JCD2012_e1b_12",0,"InvalidCue",6,1753.505,"Include",4
"JCD2012_e1b","JCD2012_e1b_12",0,"ValidCue",1,2687.76,"Include",9
"JCD2012_e1b","JCD2012_e1b_12",1,"ValidCue",5,4223.144,"Include",10
"JCD2012_e1b","JCD2012_e1b_12",0,"ValidCue",3,4048.647,"Include",11
"JCD2012_e1b","JCD2012_e1b_12",0,"ValidCue",1,2954.84,"Include",12
"JCD2012_e1b","JCD2012_e1b_12",1,"ValidCue",5,3248.533,"Include",13
"JCD2012_e1b","JCD2012_e1b_12",0,"ValidCue",2,2160.8,"Include",14
"JCD2012_e1b","JCD2012_e1b_12",0,"ValidCue",2,1593.696,"Include",15
"JCD2012_e1b","JCD2012_e1b_12",1,"ValidCue",6,2480.863,"Include",16
"JCD2012_e1b","JCD2012_e1b_12",1,"ValidCue",6,1367.184,"Include",17
"JCD2012_e1b","JCD2012_e1b_12",1,"ValidCue",6,634.6632,"Include",18
"JCD2012_e1b","JCD2012_e1b_12",0,"InvalidCue",2,3687.251,"Include",5
"JCD2012_e1b","JCD2012_e1b_12",0,"ValidCue",3,2279.579,"Include",19
"JCD2012_e1b","JCD2012_e1b_12",0,"InvalidCue",6,1361.675,"Include",6
"JCD2012_e1b","JCD2012_e1b_12",1,"ValidCue",4,2341.491,"Include",20
"JCD2012_e1b","JCD2012_e1b_12",0,"InvalidCue",2,1531.758,"Include",7
"JCD2012_e1b","JCD2012_e1b_12",0,"ValidCue",3,3362.123,"Include",21
"JCD2012_e1b","JCD2012_e1b_12",1,"ValidCue",5,1005.859,"Include",22
"JCD2012_e1b","JCD2012_e1b_12",1,"ValidCue",4,1367.11,"Include",23
"JCD2012_e1b","JCD2012_e1b_12",0,"ValidCue",3,1341.18,"Include",24
"JCD2012_e1b","JCD2012_e1b_12",1,"InvalidCue",4,2526.844,"Include",8
"JCD2012_e1b","JCD2012_e1b_12",0,"ValidCue",2,1289.901,"Include",25
"JCD2012_e1b","JCD2012_e1b_12",0,"ValidCue",2,1346.251,"Include",26
"JCD2012_e1b","JCD2012_e1b_12",0,"ValidCue",6,2063.091,"Include",27
"JCD2012_e1b","JCD2012_e1b_12",1,"ValidCue",6,1084.088,"Include",28
"JCD2012_e1b","JCD2012_e1b_12",0,"ValidCue",2,3037.298,"Include",29
"JCD2012_e1b","JCD2012_e1b_12",1,"ValidCue",6,1897.993,"Include",30
"JCD2012_e1b","JCD2012_e1b_12",0,"ValidCue",3,1841.245,"Include",31
