"exp","id","isold","condition1","rating","RT","excluding","trial"
"JCD2012_e1a","JCD2012_e1a_1",1,"NoCue",4,7718.067,"Include",1
"JCD2012_e1a","JCD2012_e1a_1",0,"NoCue",5,7855.334,"Include",2
"JCD2012_e1a","JCD2012_e1a_1",1,"NoCue",6,6679.974,"Include",3
"JCD2012_e1a","JCD2012_e1a_1",1,"NoCue",6,5184.08,"Include",4
"JCD2012_e1a","JCD2012_e1a_1",0,"NoCue",1,2491.187,"Include",5
"JCD2012_e1a","JCD2012_e1a_1",0,"NoCue",5,2011.511,"Include",6
"JCD2012_e1a","JCD2012_e1a_1",1,"NoCue",6,1222.354,"Include",7
"JCD2012_e1a","JCD2012_e1a_1",0,"NoCue",1,1454.311,"Include",8
"JCD2012_e1a","JCD2012_e1a_1",1,"NoCue",6,1062.44,"Include",9
"JCD2012_e1a","JCD2012_e1a_1",0,"NoCue",2,3636.476,"Include",10
"JCD2012_e1a","JCD2012_e1a_1",0,"NoCue",2,2156.243,"Include",11
"JCD2012_e1a","JCD2012_e1a_1",1,"NoCue",6,1036.69,"Include",12
"JCD2012_e1a","JCD2012_e1a_1",0,"NoCue",1,2063.096,"Include",13
"JCD2012_e1a","JCD2012_e1a_1",1,"NoCue",5,3548.713,"Include",14
"JCD2012_e1a","JCD2012_e1a_1",1,"NoCue",6,1026.384,"Include",15
"JCD2012_e1a","JCD2012_e1a_1",0,"NoCue",1,1557.859,"Include",16
"JCD2012_e1a","JCD2012_e1a_1",0,"NoCue",1,1655.847,"Include",17
"JCD2012_e1a","JCD2012_e1a_1",0,"NoCue",1,1284.444,"Include",18
"JCD2012_e1a","JCD2012_e1a_1",1,"NoCue",6,964.4928,"Include",19
"JCD2012_e1a","JCD2012_e1a_1",0,"NoCue",2,2615.143,"Include",20
"JCD2012_e1a","JCD2012_e1a_1",1,"NoCue",6,1181.245,"Include",21
"JCD2012_e1a","JCD2012_e1a_1",0,"NoCue",5,1361.568,"Include",22
"JCD2012_e1a","JCD2012_e1a_1",0,"NoCue",5,1150.091,"Include",23
"JCD2012_e1a","JCD2012_e1a_1",1,"NoCue",6,892.2048,"Include",24
"JCD2012_e1a","JCD2012_e1a_1",1,"NoCue",6,1072.758,"Include",25
"JCD2012_e1a","JCD2012_e1a_1",1,"NoCue",5,1155.316,"Include",26
"JCD2012_e1a","JCD2012_e1a_1",1,"NoCue",6,954.1399,"Include",27
"JCD2012_e1a","JCD2012_e1a_1",0,"NoCue",2,3703.657,"Include",28
"JCD2012_e1a","JCD2012_e1a_1",1,"NoCue",3,4441.411,"Include",29
"JCD2012_e1a","JCD2012_e1a_1",0,"NoCue",4,4384.436,"Include",30
"JCD2012_e1a","JCD2012_e1a_1",0,"NoCue",1,2171.504,"Include",31
"JCD2012_e1a","JCD2012_e1a_1",1,"NoCue",6,1170.814,"Include",32
"JCD2012_e1a","JCD2012_e1a_1",0,"NoCue",1,1506.17,"Include",33
"JCD2012_e1a","JCD2012_e1a_1",0,"NoCue",5,1382.371,"Include",34
"JCD2012_e1a","JCD2012_e1a_1",1,"NoCue",5,1098.622,"Include",35
"JCD2012_e1a","JCD2012_e1a_1",0,"NoCue",1,1119.166,"Include",36
"JCD2012_e1a","JCD2012_e1a_1",0,"NoCue",6,1583.491,"Include",37
"JCD2012_e1a","JCD2012_e1a_1",0,"NoCue",1,985.0381,"Include",38
"JCD2012_e1a","JCD2012_e1a_1",1,"NoCue",5,2274.718,"Include",39
"JCD2012_e1a","JCD2012_e1a_1",0,"NoCue",2,2439.622,"Include",40
"JCD2012_e1a","JCD2012_e1a_1",0,"NoCue",1,1604.035,"Include",41
"JCD2012_e1a","JCD2012_e1a_1",1,"NoCue",2,1892.968,"Include",42
"JCD2012_e1a","JCD2012_e1a_1",1,"NoCue",6,1960.037,"Include",43
"JCD2012_e1a","JCD2012_e1a_1",1,"NoCue",2,2192.173,"Include",44
"JCD2012_e1a","JCD2012_e1a_1",0,"NoCue",1,2104.43,"Include",45
"JCD2012_e1a","JCD2012_e1a_1",1,"NoCue",5,1155.249,"Include",46
"JCD2012_e1a","JCD2012_e1a_1",1,"NoCue",6,985.2635,"Include",47
"JCD2012_e1a","JCD2012_e1a_1",1,"NoCue",1,2414.411,"Include",48
"JCD2012_e1a","JCD2012_e1a_1",0,"NoCue",1,1144.989,"Include",49
"JCD2012_e1a","JCD2012_e1a_1",0,"NoCue",1,896.334,"Include",50
"JCD2012_e1a","JCD2012_e1a_1",0,"NoCue",2,1934.207,"Include",51
"JCD2012_e1a","JCD2012_e1a_1",1,"NoCue",6,1010.927,"Include",52
"JCD2012_e1a","JCD2012_e1a_1",1,"NoCue",6,1170.957,"Include",53
"JCD2012_e1a","JCD2012_e1a_1",0,"NoCue",2,3064.052,"Include",54
"JCD2012_e1a","JCD2012_e1a_1",1,"NoCue",6,1392.544,"Include",55
"JCD2012_e1a","JCD2012_e1a_1",0,"NoCue",2,2578.948,"Include",56
"JCD2012_e1a","JCD2012_e1a_1",1,"NoCue",6,892.2879,"Include",57
"JCD2012_e1a","JCD2012_e1a_1",0,"NoCue",1,1289.543,"Include",58
"JCD2012_e1a","JCD2012_e1a_1",0,"NoCue",1,1459.607,"Include",59
"JCD2012_e1a","JCD2012_e1a_1",0,"NoCue",1,3713.948,"Include",60
"JCD2012_e1a","JCD2012_e1a_1",0,"NoCue",2,1366.866,"Include",61
"JCD2012_e1a","JCD2012_e1a_1",1,"NoCue",6,871.6804,"Include",62
"JCD2012_e1a","JCD2012_e1a_1",1,"NoCue",5,1495.954,"Include",63
"JCD2012_e1a","JCD2012_e1a_1",0,"NoCue",2,1913.592,"Include",64
"JCD2012_e1a","JCD2012_e1a_1",0,"NoCue",1,1067.644,"Include",65
"JCD2012_e1a","JCD2012_e1a_1",0,"NoCue",2,3229.035,"Include",66
"JCD2012_e1a","JCD2012_e1a_1",0,"NoCue",1,1165.65,"Include",67
"JCD2012_e1a","JCD2012_e1a_1",0,"NoCue",2,1712.41,"Include",68
"JCD2012_e1a","JCD2012_e1a_1",0,"NoCue",5,2083.909,"Include",69
"JCD2012_e1a","JCD2012_e1a_1",1,"NoCue",5,1976.264,"Include",70
"JCD2012_e1a","JCD2012_e1a_1",0,"NoCue",2,2707.816,"Include",71
"JCD2012_e1a","JCD2012_e1a_1",1,"NoCue",6,1356.409,"Include",72
"JCD2012_e1a","JCD2012_e1a_1",1,"NoCue",2,2068.47,"Include",73
"JCD2012_e1a","JCD2012_e1a_1",1,"NoCue",6,1160.519,"Include",74
"JCD2012_e1a","JCD2012_e1a_1",1,"NoCue",5,2775.233,"Include",75
"JCD2012_e1a","JCD2012_e1a_1",1,"NoCue",1,1387.397,"Include",76
"JCD2012_e1a","JCD2012_e1a_1",0,"NoCue",1,1397.848,"Include",77
"JCD2012_e1a","JCD2012_e1a_1",1,"NoCue",5,2078.886,"Include",78
"JCD2012_e1a","JCD2012_e1a_1",0,"NoCue",2,1990.788,"Include",79
"JCD2012_e1a","JCD2012_e1a_1",1,"NoCue",6,1036.643,"Include",80
"JCD2012_e1a","JCD2012_e1a_1",0,"NoCue",6,2816.465,"Include",81
"JCD2012_e1a","JCD2012_e1a_1",1,"NoCue",5,1181.111,"Include",82
"JCD2012_e1a","JCD2012_e1a_1",0,"NoCue",3,5741.533,"Include",83
"JCD2012_e1a","JCD2012_e1a_1",0,"NoCue",2,2161.122,"Include",84
"JCD2012_e1a","JCD2012_e1a_1",1,"NoCue",5,1511.518,"Include",85
"JCD2012_e1a","JCD2012_e1a_1",1,"NoCue",5,1181.048,"Include",86
"JCD2012_e1a","JCD2012_e1a_1",1,"NoCue",6,1155.392,"Include",87
"JCD2012_e1a","JCD2012_e1a_1",0,"NoCue",1,1077.95,"Include",88
"JCD2012_e1a","JCD2012_e1a_1",1,"NoCue",6,943.8735,"Include",89
"JCD2012_e1a","JCD2012_e1a_1",0,"NoCue",1,1371.911,"Include",90
"JCD2012_e1a","JCD2012_e1a_1",0,"NoCue",1,1279.144,"Include",91
"JCD2012_e1a","JCD2012_e1a_1",0,"NoCue",1,1294.681,"Include",92
"JCD2012_e1a","JCD2012_e1a_1",0,"NoCue",1,1480.459,"Include",93
"JCD2012_e1a","JCD2012_e1a_1",1,"NoCue",6,1413.29,"Include",94
"JCD2012_e1a","JCD2012_e1a_1",0,"NoCue",5,1320.271,"Include",95
"JCD2012_e1a","JCD2012_e1a_1",1,"NoCue",6,1124.27,"Include",96
"JCD2012_e1a","JCD2012_e1a_1",0,"NoCue",1,1330.748,"Include",97
"JCD2012_e1a","JCD2012_e1a_1",1,"NoCue",5,1206.927,"Include",98
"JCD2012_e1a","JCD2012_e1a_1",1,"NoCue",6,2218.107,"Include",99
"JCD2012_e1a","JCD2012_e1a_1",0,"NoCue",1,1217.144,"Include",100
"JCD2012_e1a","JCD2012_e1a_1",1,"NoCue",1,1495.831,"Include",101
"JCD2012_e1a","JCD2012_e1a_1",1,"NoCue",5,1005.771,"Include",102
"JCD2012_e1a","JCD2012_e1a_1",1,"NoCue",5,1036.741,"Include",103
"JCD2012_e1a","JCD2012_e1a_1",1,"NoCue",4,4957.21,"Include",104
"JCD2012_e1a","JCD2012_e1a_1",0,"NoCue",6,979.8754,"Include",105
"JCD2012_e1a","JCD2012_e1a_1",0,"NoCue",6,1068.035,"Include",106
"JCD2012_e1a","JCD2012_e1a_1",1,"NoCue",5,2945.151,"Include",107
"JCD2012_e1a","JCD2012_e1a_1",0,"NoCue",5,1779.514,"Include",108
"JCD2012_e1a","JCD2012_e1a_1",0,"NoCue",2,2439.734,"Include",109
"JCD2012_e1a","JCD2012_e1a_1",1,"NoCue",6,850.9428,"Include",110
"JCD2012_e1a","JCD2012_e1a_1",1,"NoCue",6,1021.228,"Include",111
"JCD2012_e1a","JCD2012_e1a_1",1,"NoCue",5,2016.897,"Include",112
"JCD2012_e1a","JCD2012_e1a_1",0,"NoCue",3,2579.169,"Include",113
"JCD2012_e1a","JCD2012_e1a_1",1,"NoCue",6,933.4955,"Include",114
"JCD2012_e1a","JCD2012_e1a_1",1,"NoCue",6,1129.525,"Include",115
"JCD2012_e1a","JCD2012_e1a_1",1,"NoCue",5,1382.261,"Include",116
"JCD2012_e1a","JCD2012_e1a_1",0,"NoCue",1,1273.859,"Include",117
"JCD2012_e1a","JCD2012_e1a_1",1,"NoCue",2,3455.808,"Include",118
"JCD2012_e1a","JCD2012_e1a_1",1,"NoCue",2,3311.474,"Include",119
"JCD2012_e1a","JCD2012_e1a_1",0,"NoCue",1,1140.085,"Include",120
"JCD2012_e1a","JCD2012_e1a_1",0,"ValidCue",1,4575.472,"Include",1
"JCD2012_e1a","JCD2012_e1a_1",1,"ValidCue",6,3564.849,"Include",2
"JCD2012_e1a","JCD2012_e1a_1",0,"ValidCue",1,2847.253,"Include",3
"JCD2012_e1a","JCD2012_e1a_1",0,"ValidCue",1,2630.66,"Include",4
"JCD2012_e1a","JCD2012_e1a_1",1,"ValidCue",6,1805.331,"Include",5
"JCD2012_e1a","JCD2012_e1a_1",1,"ValidCue",6,1908.985,"Include",6
"JCD2012_e1a","JCD2012_e1a_1",1,"ValidCue",6,887.2106,"Include",7
"JCD2012_e1a","JCD2012_e1a_1",0,"ValidCue",1,1825.881,"Include",8
"JCD2012_e1a","JCD2012_e1a_1",1,"InvalidCue",6,1516.511,"Include",1
"JCD2012_e1a","JCD2012_e1a_1",1,"ValidCue",6,1660.859,"Include",9
"JCD2012_e1a","JCD2012_e1a_1",1,"ValidCue",6,1315.289,"Include",10
"JCD2012_e1a","JCD2012_e1a_1",1,"InvalidCue",1,1588.612,"Include",2
"JCD2012_e1a","JCD2012_e1a_1",1,"InvalidCue",6,6344.597,"Include",3
"JCD2012_e1a","JCD2012_e1a_1",0,"ValidCue",1,2419.155,"Include",11
"JCD2012_e1a","JCD2012_e1a_1",0,"ValidCue",1,1573.184,"Include",12
"JCD2012_e1a","JCD2012_e1a_1",1,"ValidCue",6,4627.189,"Include",13
"JCD2012_e1a","JCD2012_e1a_1",0,"ValidCue",1,1480.284,"Include",14
"JCD2012_e1a","JCD2012_e1a_1",1,"ValidCue",6,1764.237,"Include",15
"JCD2012_e1a","JCD2012_e1a_1",0,"ValidCue",1,1789.84,"Include",16
"JCD2012_e1a","JCD2012_e1a_1",1,"InvalidCue",6,1393.043,"Include",4
"JCD2012_e1a","JCD2012_e1a_1",1,"ValidCue",6,1320.375,"Include",17
"JCD2012_e1a","JCD2012_e1a_1",0,"ValidCue",1,2754.784,"Include",18
"JCD2012_e1a","JCD2012_e1a_1",0,"InvalidCue",6,2945.368,"Include",5
"JCD2012_e1a","JCD2012_e1a_1",0,"ValidCue",1,1748.624,"Include",19
"JCD2012_e1a","JCD2012_e1a_1",0,"ValidCue",1,2574.218,"Include",20
"JCD2012_e1a","JCD2012_e1a_1",0,"ValidCue",1,1408.225,"Include",21
"JCD2012_e1a","JCD2012_e1a_1",1,"ValidCue",6,2966.036,"Include",22
"JCD2012_e1a","JCD2012_e1a_1",1,"InvalidCue",6,3868.91,"Include",6
"JCD2012_e1a","JCD2012_e1a_1",0,"ValidCue",1,1196.786,"Include",23
"JCD2012_e1a","JCD2012_e1a_1",0,"InvalidCue",1,1805.326,"Include",7
"JCD2012_e1a","JCD2012_e1a_1",0,"InvalidCue",1,2769.964,"Include",8
"JCD2012_e1a","JCD2012_e1a_1",1,"ValidCue",6,1470.068,"Include",24
"JCD2012_e1a","JCD2012_e1a_1",0,"ValidCue",1,3456.141,"Include",25
"JCD2012_e1a","JCD2012_e1a_1",1,"InvalidCue",1,4714.567,"Include",9
"JCD2012_e1a","JCD2012_e1a_1",0,"ValidCue",1,1542.169,"Include",26
"JCD2012_e1a","JCD2012_e1a_1",0,"InvalidCue",2,6102.519,"Include",10
"JCD2012_e1a","JCD2012_e1a_1",1,"ValidCue",6,820.0864,"Include",27
"JCD2012_e1a","JCD2012_e1a_1",0,"ValidCue",1,1423.647,"Include",28
"JCD2012_e1a","JCD2012_e1a_1",1,"ValidCue",6,830.4591,"Include",29
"JCD2012_e1a","JCD2012_e1a_1",0,"InvalidCue",6,1826.129,"Include",11
"JCD2012_e1a","JCD2012_e1a_1",0,"ValidCue",2,2563.635,"Include",30
"JCD2012_e1a","JCD2012_e1a_1",1,"ValidCue",6,861.5685,"Include",31
"JCD2012_e1a","JCD2012_e1a_1",0,"ValidCue",2,2517.357,"Include",32
"JCD2012_e1a","JCD2012_e1a_1",1,"InvalidCue",6,3264.973,"Include",12
"JCD2012_e1a","JCD2012_e1a_1",1,"ValidCue",6,1304.897,"Include",33
"JCD2012_e1a","JCD2012_e1a_1",0,"ValidCue",1,1722.95,"Include",34
"JCD2012_e1a","JCD2012_e1a_1",1,"ValidCue",6,1108.945,"Include",35
"JCD2012_e1a","JCD2012_e1a_1",0,"ValidCue",2,1691.789,"Include",36
"JCD2012_e1a","JCD2012_e1a_1",0,"ValidCue",2,3755.196,"Include",37
"JCD2012_e1a","JCD2012_e1a_1",1,"ValidCue",6,980.0147,"Include",38
"JCD2012_e1a","JCD2012_e1a_1",0,"ValidCue",2,9408.897,"Include",39
"JCD2012_e1a","JCD2012_e1a_1",1,"ValidCue",6,2264.622,"Include",40
"JCD2012_e1a","JCD2012_e1a_1",1,"ValidCue",6,980.0822,"Include",41
"JCD2012_e1a","JCD2012_e1a_1",0,"ValidCue",2,3255.104,"Include",42
"JCD2012_e1a","JCD2012_e1a_1",1,"ValidCue",2,2341.828,"Include",43
"JCD2012_e1a","JCD2012_e1a_1",0,"ValidCue",2,2996.796,"Include",44
"JCD2012_e1a","JCD2012_e1a_1",1,"ValidCue",6,959.7177,"Include",45
"JCD2012_e1a","JCD2012_e1a_1",1,"ValidCue",1,10378.12,"Include",46
"JCD2012_e1a","JCD2012_e1a_1",1,"ValidCue",6,809.9903,"Include",47
"JCD2012_e1a","JCD2012_e1a_1",1,"ValidCue",6,794.2166,"Include",48
"JCD2012_e1a","JCD2012_e1a_1",1,"ValidCue",6,763.3145,"Include",49
"JCD2012_e1a","JCD2012_e1a_1",1,"InvalidCue",6,2099.475,"Include",13
"JCD2012_e1a","JCD2012_e1a_1",1,"ValidCue",6,22655.61,"Include",50
"JCD2012_e1a","JCD2012_e1a_1",0,"ValidCue",1,1707.532,"Include",51
"JCD2012_e1a","JCD2012_e1a_1",1,"ValidCue",6,835.5405,"Include",52
"JCD2012_e1a","JCD2012_e1a_1",0,"ValidCue",2,3538.63,"Include",53
"JCD2012_e1a","JCD2012_e1a_1",1,"ValidCue",6,1284.227,"Include",54
"JCD2012_e1a","JCD2012_e1a_1",1,"InvalidCue",2,2341.98,"Include",14
"JCD2012_e1a","JCD2012_e1a_1",1,"ValidCue",6,768.5559,"Include",55
"JCD2012_e1a","JCD2012_e1a_1",0,"ValidCue",1,2775.144,"Include",56
"JCD2012_e1a","JCD2012_e1a_1",1,"InvalidCue",6,1578.506,"Include",15
"JCD2012_e1a","JCD2012_e1a_1",0,"ValidCue",1,2326.259,"Include",57
"JCD2012_e1a","JCD2012_e1a_1",1,"ValidCue",6,1010.91,"Include",58
"JCD2012_e1a","JCD2012_e1a_1",1,"ValidCue",1,3120.618,"Include",59
"JCD2012_e1a","JCD2012_e1a_1",1,"ValidCue",6,4503.215,"Include",60
"JCD2012_e1a","JCD2012_e1a_1",1,"InvalidCue",6,1181.212,"Include",16
"JCD2012_e1a","JCD2012_e1a_1",0,"InvalidCue",6,4147.236,"Include",17
"JCD2012_e1a","JCD2012_e1a_1",0,"ValidCue",1,2202.543,"Include",61
"JCD2012_e1a","JCD2012_e1a_1",1,"ValidCue",6,1031.541,"Include",62
"JCD2012_e1a","JCD2012_e1a_1",0,"ValidCue",6,2481.169,"Include",63
"JCD2012_e1a","JCD2012_e1a_1",1,"ValidCue",6,5106.762,"Include",64
"JCD2012_e1a","JCD2012_e1a_1",0,"ValidCue",1,2197.436,"Include",65
"JCD2012_e1a","JCD2012_e1a_1",0,"ValidCue",1,1738.273,"Include",66
"JCD2012_e1a","JCD2012_e1a_1",0,"ValidCue",2,3373.667,"Include",67
"JCD2012_e1a","JCD2012_e1a_1",0,"ValidCue",5,16258.17,"Include",68
"JCD2012_e1a","JCD2012_e1a_1",0,"InvalidCue",4,2140.692,"Include",18
"JCD2012_e1a","JCD2012_e1a_1",0,"ValidCue",1,1671.127,"Include",69
"JCD2012_e1a","JCD2012_e1a_1",1,"ValidCue",6,1103.705,"Include",70
"JCD2012_e1a","JCD2012_e1a_1",1,"InvalidCue",6,1449.231,"Include",19
"JCD2012_e1a","JCD2012_e1a_1",0,"InvalidCue",6,902.6127,"Include",20
"JCD2012_e1a","JCD2012_e1a_1",0,"InvalidCue",1,949.2151,"Include",21
"JCD2012_e1a","JCD2012_e1a_1",1,"ValidCue",6,1150.152,"Include",71
"JCD2012_e1a","JCD2012_e1a_1",1,"ValidCue",6,917.9254,"Include",72
"JCD2012_e1a","JCD2012_e1a_1",1,"ValidCue",2,3538.731,"Include",73
"JCD2012_e1a","JCD2012_e1a_1",1,"ValidCue",6,856.185,"Include",74
"JCD2012_e1a","JCD2012_e1a_1",0,"InvalidCue",6,1047.058,"Include",22
"JCD2012_e1a","JCD2012_e1a_1",0,"ValidCue",6,2795.949,"Include",75
"JCD2012_e1a","JCD2012_e1a_1",0,"InvalidCue",2,3703.586,"Include",23
"JCD2012_e1a","JCD2012_e1a_1",1,"InvalidCue",6,882.0178,"Include",24
"JCD2012_e1a","JCD2012_e1a_1",0,"ValidCue",1,8501.214,"Include",76
"JCD2012_e1a","JCD2012_e1a_1",0,"InvalidCue",1,1681.326,"Include",25
"JCD2012_e1a","JCD2012_e1a_1",0,"ValidCue",2,1655.654,"Include",77
"JCD2012_e1a","JCD2012_e1a_1",1,"ValidCue",6,1547.573,"Include",78
"JCD2012_e1a","JCD2012_e1a_1",1,"InvalidCue",2,1712.471,"Include",26
"JCD2012_e1a","JCD2012_e1a_1",1,"ValidCue",6,8774.733,"Include",79
"JCD2012_e1a","JCD2012_e1a_1",1,"ValidCue",6,639.4786,"Include",80
"JCD2012_e1a","JCD2012_e1a_1",0,"InvalidCue",5,1423.606,"Include",27
"JCD2012_e1a","JCD2012_e1a_1",0,"ValidCue",5,1181.191,"Include",81
"JCD2012_e1a","JCD2012_e1a_1",1,"ValidCue",6,11539.31,"Include",82
"JCD2012_e1a","JCD2012_e1a_1",0,"ValidCue",1,1413.58,"Include",83
"JCD2012_e1a","JCD2012_e1a_1",0,"InvalidCue",1,1433.988,"Include",28
"JCD2012_e1a","JCD2012_e1a_1",1,"ValidCue",2,1784.781,"Include",84
"JCD2012_e1a","JCD2012_e1a_1",0,"InvalidCue",2,1036.632,"Include",29
"JCD2012_e1a","JCD2012_e1a_1",0,"ValidCue",6,3543.52,"Include",85
"JCD2012_e1a","JCD2012_e1a_1",0,"ValidCue",1,1237.861,"Include",86
"JCD2012_e1a","JCD2012_e1a_1",1,"ValidCue",5,1888.219,"Include",87
"JCD2012_e1a","JCD2012_e1a_1",0,"ValidCue",1,1284.23,"Include",88
"JCD2012_e1a","JCD2012_e1a_1",1,"InvalidCue",6,1315.287,"Include",30
"JCD2012_e1a","JCD2012_e1a_1",0,"ValidCue",6,1155.259,"Include",89
"JCD2012_e1a","JCD2012_e1a_1",0,"ValidCue",1,1201.723,"Include",90
"JCD2012_e1a","JCD2012_e1a_1",1,"ValidCue",6,2387.877,"Include",91
"JCD2012_e1a","JCD2012_e1a_1",1,"ValidCue",6,1371.665,"Include",92
"JCD2012_e1a","JCD2012_e1a_1",1,"ValidCue",5,1232.384,"Include",93
"JCD2012_e1a","JCD2012_e1a_1",1,"ValidCue",5,1036.381,"Include",94
"JCD2012_e1a","JCD2012_e1a_1",0,"InvalidCue",3,4080.434,"Include",31
"JCD2012_e1a","JCD2012_e1a_1",0,"ValidCue",1,1923.737,"Include",95
"JCD2012_e1a","JCD2012_e1a_1",0,"ValidCue",5,2893.555,"Include",96
"JCD2012_e1a","JCD2012_e1a_1",1,"ValidCue",5,1459.355,"Include",97
"JCD2012_e1a","JCD2012_e1a_1",1,"ValidCue",6,1108.775,"Include",98
"JCD2012_e1a","JCD2012_e1a_1",1,"ValidCue",2,5039.607,"Include",99
"JCD2012_e1a","JCD2012_e1a_1",1,"InvalidCue",6,2011.299,"Include",32
"JCD2012_e1a","JCD2012_e1a_1",1,"InvalidCue",6,933.3156,"Include",33
"JCD2012_e1a","JCD2012_e1a_1",1,"ValidCue",6,1944.5,"Include",100
"JCD2012_e1a","JCD2012_e1a_1",0,"ValidCue",1,2228.066,"Include",101
"JCD2012_e1a","JCD2012_e1a_1",1,"ValidCue",6,959.0114,"Include",102
"JCD2012_e1a","JCD2012_e1a_1",1,"ValidCue",6,773.2766,"Include",103
"JCD2012_e1a","JCD2012_e1a_1",0,"ValidCue",6,917.9203,"Include",104
"JCD2012_e1a","JCD2012_e1a_1",0,"ValidCue",1,1103.452,"Include",105
"JCD2012_e1a","JCD2012_e1a_1",1,"InvalidCue",6,1026.183,"Include",34
"JCD2012_e1a","JCD2012_e1a_1",0,"ValidCue",6,1950.546,"Include",106
"JCD2012_e1a","JCD2012_e1a_1",0,"ValidCue",1,2068.218,"Include",107
"JCD2012_e1a","JCD2012_e1a_1",0,"ValidCue",6,2269.112,"Include",108
"JCD2012_e1a","JCD2012_e1a_1",1,"InvalidCue",2,2284.712,"Include",35
"JCD2012_e1a","JCD2012_e1a_1",1,"InvalidCue",5,1696.73,"Include",36
"JCD2012_e1a","JCD2012_e1a_1",1,"ValidCue",5,1118.992,"Include",109
"JCD2012_e1a","JCD2012_e1a_1",1,"ValidCue",5,953.8892,"Include",110
"JCD2012_e1a","JCD2012_e1a_1",0,"ValidCue",2,1603.902,"Include",111
"JCD2012_e1a","JCD2012_e1a_1",1,"ValidCue",6,1129.311,"Include",112
"JCD2012_e1a","JCD2012_e1a_1",1,"InvalidCue",2,2047.539,"Include",37
"JCD2012_e1a","JCD2012_e1a_1",1,"InvalidCue",1,1186.145,"Include",38
"JCD2012_e1a","JCD2012_e1a_1",0,"ValidCue",1,943.6237,"Include",113
"JCD2012_e1a","JCD2012_e1a_1",1,"ValidCue",5,1598.652,"Include",114
"JCD2012_e1a","JCD2012_e1a_1",1,"ValidCue",6,876.4208,"Include",115
"JCD2012_e1a","JCD2012_e1a_1",0,"ValidCue",5,1949.793,"Include",116
"JCD2012_e1a","JCD2012_e1a_1",0,"ValidCue",1,995.1621,"Include",117
"JCD2012_e1a","JCD2012_e1a_1",0,"ValidCue",1,1036.384,"Include",118
"JCD2012_e1a","JCD2012_e1a_1",0,"InvalidCue",5,1258.258,"Include",39
"JCD2012_e1a","JCD2012_e1a_1",0,"ValidCue",2,2898.677,"Include",119
"JCD2012_e1a","JCD2012_e1a_1",1,"ValidCue",6,840.3919,"Include",120
"JCD2012_e1a","JCD2012_e1a_1",0,"InvalidCue",6,1098.299,"Include",40
"JCD2012_e1a","JCD2012_e1a_1",0,"InvalidCue",2,2238.309,"Include",41
"JCD2012_e1a","JCD2012_e1a_1",1,"ValidCue",2,2248.658,"Include",121
"JCD2012_e1a","JCD2012_e1a_1",0,"ValidCue",6,1299.745,"Include",122
"JCD2012_e1a","JCD2012_e1a_1",1,"InvalidCue",6,1381.941,"Include",42
"JCD2012_e1a","JCD2012_e1a_1",1,"ValidCue",6,1222.085,"Include",123
"JCD2012_e1a","JCD2012_e1a_1",0,"ValidCue",1,1258.179,"Include",124
"JCD2012_e1a","JCD2012_e1a_1",1,"ValidCue",6,2243.544,"Include",125
"JCD2012_e1a","JCD2012_e1a_1",0,"InvalidCue",5,1686.383,"Include",43
"JCD2012_e1a","JCD2012_e1a_1",1,"InvalidCue",6,1923.733,"Include",44
"JCD2012_e1a","JCD2012_e1a_1",0,"InvalidCue",1,1985.376,"Include",45
"JCD2012_e1a","JCD2012_e1a_1",0,"ValidCue",2,4343.023,"Include",126
"JCD2012_e1a","JCD2012_e1a_1",0,"InvalidCue",6,4771.296,"Include",46
"JCD2012_e1a","JCD2012_e1a_1",0,"ValidCue",1,1057.029,"Include",127
"JCD2012_e1a","JCD2012_e1a_1",0,"ValidCue",1,773.3755,"Include",128
"JCD2012_e1a","JCD2012_e1a_1",0,"ValidCue",6,3589.941,"Include",129
"JCD2012_e1a","JCD2012_e1a_1",0,"ValidCue",1,1000.633,"Include",130
"JCD2012_e1a","JCD2012_e1a_1",1,"ValidCue",6,1345.962,"Include",131
"JCD2012_e1a","JCD2012_e1a_1",1,"ValidCue",1,1160.235,"Include",132
"JCD2012_e1a","JCD2012_e1a_1",1,"ValidCue",6,726.9073,"Include",133
"JCD2012_e1a","JCD2012_e1a_1",1,"ValidCue",1,1356.117,"Include",134
"JCD2012_e1a","JCD2012_e1a_1",1,"InvalidCue",5,1634.768,"Include",47
"JCD2012_e1a","JCD2012_e1a_1",1,"ValidCue",5,1892.782,"Include",135
"JCD2012_e1a","JCD2012_e1a_1",1,"ValidCue",6,1165.352,"Include",136
"JCD2012_e1a","JCD2012_e1a_1",0,"InvalidCue",2,1299.42,"Include",48
"JCD2012_e1a","JCD2012_e1a_1",0,"ValidCue",2,1934.132,"Include",137
"JCD2012_e1a","JCD2012_e1a_1",1,"ValidCue",5,1335.55,"Include",138
"JCD2012_e1a","JCD2012_e1a_1",1,"ValidCue",6,928.0269,"Include",139
"JCD2012_e1a","JCD2012_e1a_1",1,"ValidCue",6,1067.35,"Include",140
"JCD2012_e1a","JCD2012_e1a_1",0,"InvalidCue",1,1175.841,"Include",49
"JCD2012_e1a","JCD2012_e1a_1",1,"ValidCue",5,835.3691,"Include",141
"JCD2012_e1a","JCD2012_e1a_1",0,"ValidCue",1,855.9163,"Include",142
"JCD2012_e1a","JCD2012_e1a_1",1,"ValidCue",5,4141.581,"Include",143
"JCD2012_e1a","JCD2012_e1a_1",0,"InvalidCue",2,1954.518,"Include",50
"JCD2012_e1a","JCD2012_e1a_1",1,"ValidCue",6,871.3572,"Include",144
"JCD2012_e1a","JCD2012_e1a_1",1,"ValidCue",6,891.9398,"Include",145
"JCD2012_e1a","JCD2012_e1a_1",0,"ValidCue",1,2640.864,"Include",146
"JCD2012_e1a","JCD2012_e1a_1",1,"ValidCue",1,1118.976,"Include",147
"JCD2012_e1a","JCD2012_e1a_1",0,"ValidCue",2,3110.122,"Include",148
"JCD2012_e1a","JCD2012_e1a_1",0,"ValidCue",2,3919.671,"Include",149
"JCD2012_e1a","JCD2012_e1a_1",0,"ValidCue",2,2661.402,"Include",150
"JCD2012_e1a","JCD2012_e1a_1",0,"ValidCue",2,1361.992,"Include",151
"JCD2012_e1a","JCD2012_e1a_1",1,"ValidCue",5,1227.253,"Include",152
"JCD2012_e1a","JCD2012_e1a_1",0,"ValidCue",0,2599.252,"Exclude",153
"JCD2012_e1a","JCD2012_e1a_1",0,"ValidCue",6,788.7768,"Include",154
"JCD2012_e1a","JCD2012_e1a_1",1,"ValidCue",6,2233.173,"Include",155
"JCD2012_e1a","JCD2012_e1a_1",0,"ValidCue",1,1980.472,"Include",156
"JCD2012_e1a","JCD2012_e1a_1",0,"ValidCue",5,1944.376,"Include",157
"JCD2012_e1a","JCD2012_e1a_1",0,"ValidCue",2,2228.094,"Include",158
"JCD2012_e1a","JCD2012_e1a_1",1,"ValidCue",6,1046.743,"Include",159
"JCD2012_e1a","JCD2012_e1a_1",0,"ValidCue",2,1490.323,"Include",160
"JCD2012_e1a","JCD2012_e1a_1",0,"InvalidCue",2,1737.944,"Include",51
"JCD2012_e1a","JCD2012_e1a_1",0,"ValidCue",2,2264.01,"Include",161
"JCD2012_e1a","JCD2012_e1a_1",1,"ValidCue",6,3584.838,"Include",162
"JCD2012_e1a","JCD2012_e1a_1",1,"ValidCue",6,675.2562,"Include",163
"JCD2012_e1a","JCD2012_e1a_1",0,"ValidCue",1,2738.831,"Include",164
"JCD2012_e1a","JCD2012_e1a_1",0,"InvalidCue",3,5379.958,"Include",52
"JCD2012_e1a","JCD2012_e1a_1",1,"InvalidCue",2,2841.734,"Include",53
"JCD2012_e1a","JCD2012_e1a_1",0,"ValidCue",5,5488.103,"Include",165
"JCD2012_e1a","JCD2012_e1a_1",0,"ValidCue",1,2372.522,"Include",166
"JCD2012_e1a","JCD2012_e1a_1",1,"InvalidCue",5,1046.773,"Include",54
"JCD2012_e1a","JCD2012_e1a_1",1,"ValidCue",6,819.7108,"Include",167
"JCD2012_e1a","JCD2012_e1a_1",1,"InvalidCue",2,1660.618,"Include",55
"JCD2012_e1a","JCD2012_e1a_1",1,"ValidCue",5,1124.201,"Include",168
"JCD2012_e1a","JCD2012_e1a_1",1,"ValidCue",5,804.36,"Include",169
"JCD2012_e1a","JCD2012_e1a_1",0,"InvalidCue",3,2821.302,"Include",56
"JCD2012_e1a","JCD2012_e1a_1",0,"ValidCue",5,1665.922,"Include",170
"JCD2012_e1a","JCD2012_e1a_1",0,"ValidCue",1,2429.087,"Include",171
"JCD2012_e1a","JCD2012_e1a_1",0,"ValidCue",2,1459.365,"Include",172
"JCD2012_e1a","JCD2012_e1a_1",0,"ValidCue",2,1232.399,"Include",173
"JCD2012_e1a","JCD2012_e1a_1",1,"InvalidCue",1,1629.786,"Include",57
"JCD2012_e1a","JCD2012_e1a_1",1,"ValidCue",6,928.1425,"Include",174
"JCD2012_e1a","JCD2012_e1a_1",1,"InvalidCue",2,1505.924,"Include",58
"JCD2012_e1a","JCD2012_e1a_1",0,"ValidCue",1,1118.855,"Include",175
"JCD2012_e1a","JCD2012_e1a_1",1,"ValidCue",6,871.5071,"Include",176
"JCD2012_e1a","JCD2012_e1a_1",1,"ValidCue",2,2919.273,"Include",177
"JCD2012_e1a","JCD2012_e1a_1",1,"ValidCue",6,2047.363,"Include",178
"JCD2012_e1a","JCD2012_e1a_1",0,"ValidCue",2,1490.455,"Include",179
"JCD2012_e1a","JCD2012_e1a_1",0,"InvalidCue",5,2620.131,"Include",59
"JCD2012_e1a","JCD2012_e1a_1",0,"ValidCue",2,1665.826,"Include",180
"JCD2012_e1a","JCD2012_e1a_1",0,"InvalidCue",2,1577.967,"Include",60
"JCD2012_e1a","JCD2012_e1a_1",0,"ValidCue",1,2434.724,"Include",181
"JCD2012_e1a","JCD2012_e1a_1",1,"ValidCue",6,892.3685,"Include",182
"JCD2012_e1a","JCD2012_e1a_1",0,"ValidCue",1,959.4145,"Include",183
"JCD2012_e1a","JCD2012_e1a_1",0,"ValidCue",1,598.3298,"Include",184
"JCD2012_e1a","JCD2012_e1a_1",1,"InvalidCue",1,1253.355,"Include",61
"JCD2012_e1a","JCD2012_e1a_1",0,"ValidCue",1,923.3493,"Include",185
"JCD2012_e1a","JCD2012_e1a_1",0,"InvalidCue",1,814.9207,"Include",62
"JCD2012_e1a","JCD2012_e1a_1",1,"ValidCue",6,819.9857,"Include",186
"JCD2012_e1a","JCD2012_e1a_1",0,"ValidCue",1,2579.154,"Include",187
"JCD2012_e1a","JCD2012_e1a_1",0,"ValidCue",1,1170.743,"Include",188
"JCD2012_e1a","JCD2012_e1a_1",0,"ValidCue",1,1841.236,"Include",189
"JCD2012_e1a","JCD2012_e1a_1",0,"InvalidCue",1,1005.743,"Include",63
"JCD2012_e1a","JCD2012_e1a_1",1,"ValidCue",6,1289.521,"Include",190
"JCD2012_e1a","JCD2012_e1a_1",1,"ValidCue",6,804.5644,"Include",191
"JCD2012_e1a","JCD2012_e1a_1",0,"ValidCue",1,809.7512,"Include",192
"JCD2012_e1a","JCD2012_e1a_1",0,"InvalidCue",1,1057.342,"Include",64
"JCD2012_e1a","JCD2012_e1a_1",0,"ValidCue",1,897.4534,"Include",193
"JCD2012_e1a","JCD2012_e1a_1",1,"ValidCue",6,1170.816,"Include",194
"JCD2012_e1a","JCD2012_e1a_1",0,"ValidCue",1,954.2326,"Include",195
"JCD2012_e1a","JCD2012_e1a_1",1,"InvalidCue",6,675.5778,"Include",65
"JCD2012_e1a","JCD2012_e1a_1",1,"InvalidCue",6,2248.976,"Include",66
"JCD2012_e1a","JCD2012_e1a_1",1,"ValidCue",2,3295.902,"Include",196
"JCD2012_e1a","JCD2012_e1a_1",1,"InvalidCue",6,825.286,"Include",67
"JCD2012_e1a","JCD2012_e1a_1",1,"ValidCue",6,680.7816,"Include",197
"JCD2012_e1a","JCD2012_e1a_1",1,"InvalidCue",6,845.8097,"Include",68
"JCD2012_e1a","JCD2012_e1a_1",1,"ValidCue",6,598.5097,"Include",198
"JCD2012_e1a","JCD2012_e1a_1",1,"ValidCue",6,691.3182,"Include",199
"JCD2012_e1a","JCD2012_e1a_1",0,"ValidCue",1,773.626,"Include",200
"JCD2012_e1a","JCD2012_e1a_1",0,"ValidCue",1,1253.282,"Include",201
"JCD2012_e1a","JCD2012_e1a_1",0,"ValidCue",1,794.1774,"Include",202
"JCD2012_e1a","JCD2012_e1a_1",1,"InvalidCue",6,1206.934,"Include",69
"JCD2012_e1a","JCD2012_e1a_1",1,"ValidCue",6,1583.447,"Include",203
"JCD2012_e1a","JCD2012_e1a_1",1,"ValidCue",6,691.209,"Include",204
"JCD2012_e1a","JCD2012_e1a_1",1,"ValidCue",6,753.0309,"Include",205
"JCD2012_e1a","JCD2012_e1a_1",0,"InvalidCue",6,1495.736,"Include",70
"JCD2012_e1a","JCD2012_e1a_1",1,"ValidCue",5,3610.471,"Include",206
"JCD2012_e1a","JCD2012_e1a_1",1,"ValidCue",5,1052.12,"Include",207
"JCD2012_e1a","JCD2012_e1a_1",1,"InvalidCue",6,985.1404,"Include",71
"JCD2012_e1a","JCD2012_e1a_1",0,"InvalidCue",2,2769.796,"Include",72
"JCD2012_e1a","JCD2012_e1a_1",1,"InvalidCue",6,815.1331,"Include",73
"JCD2012_e1a","JCD2012_e1a_1",1,"ValidCue",6,902.6556,"Include",208
"JCD2012_e1a","JCD2012_e1a_1",1,"ValidCue",1,3105.351,"Include",209
"JCD2012_e1a","JCD2012_e1a_1",1,"ValidCue",1,933.638,"Include",210
"JCD2012_e1a","JCD2012_e1a_1",0,"ValidCue",1,1196.614,"Include",211
"JCD2012_e1a","JCD2012_e1a_1",1,"InvalidCue",6,979.9857,"Include",74
"JCD2012_e1a","JCD2012_e1a_1",1,"ValidCue",6,1232.656,"Include",212
"JCD2012_e1a","JCD2012_e1a_1",0,"ValidCue",1,789.1068,"Include",213
"JCD2012_e1a","JCD2012_e1a_1",0,"ValidCue",1,1629.998,"Include",214
"JCD2012_e1a","JCD2012_e1a_1",1,"ValidCue",6,866.4631,"Include",215
"JCD2012_e1a","JCD2012_e1a_1",1,"ValidCue",6,670.4613,"Include",216
"JCD2012_e1a","JCD2012_e1a_1",0,"ValidCue",1,2506.874,"Include",217
"JCD2012_e1a","JCD2012_e1a_1",0,"ValidCue",1,1006.459,"Include",218
"JCD2012_e1a","JCD2012_e1a_1",0,"ValidCue",1,845.9383,"Include",219
"JCD2012_e1a","JCD2012_e1a_1",1,"ValidCue",6,618.8869,"Include",220
"JCD2012_e1a","JCD2012_e1a_1",0,"InvalidCue",6,876.8511,"Include",75
"JCD2012_e1a","JCD2012_e1a_1",1,"ValidCue",6,1325.603,"Include",221
"JCD2012_e1a","JCD2012_e1a_1",1,"ValidCue",2,3574.658,"Include",222
"JCD2012_e1a","JCD2012_e1a_1",0,"InvalidCue",1,1330.691,"Include",76
"JCD2012_e1a","JCD2012_e1a_1",0,"ValidCue",1,1186.236,"Include",223
"JCD2012_e1a","JCD2012_e1a_1",0,"ValidCue",1,721.9461,"Include",224
"JCD2012_e1a","JCD2012_e1a_1",0,"ValidCue",1,804.517,"Include",225
"JCD2012_e1a","JCD2012_e1a_1",0,"InvalidCue",5,1991.237,"Include",77
"JCD2012_e1a","JCD2012_e1a_1",0,"InvalidCue",2,1887.858,"Include",78
"JCD2012_e1a","JCD2012_e1a_1",0,"ValidCue",1,2300.739,"Include",226
"JCD2012_e1a","JCD2012_e1a_1",0,"ValidCue",1,1021.29,"Include",227
"JCD2012_e1a","JCD2012_e1a_1",1,"ValidCue",1,1170.802,"Include",228
"JCD2012_e1a","JCD2012_e1a_1",0,"ValidCue",1,1454.503,"Include",229
"JCD2012_e1a","JCD2012_e1a_1",0,"ValidCue",1,907.6748,"Include",230
"JCD2012_e1a","JCD2012_e1a_1",1,"ValidCue",6,598.316,"Include",231
"JCD2012_e1a","JCD2012_e1a_1",1,"ValidCue",6,1588.694,"Include",232
"JCD2012_e1a","JCD2012_e1a_1",1,"ValidCue",1,948.9401,"Include",233
"JCD2012_e1a","JCD2012_e1a_1",0,"ValidCue",1,1588.787,"Include",234
"JCD2012_e1a","JCD2012_e1a_1",0,"InvalidCue",1,1330.665,"Include",79
"JCD2012_e1a","JCD2012_e1a_1",1,"InvalidCue",1,1511.353,"Include",80
"JCD2012_e1a","JCD2012_e1a_1",0,"ValidCue",1,1026.362,"Include",235
"JCD2012_e1a","JCD2012_e1a_1",0,"ValidCue",1,696.257,"Include",236
"JCD2012_e1a","JCD2012_e1a_1",0,"ValidCue",1,809.7572,"Include",237
"JCD2012_e1a","JCD2012_e1a_1",1,"ValidCue",2,1810.619,"Include",238
"JCD2012_e1a","JCD2012_e1a_1",1,"ValidCue",6,1666.07,"Include",239
"JCD2012_e1a","JCD2012_e1a_1",0,"ValidCue",2,3579.787,"Include",240
"JCD2012_e1a","JCD2012_e1a_1",0,"ValidCue",2,1779.436,"Include",241
"JCD2012_e1a","JCD2012_e1a_1",0,"ValidCue",1,1382.381,"Include",242
"JCD2012_e1a","JCD2012_e1a_1",1,"ValidCue",6,820.0923,"Include",243
"JCD2012_e1a","JCD2012_e1a_1",1,"InvalidCue",6,1299.731,"Include",81
"JCD2012_e1a","JCD2012_e1a_1",0,"ValidCue",2,4054.252,"Include",244
"JCD2012_e1a","JCD2012_e1a_1",1,"ValidCue",2,1341.209,"Include",245
"JCD2012_e1a","JCD2012_e1a_1",0,"ValidCue",2,1139.876,"Include",246
"JCD2012_e1a","JCD2012_e1a_1",1,"ValidCue",6,5834.161,"Include",247
"JCD2012_e1a","JCD2012_e1a_1",1,"InvalidCue",6,701.4117,"Include",82
"JCD2012_e1a","JCD2012_e1a_1",0,"ValidCue",2,3027.92,"Include",248
"JCD2012_e1a","JCD2012_e1a_1",1,"ValidCue",6,1903.296,"Include",249
"JCD2012_e1a","JCD2012_e1a_1",0,"ValidCue",1,5607.002,"Include",250
"JCD2012_e1a","JCD2012_e1a_1",1,"ValidCue",6,1026.566,"Include",251
"JCD2012_e1a","JCD2012_e1a_1",0,"InvalidCue",2,5911.373,"Include",83
"JCD2012_e1a","JCD2012_e1a_1",1,"ValidCue",2,1062.547,"Include",252
"JCD2012_e1a","JCD2012_e1a_1",1,"InvalidCue",2,1232.695,"Include",84
"JCD2012_e1a","JCD2012_e1a_1",1,"ValidCue",2,861.3858,"Include",253
"JCD2012_e1a","JCD2012_e1a_1",0,"ValidCue",1,1031.467,"Include",254
"JCD2012_e1a","JCD2012_e1a_1",0,"InvalidCue",6,928.3557,"Include",85
"JCD2012_e1a","JCD2012_e1a_1",0,"ValidCue",1,1103.775,"Include",255
"JCD2012_e1a","JCD2012_e1a_1",1,"ValidCue",6,778.7904,"Include",256
"JCD2012_e1a","JCD2012_e1a_1",0,"ValidCue",2,1769.448,"Include",257
"JCD2012_e1a","JCD2012_e1a_1",0,"ValidCue",1,861.2609,"Include",258
"JCD2012_e1a","JCD2012_e1a_1",1,"ValidCue",6,1243.059,"Include",259
"JCD2012_e1a","JCD2012_e1a_1",0,"InvalidCue",6,613.5806,"Include",86
"JCD2012_e1a","JCD2012_e1a_1",1,"ValidCue",6,654.8914,"Include",260
"JCD2012_e1a","JCD2012_e1a_1",1,"InvalidCue",6,701.4051,"Include",87
"JCD2012_e1a","JCD2012_e1a_1",1,"ValidCue",2,2527.647,"Include",261
"JCD2012_e1a","JCD2012_e1a_1",0,"ValidCue",2,2011.619,"Include",262
"JCD2012_e1a","JCD2012_e1a_1",1,"ValidCue",6,1139.848,"Include",263
"JCD2012_e1a","JCD2012_e1a_1",0,"InvalidCue",1,6752.247,"Include",88
"JCD2012_e1a","JCD2012_e1a_1",1,"ValidCue",6,1134.717,"Include",264
"JCD2012_e1a","JCD2012_e1a_1",1,"InvalidCue",6,753.1134,"Include",89
"JCD2012_e1a","JCD2012_e1a_1",1,"ValidCue",6,830.7599,"Include",265
"JCD2012_e1a","JCD2012_e1a_1",0,"ValidCue",1,1036.771,"Include",266
"JCD2012_e1a","JCD2012_e1a_1",0,"ValidCue",2,2837.042,"Include",267
"JCD2012_e1a","JCD2012_e1a_1",1,"ValidCue",6,783.9455,"Include",268
"JCD2012_e1a","JCD2012_e1a_1",1,"ValidCue",6,608.5175,"Include",269
"JCD2012_e1a","JCD2012_e1a_1",0,"ValidCue",2,1263.645,"Include",270
"JCD2012_e1a","JCD2012_e1a_1",0,"InvalidCue",2,1707.212,"Include",90
"JCD2012_e1a","JCD2012_e1a_10",0,"NoCue",2,7415.008,"Include",1
"JCD2012_e1a","JCD2012_e1a_10",1,"NoCue",2,1408.232,"Include",2
"JCD2012_e1a","JCD2012_e1a_10",1,"NoCue",5,2040.2,"Include",3
"JCD2012_e1a","JCD2012_e1a_10",1,"NoCue",6,805.7679,"Include",4
"JCD2012_e1a","JCD2012_e1a_10",1,"NoCue",5,1909.765,"Include",5
"JCD2012_e1a","JCD2012_e1a_10",0,"NoCue",2,2526.533,"Include",6
"JCD2012_e1a","JCD2012_e1a_10",0,"NoCue",1,915.4609,"Include",7
"JCD2012_e1a","JCD2012_e1a_10",1,"NoCue",6,1456.376,"Include",8
"JCD2012_e1a","JCD2012_e1a_10",0,"NoCue",2,871.466,"Include",9
"JCD2012_e1a","JCD2012_e1a_10",0,"NoCue",4,3282.731,"Include",10
"JCD2012_e1a","JCD2012_e1a_10",1,"NoCue",6,1394.321,"Include",11
"JCD2012_e1a","JCD2012_e1a_10",0,"NoCue",2,2087.975,"Include",12
"JCD2012_e1a","JCD2012_e1a_10",1,"NoCue",6,1014.414,"Include",13
"JCD2012_e1a","JCD2012_e1a_10",0,"NoCue",1,1380,"Include",14
"JCD2012_e1a","JCD2012_e1a_10",0,"NoCue",1,730.9803,"Include",15
"JCD2012_e1a","JCD2012_e1a_10",0,"NoCue",1,732.8087,"Include",16
"JCD2012_e1a","JCD2012_e1a_10",0,"NoCue",2,1957.291,"Include",17
"JCD2012_e1a","JCD2012_e1a_10",1,"NoCue",6,1268.204,"Include",18
"JCD2012_e1a","JCD2012_e1a_10",0,"NoCue",3,1708.657,"Include",19
"JCD2012_e1a","JCD2012_e1a_10",1,"NoCue",5,1372.356,"Include",20
"JCD2012_e1a","JCD2012_e1a_10",0,"NoCue",3,2626.733,"Include",21
"JCD2012_e1a","JCD2012_e1a_10",1,"NoCue",6,976.0865,"Include",22
"JCD2012_e1a","JCD2012_e1a_10",0,"NoCue",2,1895.546,"Include",23
"JCD2012_e1a","JCD2012_e1a_10",0,"NoCue",2,1512.389,"Include",24
"JCD2012_e1a","JCD2012_e1a_10",1,"NoCue",6,816.7765,"Include",25
"JCD2012_e1a","JCD2012_e1a_10",0,"NoCue",2,1381.645,"Include",26
"JCD2012_e1a","JCD2012_e1a_10",1,"NoCue",6,1080.479,"Include",27
"JCD2012_e1a","JCD2012_e1a_10",1,"NoCue",6,716.0366,"Include",28
"JCD2012_e1a","JCD2012_e1a_10",0,"NoCue",2,1478.684,"Include",29
"JCD2012_e1a","JCD2012_e1a_10",0,"NoCue",1,1246.416,"Include",30
"JCD2012_e1a","JCD2012_e1a_10",0,"NoCue",1,1110.466,"Include",31
"JCD2012_e1a","JCD2012_e1a_10",0,"NoCue",5,1549.798,"Include",32
"JCD2012_e1a","JCD2012_e1a_10",0,"NoCue",2,1276.854,"Include",33
"JCD2012_e1a","JCD2012_e1a_10",1,"NoCue",6,1326.597,"Include",34
"JCD2012_e1a","JCD2012_e1a_10",0,"NoCue",2,1325.291,"Include",35
"JCD2012_e1a","JCD2012_e1a_10",1,"NoCue",6,889.4278,"Include",36
"JCD2012_e1a","JCD2012_e1a_10",1,"NoCue",6,817.2368,"Include",37
"JCD2012_e1a","JCD2012_e1a_10",1,"NoCue",5,3566.681,"Include",38
"JCD2012_e1a","JCD2012_e1a_10",1,"NoCue",6,883.8108,"Include",39
"JCD2012_e1a","JCD2012_e1a_10",0,"NoCue",2,1502.023,"Include",40
"JCD2012_e1a","JCD2012_e1a_10",1,"NoCue",6,1199.08,"Include",41
"JCD2012_e1a","JCD2012_e1a_10",0,"NoCue",2,1226.801,"Include",42
"JCD2012_e1a","JCD2012_e1a_10",0,"NoCue",2,864.7186,"Include",43
"JCD2012_e1a","JCD2012_e1a_10",0,"NoCue",1,1717.394,"Include",44
"JCD2012_e1a","JCD2012_e1a_10",0,"NoCue",2,1309.793,"Include",45
"JCD2012_e1a","JCD2012_e1a_10",0,"NoCue",2,1547.836,"Include",46
"JCD2012_e1a","JCD2012_e1a_10",0,"NoCue",1,770.2097,"Include",47
"JCD2012_e1a","JCD2012_e1a_10",1,"NoCue",6,988.474,"Include",48
"JCD2012_e1a","JCD2012_e1a_10",1,"NoCue",6,963.6091,"Include",49
"JCD2012_e1a","JCD2012_e1a_10",0,"NoCue",2,1394.885,"Include",50
"JCD2012_e1a","JCD2012_e1a_10",0,"NoCue",2,788.9699,"Include",51
"JCD2012_e1a","JCD2012_e1a_10",1,"NoCue",5,1740.512,"Include",52
"JCD2012_e1a","JCD2012_e1a_10",1,"NoCue",6,811.4428,"Include",53
"JCD2012_e1a","JCD2012_e1a_10",1,"NoCue",6,697.5114,"Include",54
"JCD2012_e1a","JCD2012_e1a_10",0,"NoCue",2,1053.027,"Include",55
"JCD2012_e1a","JCD2012_e1a_10",1,"NoCue",4,3074.672,"Include",56
"JCD2012_e1a","JCD2012_e1a_10",1,"NoCue",5,1620.944,"Include",57
"JCD2012_e1a","JCD2012_e1a_10",1,"NoCue",6,4895.517,"Include",58
"JCD2012_e1a","JCD2012_e1a_10",1,"NoCue",6,1150.043,"Include",59
"JCD2012_e1a","JCD2012_e1a_10",0,"NoCue",2,843.0723,"Include",60
"JCD2012_e1a","JCD2012_e1a_10",1,"NoCue",6,793.5148,"Include",61
"JCD2012_e1a","JCD2012_e1a_10",1,"NoCue",5,1402.659,"Include",62
"JCD2012_e1a","JCD2012_e1a_10",1,"NoCue",6,3699.569,"Include",63
"JCD2012_e1a","JCD2012_e1a_10",0,"NoCue",5,2382.35,"Include",64
"JCD2012_e1a","JCD2012_e1a_10",0,"NoCue",2,861.7898,"Include",65
"JCD2012_e1a","JCD2012_e1a_10",1,"NoCue",6,1192.999,"Include",66
"JCD2012_e1a","JCD2012_e1a_10",1,"NoCue",5,1118.179,"Include",67
"JCD2012_e1a","JCD2012_e1a_10",1,"NoCue",5,921.6956,"Include",68
"JCD2012_e1a","JCD2012_e1a_10",0,"NoCue",2,816.1611,"Include",69
"JCD2012_e1a","JCD2012_e1a_10",1,"NoCue",4,1408.363,"Include",70
"JCD2012_e1a","JCD2012_e1a_10",1,"NoCue",5,1421.272,"Include",71
"JCD2012_e1a","JCD2012_e1a_10",0,"NoCue",5,3554.29,"Include",72
"JCD2012_e1a","JCD2012_e1a_10",1,"NoCue",6,725.0399,"Include",73
"JCD2012_e1a","JCD2012_e1a_10",1,"NoCue",5,1504.212,"Include",74
"JCD2012_e1a","JCD2012_e1a_10",1,"NoCue",2,3020.579,"Include",75
"JCD2012_e1a","JCD2012_e1a_10",0,"NoCue",2,0.653345,"Include",76
"JCD2012_e1a","JCD2012_e1a_10",0,"NoCue",2,1151.919,"Include",77
"JCD2012_e1a","JCD2012_e1a_10",1,"NoCue",5,1416.225,"Include",78
"JCD2012_e1a","JCD2012_e1a_10",0,"NoCue",2,836.3733,"Include",79
"JCD2012_e1a","JCD2012_e1a_10",0,"NoCue",5,1684.361,"Include",80
"JCD2012_e1a","JCD2012_e1a_10",0,"NoCue",2,805.219,"Include",81
"JCD2012_e1a","JCD2012_e1a_10",1,"NoCue",6,6430.804,"Include",82
"JCD2012_e1a","JCD2012_e1a_10",0,"NoCue",2,4790.594,"Include",83
"JCD2012_e1a","JCD2012_e1a_10",0,"NoCue",2,1090.658,"Include",84
"JCD2012_e1a","JCD2012_e1a_10",1,"NoCue",2,1546.713,"Include",85
"JCD2012_e1a","JCD2012_e1a_10",0,"NoCue",2,3083.331,"Include",86
"JCD2012_e1a","JCD2012_e1a_10",1,"NoCue",5,1178.387,"Include",87
"JCD2012_e1a","JCD2012_e1a_10",1,"NoCue",6,1457.164,"Include",88
"JCD2012_e1a","JCD2012_e1a_10",1,"NoCue",6,757.9161,"Include",89
"JCD2012_e1a","JCD2012_e1a_10",0,"NoCue",5,1194.147,"Include",90
"JCD2012_e1a","JCD2012_e1a_10",1,"NoCue",6,1674.002,"Include",91
"JCD2012_e1a","JCD2012_e1a_10",0,"NoCue",2,1170.968,"Include",92
"JCD2012_e1a","JCD2012_e1a_10",0,"NoCue",2,803.3484,"Include",93
"JCD2012_e1a","JCD2012_e1a_10",0,"NoCue",2,1087.061,"Include",94
"JCD2012_e1a","JCD2012_e1a_10",1,"NoCue",2,1977.678,"Include",95
"JCD2012_e1a","JCD2012_e1a_10",0,"NoCue",2,1031.588,"Include",96
"JCD2012_e1a","JCD2012_e1a_10",0,"NoCue",2,978.1466,"Include",97
"JCD2012_e1a","JCD2012_e1a_10",0,"NoCue",2,1049.966,"Include",98
"JCD2012_e1a","JCD2012_e1a_10",1,"NoCue",2,1426.109,"Include",99
"JCD2012_e1a","JCD2012_e1a_10",1,"NoCue",4,1345.194,"Include",100
"JCD2012_e1a","JCD2012_e1a_10",0,"NoCue",2,1371.144,"Include",101
"JCD2012_e1a","JCD2012_e1a_10",0,"NoCue",2,929.2471,"Include",102
"JCD2012_e1a","JCD2012_e1a_10",1,"NoCue",6,2660.485,"Include",103
"JCD2012_e1a","JCD2012_e1a_10",0,"NoCue",2,1280.249,"Include",104
"JCD2012_e1a","JCD2012_e1a_10",0,"NoCue",2,834.8001,"Include",105
"JCD2012_e1a","JCD2012_e1a_10",0,"NoCue",2,780.4521,"Include",106
"JCD2012_e1a","JCD2012_e1a_10",0,"NoCue",2,1009.562,"Include",107
"JCD2012_e1a","JCD2012_e1a_10",1,"NoCue",4,1645.639,"Include",108
"JCD2012_e1a","JCD2012_e1a_10",1,"NoCue",6,1627.074,"Include",109
"JCD2012_e1a","JCD2012_e1a_10",0,"NoCue",2,955.2681,"Include",110
"JCD2012_e1a","JCD2012_e1a_10",0,"NoCue",2,843.6614,"Include",111
"JCD2012_e1a","JCD2012_e1a_10",1,"NoCue",6,1261.981,"Include",112
"JCD2012_e1a","JCD2012_e1a_10",1,"NoCue",6,1028.504,"Include",113
"JCD2012_e1a","JCD2012_e1a_10",1,"NoCue",6,1685.988,"Include",114
"JCD2012_e1a","JCD2012_e1a_10",1,"NoCue",6,856.7064,"Include",115
"JCD2012_e1a","JCD2012_e1a_10",0,"NoCue",2,1148.935,"Include",116
"JCD2012_e1a","JCD2012_e1a_10",1,"NoCue",6,858.8912,"Include",117
"JCD2012_e1a","JCD2012_e1a_10",1,"NoCue",5,1630.294,"Include",118
"JCD2012_e1a","JCD2012_e1a_10",1,"NoCue",5,1153.999,"Include",119
"JCD2012_e1a","JCD2012_e1a_10",1,"NoCue",5,2059.599,"Include",120
"JCD2012_e1a","JCD2012_e1a_10",0,"ValidCue",1,6995.719,"Include",1
"JCD2012_e1a","JCD2012_e1a_10",0,"ValidCue",2,1252.446,"Include",2
"JCD2012_e1a","JCD2012_e1a_10",1,"ValidCue",6,4342.727,"Include",3
"JCD2012_e1a","JCD2012_e1a_10",1,"InvalidCue",5,1472.762,"Include",1
"JCD2012_e1a","JCD2012_e1a_10",1,"ValidCue",6,1068.888,"Include",4
"JCD2012_e1a","JCD2012_e1a_10",0,"ValidCue",2,1430.776,"Include",5
"JCD2012_e1a","JCD2012_e1a_10",0,"ValidCue",2,1104.26,"Include",6
"JCD2012_e1a","JCD2012_e1a_10",0,"ValidCue",2,2041.127,"Include",7
"JCD2012_e1a","JCD2012_e1a_10",0,"ValidCue",2,1087.45,"Include",8
"JCD2012_e1a","JCD2012_e1a_10",1,"InvalidCue",5,1720.715,"Include",2
"JCD2012_e1a","JCD2012_e1a_10",1,"ValidCue",6,822.38,"Include",9
"JCD2012_e1a","JCD2012_e1a_10",1,"ValidCue",6,2038.103,"Include",10
"JCD2012_e1a","JCD2012_e1a_10",0,"ValidCue",1,1246.567,"Include",11
"JCD2012_e1a","JCD2012_e1a_10",1,"ValidCue",6,1424.834,"Include",12
"JCD2012_e1a","JCD2012_e1a_10",0,"ValidCue",2,1180.319,"Include",13
"JCD2012_e1a","JCD2012_e1a_10",0,"ValidCue",2,941.0037,"Include",14
"JCD2012_e1a","JCD2012_e1a_10",1,"ValidCue",6,925.5783,"Include",15
"JCD2012_e1a","JCD2012_e1a_10",0,"InvalidCue",2,1985.174,"Include",3
"JCD2012_e1a","JCD2012_e1a_10",0,"InvalidCue",2,3055.405,"Include",4
"JCD2012_e1a","JCD2012_e1a_10",1,"ValidCue",5,3457.721,"Include",16
"JCD2012_e1a","JCD2012_e1a_10",0,"ValidCue",1,4921.414,"Include",17
"JCD2012_e1a","JCD2012_e1a_10",1,"ValidCue",5,1760.314,"Include",18
"JCD2012_e1a","JCD2012_e1a_10",0,"ValidCue",2,1235.736,"Include",19
"JCD2012_e1a","JCD2012_e1a_10",1,"ValidCue",5,1136.795,"Include",20
"JCD2012_e1a","JCD2012_e1a_10",0,"ValidCue",1,1198.532,"Include",21
"JCD2012_e1a","JCD2012_e1a_10",0,"ValidCue",2,2698.378,"Include",22
"JCD2012_e1a","JCD2012_e1a_10",1,"ValidCue",2,810.55,"Include",23
"JCD2012_e1a","JCD2012_e1a_10",0,"ValidCue",2,982.3422,"Include",24
"JCD2012_e1a","JCD2012_e1a_10",1,"ValidCue",6,1682.562,"Include",25
"JCD2012_e1a","JCD2012_e1a_10",1,"InvalidCue",2,1056.842,"Include",5
"JCD2012_e1a","JCD2012_e1a_10",1,"InvalidCue",5,5163.811,"Include",6
"JCD2012_e1a","JCD2012_e1a_10",1,"ValidCue",6,1359.81,"Include",26
"JCD2012_e1a","JCD2012_e1a_10",0,"ValidCue",1,2182.043,"Include",27
"JCD2012_e1a","JCD2012_e1a_10",1,"ValidCue",4,2849.626,"Include",28
"JCD2012_e1a","JCD2012_e1a_10",1,"ValidCue",6,2854.538,"Include",29
"JCD2012_e1a","JCD2012_e1a_10",0,"ValidCue",2,2197.364,"Include",30
"JCD2012_e1a","JCD2012_e1a_10",1,"InvalidCue",6,2685.179,"Include",7
"JCD2012_e1a","JCD2012_e1a_10",0,"ValidCue",1,1890.365,"Include",31
"JCD2012_e1a","JCD2012_e1a_10",1,"InvalidCue",5,1651.14,"Include",8
"JCD2012_e1a","JCD2012_e1a_10",1,"InvalidCue",6,1020.733,"Include",9
"JCD2012_e1a","JCD2012_e1a_10",0,"ValidCue",3,2324.275,"Include",32
"JCD2012_e1a","JCD2012_e1a_10",1,"InvalidCue",6,1379.841,"Include",10
"JCD2012_e1a","JCD2012_e1a_10",0,"ValidCue",5,1581.872,"Include",33
"JCD2012_e1a","JCD2012_e1a_10",0,"ValidCue",2,1394.19,"Include",34
"JCD2012_e1a","JCD2012_e1a_10",1,"ValidCue",2,1178.171,"Include",35
"JCD2012_e1a","JCD2012_e1a_10",1,"ValidCue",6,1857.781,"Include",36
"JCD2012_e1a","JCD2012_e1a_10",1,"ValidCue",6,2858.175,"Include",37
"JCD2012_e1a","JCD2012_e1a_10",0,"InvalidCue",5,4673.619,"Include",11
"JCD2012_e1a","JCD2012_e1a_10",1,"ValidCue",6,1490.39,"Include",38
"JCD2012_e1a","JCD2012_e1a_10",0,"InvalidCue",2,1488.775,"Include",12
"JCD2012_e1a","JCD2012_e1a_10",1,"ValidCue",5,1955.907,"Include",39
"JCD2012_e1a","JCD2012_e1a_10",1,"ValidCue",2,1318.074,"Include",40
"JCD2012_e1a","JCD2012_e1a_10",1,"ValidCue",5,1624.945,"Include",41
"JCD2012_e1a","JCD2012_e1a_10",0,"InvalidCue",2,1353.992,"Include",13
"JCD2012_e1a","JCD2012_e1a_10",1,"ValidCue",6,1442.914,"Include",42
"JCD2012_e1a","JCD2012_e1a_10",1,"ValidCue",6,986.225,"Include",43
"JCD2012_e1a","JCD2012_e1a_10",1,"ValidCue",6,735.4497,"Include",44
"JCD2012_e1a","JCD2012_e1a_10",0,"ValidCue",5,2094.176,"Include",45
"JCD2012_e1a","JCD2012_e1a_10",0,"ValidCue",2,1023.927,"Include",46
"JCD2012_e1a","JCD2012_e1a_10",0,"InvalidCue",2,1066.739,"Include",14
"JCD2012_e1a","JCD2012_e1a_10",0,"ValidCue",2,770.5064,"Include",47
"JCD2012_e1a","JCD2012_e1a_10",1,"InvalidCue",4,1585.047,"Include",15
"JCD2012_e1a","JCD2012_e1a_10",0,"InvalidCue",2,5738.841,"Include",16
"JCD2012_e1a","JCD2012_e1a_10",0,"ValidCue",2,1101.11,"Include",48
"JCD2012_e1a","JCD2012_e1a_10",0,"ValidCue",2,842.7131,"Include",49
"JCD2012_e1a","JCD2012_e1a_10",0,"ValidCue",2,1650.061,"Include",50
"JCD2012_e1a","JCD2012_e1a_10",0,"ValidCue",5,3182.716,"Include",51
"JCD2012_e1a","JCD2012_e1a_10",0,"ValidCue",2,4452.499,"Include",52
"JCD2012_e1a","JCD2012_e1a_10",1,"ValidCue",5,2328.036,"Include",53
"JCD2012_e1a","JCD2012_e1a_10",1,"ValidCue",5,1247.739,"Include",54
"JCD2012_e1a","JCD2012_e1a_10",1,"ValidCue",4,1528.596,"Include",55
"JCD2012_e1a","JCD2012_e1a_10",0,"ValidCue",4,2043.315,"Include",56
"JCD2012_e1a","JCD2012_e1a_10",0,"ValidCue",2,1876.562,"Include",57
"JCD2012_e1a","JCD2012_e1a_10",0,"InvalidCue",3,1404.194,"Include",17
"JCD2012_e1a","JCD2012_e1a_10",1,"ValidCue",6,2078.79,"Include",58
"JCD2012_e1a","JCD2012_e1a_10",0,"ValidCue",2,2194.159,"Include",59
"JCD2012_e1a","JCD2012_e1a_10",0,"ValidCue",2,1556.974,"Include",60
"JCD2012_e1a","JCD2012_e1a_10",1,"InvalidCue",6,1451.499,"Include",18
"JCD2012_e1a","JCD2012_e1a_10",1,"ValidCue",5,1446.07,"Include",61
"JCD2012_e1a","JCD2012_e1a_10",0,"ValidCue",2,2249.394,"Include",62
"JCD2012_e1a","JCD2012_e1a_10",0,"InvalidCue",2,1138.324,"Include",19
"JCD2012_e1a","JCD2012_e1a_10",0,"ValidCue",2,1318.4,"Include",63
"JCD2012_e1a","JCD2012_e1a_10",0,"ValidCue",2,2391.687,"Include",64
"JCD2012_e1a","JCD2012_e1a_10",0,"ValidCue",2,1234.015,"Include",65
"JCD2012_e1a","JCD2012_e1a_10",0,"InvalidCue",4,2195.635,"Include",20
"JCD2012_e1a","JCD2012_e1a_10",0,"ValidCue",2,1444.177,"Include",66
"JCD2012_e1a","JCD2012_e1a_10",1,"ValidCue",2,2932.943,"Include",67
"JCD2012_e1a","JCD2012_e1a_10",1,"ValidCue",3,2735.299,"Include",68
"JCD2012_e1a","JCD2012_e1a_10",0,"InvalidCue",3,1596.553,"Include",21
"JCD2012_e1a","JCD2012_e1a_10",1,"ValidCue",4,1445.684,"Include",69
"JCD2012_e1a","JCD2012_e1a_10",1,"ValidCue",6,1053.589,"Include",70
"JCD2012_e1a","JCD2012_e1a_10",0,"ValidCue",3,1317.928,"Include",71
"JCD2012_e1a","JCD2012_e1a_10",1,"ValidCue",6,1359.151,"Include",72
"JCD2012_e1a","JCD2012_e1a_10",0,"ValidCue",1,1376.706,"Include",73
"JCD2012_e1a","JCD2012_e1a_10",1,"InvalidCue",5,1654.905,"Include",22
"JCD2012_e1a","JCD2012_e1a_10",1,"ValidCue",6,932.7026,"Include",74
"JCD2012_e1a","JCD2012_e1a_10",1,"InvalidCue",6,1433.25,"Include",23
"JCD2012_e1a","JCD2012_e1a_10",1,"InvalidCue",6,1019.518,"Include",24
"JCD2012_e1a","JCD2012_e1a_10",0,"ValidCue",3,1328.93,"Include",75
"JCD2012_e1a","JCD2012_e1a_10",1,"ValidCue",6,1373.99,"Include",76
"JCD2012_e1a","JCD2012_e1a_10",1,"ValidCue",6,1049.764,"Include",77
"JCD2012_e1a","JCD2012_e1a_10",0,"ValidCue",2,922.4655,"Include",78
"JCD2012_e1a","JCD2012_e1a_10",1,"ValidCue",6,1782.289,"Include",79
"JCD2012_e1a","JCD2012_e1a_10",1,"ValidCue",3,893.2858,"Include",80
"JCD2012_e1a","JCD2012_e1a_10",0,"InvalidCue",3,786.3106,"Include",25
"JCD2012_e1a","JCD2012_e1a_10",1,"ValidCue",3,1910.416,"Include",81
"JCD2012_e1a","JCD2012_e1a_10",1,"ValidCue",3,893.8566,"Include",82
"JCD2012_e1a","JCD2012_e1a_10",0,"ValidCue",2,813.2548,"Include",83
"JCD2012_e1a","JCD2012_e1a_10",1,"ValidCue",6,968.4305,"Include",84
"JCD2012_e1a","JCD2012_e1a_10",1,"ValidCue",6,941.1511,"Include",85
"JCD2012_e1a","JCD2012_e1a_10",1,"ValidCue",3,800.7629,"Include",86
"JCD2012_e1a","JCD2012_e1a_10",0,"ValidCue",2,798.8048,"Include",87
"JCD2012_e1a","JCD2012_e1a_10",1,"InvalidCue",4,2470.66,"Include",26
"JCD2012_e1a","JCD2012_e1a_10",1,"ValidCue",5,3164.108,"Include",88
"JCD2012_e1a","JCD2012_e1a_10",0,"InvalidCue",3,1249.43,"Include",27
"JCD2012_e1a","JCD2012_e1a_10",0,"ValidCue",3,1633.792,"Include",89
"JCD2012_e1a","JCD2012_e1a_10",0,"ValidCue",2,1591.355,"Include",90
"JCD2012_e1a","JCD2012_e1a_10",1,"InvalidCue",6,1147.823,"Include",28
"JCD2012_e1a","JCD2012_e1a_10",0,"InvalidCue",1,1746.641,"Include",29
"JCD2012_e1a","JCD2012_e1a_10",0,"InvalidCue",2,1559.976,"Include",30
"JCD2012_e1a","JCD2012_e1a_10",0,"ValidCue",2,3079.933,"Include",91
"JCD2012_e1a","JCD2012_e1a_10",1,"InvalidCue",5,1280.892,"Include",31
"JCD2012_e1a","JCD2012_e1a_10",1,"ValidCue",6,1093.77,"Include",92
"JCD2012_e1a","JCD2012_e1a_10",1,"ValidCue",6,1373.452,"Include",93
"JCD2012_e1a","JCD2012_e1a_10",0,"ValidCue",3,1983.764,"Include",94
"JCD2012_e1a","JCD2012_e1a_10",1,"ValidCue",6,666.0807,"Include",95
"JCD2012_e1a","JCD2012_e1a_10",1,"ValidCue",6,993.9242,"Include",96
"JCD2012_e1a","JCD2012_e1a_10",1,"InvalidCue",6,857.1412,"Include",32
"JCD2012_e1a","JCD2012_e1a_10",0,"ValidCue",3,658.7014,"Include",97
"JCD2012_e1a","JCD2012_e1a_10",0,"InvalidCue",2,2132.915,"Include",33
"JCD2012_e1a","JCD2012_e1a_10",0,"InvalidCue",2,1263.7,"Include",34
"JCD2012_e1a","JCD2012_e1a_10",0,"ValidCue",2,1174.352,"Include",98
"JCD2012_e1a","JCD2012_e1a_10",0,"ValidCue",4,2164.603,"Include",99
"JCD2012_e1a","JCD2012_e1a_10",0,"ValidCue",2,1196.556,"Include",100
"JCD2012_e1a","JCD2012_e1a_10",0,"ValidCue",5,1810.671,"Include",101
"JCD2012_e1a","JCD2012_e1a_10",0,"InvalidCue",2,1394.226,"Include",35
"JCD2012_e1a","JCD2012_e1a_10",1,"InvalidCue",6,879.3846,"Include",36
"JCD2012_e1a","JCD2012_e1a_10",1,"InvalidCue",6,716.8398,"Include",37
"JCD2012_e1a","JCD2012_e1a_10",0,"ValidCue",1,2162.57,"Include",102
"JCD2012_e1a","JCD2012_e1a_10",1,"ValidCue",5,5341.93,"Include",103
"JCD2012_e1a","JCD2012_e1a_10",0,"ValidCue",5,1582.962,"Include",104
"JCD2012_e1a","JCD2012_e1a_10",1,"ValidCue",5,1650.156,"Include",105
"JCD2012_e1a","JCD2012_e1a_10",0,"ValidCue",2,2259.98,"Include",106
"JCD2012_e1a","JCD2012_e1a_10",1,"ValidCue",2,745.4964,"Include",107
"JCD2012_e1a","JCD2012_e1a_10",1,"ValidCue",5,1343.411,"Include",108
"JCD2012_e1a","JCD2012_e1a_10",0,"ValidCue",2,893.2776,"Include",109
"JCD2012_e1a","JCD2012_e1a_10",0,"ValidCue",2,618.3483,"Include",110
"JCD2012_e1a","JCD2012_e1a_10",1,"InvalidCue",5,870.2773,"Include",38
"JCD2012_e1a","JCD2012_e1a_10",1,"ValidCue",5,975.392,"Include",111
"JCD2012_e1a","JCD2012_e1a_10",1,"ValidCue",5,801.5829,"Include",112
"JCD2012_e1a","JCD2012_e1a_10",0,"ValidCue",5,1076.978,"Include",113
"JCD2012_e1a","JCD2012_e1a_10",0,"ValidCue",2,1568.577,"Include",114
"JCD2012_e1a","JCD2012_e1a_10",0,"ValidCue",2,832.2286,"Include",115
"JCD2012_e1a","JCD2012_e1a_10",0,"InvalidCue",2,1138.695,"Include",39
"JCD2012_e1a","JCD2012_e1a_10",0,"ValidCue",2,1770.732,"Include",116
"JCD2012_e1a","JCD2012_e1a_10",1,"ValidCue",2,779.3723,"Include",117
"JCD2012_e1a","JCD2012_e1a_10",0,"InvalidCue",2,712.921,"Include",40
"JCD2012_e1a","JCD2012_e1a_10",0,"InvalidCue",2,696.8813,"Include",41
"JCD2012_e1a","JCD2012_e1a_10",1,"ValidCue",5,1175.914,"Include",118
"JCD2012_e1a","JCD2012_e1a_10",1,"InvalidCue",6,1241.295,"Include",42
"JCD2012_e1a","JCD2012_e1a_10",1,"ValidCue",4,1049.632,"Include",119
"JCD2012_e1a","JCD2012_e1a_10",0,"ValidCue",2,1226.893,"Include",120
"JCD2012_e1a","JCD2012_e1a_10",1,"ValidCue",5,1449.244,"Include",121
"JCD2012_e1a","JCD2012_e1a_10",1,"ValidCue",6,1313.042,"Include",122
"JCD2012_e1a","JCD2012_e1a_10",0,"ValidCue",3,1016.402,"Include",123
"JCD2012_e1a","JCD2012_e1a_10",0,"ValidCue",2,1030.888,"Include",124
"JCD2012_e1a","JCD2012_e1a_10",0,"ValidCue",5,1633.177,"Include",125
"JCD2012_e1a","JCD2012_e1a_10",0,"InvalidCue",3,3872.947,"Include",43
"JCD2012_e1a","JCD2012_e1a_10",0,"ValidCue",2,1512.291,"Include",126
"JCD2012_e1a","JCD2012_e1a_10",0,"ValidCue",2,815.1502,"Include",127
"JCD2012_e1a","JCD2012_e1a_10",1,"ValidCue",5,6106.023,"Include",128
"JCD2012_e1a","JCD2012_e1a_10",1,"ValidCue",6,1047.16,"Include",129
"JCD2012_e1a","JCD2012_e1a_10",1,"ValidCue",6,2219.682,"Include",130
"JCD2012_e1a","JCD2012_e1a_10",1,"InvalidCue",5,1549.197,"Include",44
"JCD2012_e1a","JCD2012_e1a_10",1,"ValidCue",5,1024.785,"Include",131
"JCD2012_e1a","JCD2012_e1a_10",1,"ValidCue",5,897.588,"Include",132
"JCD2012_e1a","JCD2012_e1a_10",0,"ValidCue",2,1442.96,"Include",133
"JCD2012_e1a","JCD2012_e1a_10",0,"ValidCue",2,1866.319,"Include",134
"JCD2012_e1a","JCD2012_e1a_10",1,"ValidCue",4,3160.463,"Include",135
"JCD2012_e1a","JCD2012_e1a_10",0,"ValidCue",3,1451.829,"Include",136
"JCD2012_e1a","JCD2012_e1a_10",1,"ValidCue",4,1760.941,"Include",137
"JCD2012_e1a","JCD2012_e1a_10",0,"ValidCue",3,5845.699,"Include",138
"JCD2012_e1a","JCD2012_e1a_10",0,"ValidCue",3,880.0229,"Include",139
"JCD2012_e1a","JCD2012_e1a_10",0,"InvalidCue",2,1404.001,"Include",45
"JCD2012_e1a","JCD2012_e1a_10",1,"InvalidCue",5,1485.824,"Include",46
"JCD2012_e1a","JCD2012_e1a_10",1,"ValidCue",1,1538.897,"Include",140
"JCD2012_e1a","JCD2012_e1a_10",1,"InvalidCue",5,1319.247,"Include",47
"JCD2012_e1a","JCD2012_e1a_10",1,"ValidCue",2,1566.555,"Include",141
"JCD2012_e1a","JCD2012_e1a_10",0,"ValidCue",2,1008.844,"Include",142
"JCD2012_e1a","JCD2012_e1a_10",0,"ValidCue",2,975.4925,"Include",143
"JCD2012_e1a","JCD2012_e1a_10",0,"InvalidCue",2,1262.614,"Include",48
"JCD2012_e1a","JCD2012_e1a_10",0,"InvalidCue",2,934.9881,"Include",49
"JCD2012_e1a","JCD2012_e1a_10",0,"ValidCue",5,1577.845,"Include",144
"JCD2012_e1a","JCD2012_e1a_10",0,"InvalidCue",4,1372.58,"Include",50
"JCD2012_e1a","JCD2012_e1a_10",1,"ValidCue",6,2406.729,"Include",145
"JCD2012_e1a","JCD2012_e1a_10",0,"ValidCue",5,1101.506,"Include",146
"JCD2012_e1a","JCD2012_e1a_10",1,"ValidCue",6,940.7626,"Include",147
"JCD2012_e1a","JCD2012_e1a_10",0,"ValidCue",5,1430.256,"Include",148
"JCD2012_e1a","JCD2012_e1a_10",1,"ValidCue",6,1766.826,"Include",149
"JCD2012_e1a","JCD2012_e1a_10",1,"ValidCue",6,938.5477,"Include",150
"JCD2012_e1a","JCD2012_e1a_10",0,"ValidCue",5,880.2601,"Include",151
"JCD2012_e1a","JCD2012_e1a_10",1,"InvalidCue",6,1462.799,"Include",51
"JCD2012_e1a","JCD2012_e1a_10",1,"ValidCue",6,1276.618,"Include",152
"JCD2012_e1a","JCD2012_e1a_10",0,"ValidCue",5,1557.294,"Include",153
"JCD2012_e1a","JCD2012_e1a_10",0,"ValidCue",3,979.1661,"Include",154
"JCD2012_e1a","JCD2012_e1a_10",0,"ValidCue",2,1560.235,"Include",155
"JCD2012_e1a","JCD2012_e1a_10",1,"ValidCue",6,1817.952,"Include",156
"JCD2012_e1a","JCD2012_e1a_10",0,"InvalidCue",3,988.4354,"Include",52
"JCD2012_e1a","JCD2012_e1a_10",0,"ValidCue",5,3101.717,"Include",157
"JCD2012_e1a","JCD2012_e1a_10",1,"ValidCue",2,1481.239,"Include",158
"JCD2012_e1a","JCD2012_e1a_10",0,"ValidCue",3,1339,"Include",159
"JCD2012_e1a","JCD2012_e1a_10",1,"ValidCue",2,2221.955,"Include",160
"JCD2012_e1a","JCD2012_e1a_10",1,"ValidCue",6,1409.876,"Include",161
"JCD2012_e1a","JCD2012_e1a_10",0,"InvalidCue",4,2442.792,"Include",53
"JCD2012_e1a","JCD2012_e1a_10",1,"InvalidCue",5,2315.967,"Include",54
"JCD2012_e1a","JCD2012_e1a_10",1,"ValidCue",5,1377.682,"Include",162
"JCD2012_e1a","JCD2012_e1a_10",1,"ValidCue",6,2552.116,"Include",163
"JCD2012_e1a","JCD2012_e1a_10",0,"ValidCue",2,1460.963,"Include",164
"JCD2012_e1a","JCD2012_e1a_10",1,"ValidCue",4,1172.33,"Include",165
"JCD2012_e1a","JCD2012_e1a_10",1,"ValidCue",6,1396.978,"Include",166
"JCD2012_e1a","JCD2012_e1a_10",0,"ValidCue",4,1902.629,"Include",167
"JCD2012_e1a","JCD2012_e1a_10",0,"ValidCue",4,4641.002,"Include",168
"JCD2012_e1a","JCD2012_e1a_10",1,"ValidCue",5,2953.049,"Include",169
"JCD2012_e1a","JCD2012_e1a_10",1,"ValidCue",6,1424.26,"Include",170
"JCD2012_e1a","JCD2012_e1a_10",0,"InvalidCue",2,1309.72,"Include",55
"JCD2012_e1a","JCD2012_e1a_10",1,"ValidCue",4,4100.914,"Include",171
"JCD2012_e1a","JCD2012_e1a_10",1,"InvalidCue",0,1658.943,"Exclude",56
"JCD2012_e1a","JCD2012_e1a_10",0,"ValidCue",1,1229.203,"Include",172
"JCD2012_e1a","JCD2012_e1a_10",1,"ValidCue",6,1293.344,"Include",173
"JCD2012_e1a","JCD2012_e1a_10",0,"ValidCue",2,1171.6,"Include",174
"JCD2012_e1a","JCD2012_e1a_10",1,"ValidCue",4,1232.185,"Include",175
"JCD2012_e1a","JCD2012_e1a_10",1,"ValidCue",3,1448.679,"Include",176
"JCD2012_e1a","JCD2012_e1a_10",0,"InvalidCue",2,986.2778,"Include",57
"JCD2012_e1a","JCD2012_e1a_10",0,"ValidCue",2,893.5417,"Include",177
"JCD2012_e1a","JCD2012_e1a_10",1,"ValidCue",6,1285.592,"Include",178
"JCD2012_e1a","JCD2012_e1a_10",1,"InvalidCue",2,1044.703,"Include",58
"JCD2012_e1a","JCD2012_e1a_10",1,"ValidCue",2,1053.169,"Include",179
"JCD2012_e1a","JCD2012_e1a_10",1,"InvalidCue",6,1328.224,"Include",59
"JCD2012_e1a","JCD2012_e1a_10",1,"InvalidCue",2,1346.922,"Include",60
"JCD2012_e1a","JCD2012_e1a_10",0,"ValidCue",2,1359.678,"Include",180
"JCD2012_e1a","JCD2012_e1a_10",0,"ValidCue",2,2176.09,"Include",181
"JCD2012_e1a","JCD2012_e1a_10",1,"InvalidCue",6,1256.741,"Include",61
"JCD2012_e1a","JCD2012_e1a_10",0,"ValidCue",1,1070.87,"Include",182
"JCD2012_e1a","JCD2012_e1a_10",0,"ValidCue",2,1306.685,"Include",183
"JCD2012_e1a","JCD2012_e1a_10",1,"ValidCue",6,1142.135,"Include",184
"JCD2012_e1a","JCD2012_e1a_10",0,"InvalidCue",0,1055.18,"Exclude",62
"JCD2012_e1a","JCD2012_e1a_10",1,"ValidCue",5,1444.085,"Include",185
"JCD2012_e1a","JCD2012_e1a_10",0,"ValidCue",2,851.8426,"Include",186
"JCD2012_e1a","JCD2012_e1a_10",0,"ValidCue",2,1255.911,"Include",187
"JCD2012_e1a","JCD2012_e1a_10",1,"ValidCue",6,1173.541,"Include",188
"JCD2012_e1a","JCD2012_e1a_10",0,"ValidCue",1,1598.283,"Include",189
"JCD2012_e1a","JCD2012_e1a_10",0,"InvalidCue",1,1246.451,"Include",63
"JCD2012_e1a","JCD2012_e1a_10",0,"ValidCue",2,1478.477,"Include",190
"JCD2012_e1a","JCD2012_e1a_10",1,"InvalidCue",5,1265.886,"Include",64
"JCD2012_e1a","JCD2012_e1a_10",0,"InvalidCue",5,1840.637,"Include",65
"JCD2012_e1a","JCD2012_e1a_10",1,"ValidCue",6,1488.566,"Include",191
"JCD2012_e1a","JCD2012_e1a_10",0,"ValidCue",3,1688.12,"Include",192
"JCD2012_e1a","JCD2012_e1a_10",1,"InvalidCue",6,1574.14,"Include",66
"JCD2012_e1a","JCD2012_e1a_10",0,"ValidCue",2,1755.71,"Include",193
"JCD2012_e1a","JCD2012_e1a_10",1,"ValidCue",6,1221.442,"Include",194
"JCD2012_e1a","JCD2012_e1a_10",0,"InvalidCue",2,1063.988,"Include",67
"JCD2012_e1a","JCD2012_e1a_10",0,"ValidCue",2,1001.079,"Include",195
"JCD2012_e1a","JCD2012_e1a_10",1,"ValidCue",5,1114.279,"Include",196
"JCD2012_e1a","JCD2012_e1a_10",1,"ValidCue",2,1153.642,"Include",197
"JCD2012_e1a","JCD2012_e1a_10",0,"ValidCue",2,933.0762,"Include",198
"JCD2012_e1a","JCD2012_e1a_10",1,"ValidCue",5,1378.808,"Include",199
"JCD2012_e1a","JCD2012_e1a_10",0,"InvalidCue",5,1467.406,"Include",68
"JCD2012_e1a","JCD2012_e1a_10",1,"InvalidCue",5,1351.625,"Include",69
"JCD2012_e1a","JCD2012_e1a_10",1,"InvalidCue",5,2179.801,"Include",70
"JCD2012_e1a","JCD2012_e1a_10",0,"ValidCue",2,1248.76,"Include",200
"JCD2012_e1a","JCD2012_e1a_10",1,"ValidCue",5,1312.82,"Include",201
"JCD2012_e1a","JCD2012_e1a_10",1,"ValidCue",6,1348.271,"Include",202
"JCD2012_e1a","JCD2012_e1a_10",0,"InvalidCue",4,1371.709,"Include",71
"JCD2012_e1a","JCD2012_e1a_10",0,"ValidCue",3,1134.372,"Include",203
"JCD2012_e1a","JCD2012_e1a_10",0,"InvalidCue",2,1108.214,"Include",72
"JCD2012_e1a","JCD2012_e1a_10",0,"InvalidCue",2,2578.233,"Include",73
"JCD2012_e1a","JCD2012_e1a_10",1,"ValidCue",5,1708.58,"Include",204
"JCD2012_e1a","JCD2012_e1a_10",1,"ValidCue",5,0.652192,"Include",205
"JCD2012_e1a","JCD2012_e1a_10",1,"ValidCue",6,1229.56,"Include",206
"JCD2012_e1a","JCD2012_e1a_10",0,"ValidCue",2,1832.663,"Include",207
"JCD2012_e1a","JCD2012_e1a_10",0,"InvalidCue",3,719.858,"Include",74
"JCD2012_e1a","JCD2012_e1a_10",1,"ValidCue",6,926.3353,"Include",208
"JCD2012_e1a","JCD2012_e1a_10",1,"ValidCue",5,1101.42,"Include",209
"JCD2012_e1a","JCD2012_e1a_10",0,"ValidCue",5,1331.319,"Include",210
"JCD2012_e1a","JCD2012_e1a_10",1,"ValidCue",6,1350.002,"Include",211
"JCD2012_e1a","JCD2012_e1a_10",1,"ValidCue",6,737.7542,"Include",212
"JCD2012_e1a","JCD2012_e1a_10",1,"ValidCue",6,1325.015,"Include",213
"JCD2012_e1a","JCD2012_e1a_10",1,"ValidCue",6,984.4444,"Include",214
"JCD2012_e1a","JCD2012_e1a_10",1,"ValidCue",5,2304.571,"Include",215
"JCD2012_e1a","JCD2012_e1a_10",0,"ValidCue",5,3137.696,"Include",216
"JCD2012_e1a","JCD2012_e1a_10",0,"ValidCue",2,989.6531,"Include",217
"JCD2012_e1a","JCD2012_e1a_10",0,"InvalidCue",1,1298.269,"Include",75
"JCD2012_e1a","JCD2012_e1a_10",0,"ValidCue",2,1127.691,"Include",218
"JCD2012_e1a","JCD2012_e1a_10",1,"ValidCue",5,1270.477,"Include",219
"JCD2012_e1a","JCD2012_e1a_10",0,"ValidCue",2,1470.095,"Include",220
"JCD2012_e1a","JCD2012_e1a_10",0,"InvalidCue",2,1224.442,"Include",76
"JCD2012_e1a","JCD2012_e1a_10",1,"ValidCue",4,1761.23,"Include",221
"JCD2012_e1a","JCD2012_e1a_10",1,"InvalidCue",4,2155.592,"Include",77
"JCD2012_e1a","JCD2012_e1a_10",0,"ValidCue",4,4639.741,"Include",222
"JCD2012_e1a","JCD2012_e1a_10",1,"ValidCue",3,5891.208,"Include",223
"JCD2012_e1a","JCD2012_e1a_10",0,"ValidCue",3,1652.802,"Include",224
"JCD2012_e1a","JCD2012_e1a_10",0,"InvalidCue",3,990.1773,"Include",78
"JCD2012_e1a","JCD2012_e1a_10",0,"ValidCue",3,1000.933,"Include",225
"JCD2012_e1a","JCD2012_e1a_10",1,"ValidCue",3,815.3232,"Include",226
"JCD2012_e1a","JCD2012_e1a_10",0,"ValidCue",4,1824.012,"Include",227
"JCD2012_e1a","JCD2012_e1a_10",1,"ValidCue",6,1636.087,"Include",228
"JCD2012_e1a","JCD2012_e1a_10",0,"ValidCue",1,990.0975,"Include",229
"JCD2012_e1a","JCD2012_e1a_10",1,"ValidCue",6,1516.611,"Include",230
"JCD2012_e1a","JCD2012_e1a_10",1,"ValidCue",6,1085.051,"Include",231
"JCD2012_e1a","JCD2012_e1a_10",1,"ValidCue",6,826.7388,"Include",232
"JCD2012_e1a","JCD2012_e1a_10",0,"InvalidCue",2,998.4342,"Include",79
"JCD2012_e1a","JCD2012_e1a_10",0,"InvalidCue",3,3491.53,"Include",80
"JCD2012_e1a","JCD2012_e1a_10",0,"ValidCue",2,2053.693,"Include",233
"JCD2012_e1a","JCD2012_e1a_10",0,"ValidCue",4,2147.851,"Include",234
"JCD2012_e1a","JCD2012_e1a_10",0,"ValidCue",3,1240.325,"Include",235
"JCD2012_e1a","JCD2012_e1a_10",0,"ValidCue",3,2081.808,"Include",236
"JCD2012_e1a","JCD2012_e1a_10",0,"ValidCue",2,995.9333,"Include",237
"JCD2012_e1a","JCD2012_e1a_10",1,"ValidCue",2,1386.792,"Include",238
"JCD2012_e1a","JCD2012_e1a_10",1,"ValidCue",2,1414.776,"Include",239
"JCD2012_e1a","JCD2012_e1a_10",1,"InvalidCue",6,1436.943,"Include",81
"JCD2012_e1a","JCD2012_e1a_10",1,"InvalidCue",4,1169.882,"Include",82
"JCD2012_e1a","JCD2012_e1a_10",1,"InvalidCue",5,953.1275,"Include",83
"JCD2012_e1a","JCD2012_e1a_10",0,"ValidCue",5,1235.536,"Include",240
"JCD2012_e1a","JCD2012_e1a_10",0,"ValidCue",2,1750.649,"Include",241
"JCD2012_e1a","JCD2012_e1a_10",0,"ValidCue",2,2216.594,"Include",242
"JCD2012_e1a","JCD2012_e1a_10",0,"ValidCue",4,1329.323,"Include",243
"JCD2012_e1a","JCD2012_e1a_10",0,"ValidCue",4,1521.851,"Include",244
"JCD2012_e1a","JCD2012_e1a_10",1,"ValidCue",1,0.650007,"Include",245
"JCD2012_e1a","JCD2012_e1a_10",1,"ValidCue",1,0.650593,"Include",246
"JCD2012_e1a","JCD2012_e1a_10",1,"ValidCue",5,2503.985,"Include",247
"JCD2012_e1a","JCD2012_e1a_10",1,"InvalidCue",6,4653.294,"Include",84
"JCD2012_e1a","JCD2012_e1a_10",1,"ValidCue",6,1427.185,"Include",248
"JCD2012_e1a","JCD2012_e1a_10",1,"InvalidCue",6,2497.02,"Include",85
"JCD2012_e1a","JCD2012_e1a_10",1,"ValidCue",6,1233.251,"Include",249
"JCD2012_e1a","JCD2012_e1a_10",0,"ValidCue",4,2118.706,"Include",250
"JCD2012_e1a","JCD2012_e1a_10",1,"InvalidCue",5,1429.224,"Include",86
"JCD2012_e1a","JCD2012_e1a_10",1,"ValidCue",6,1744.27,"Include",251
"JCD2012_e1a","JCD2012_e1a_10",0,"ValidCue",5,2204.154,"Include",252
"JCD2012_e1a","JCD2012_e1a_10",1,"InvalidCue",6,1571.886,"Include",87
"JCD2012_e1a","JCD2012_e1a_10",0,"ValidCue",5,1417.462,"Include",253
"JCD2012_e1a","JCD2012_e1a_10",1,"ValidCue",6,2124.198,"Include",254
"JCD2012_e1a","JCD2012_e1a_10",1,"InvalidCue",5,1433.782,"Include",88
"JCD2012_e1a","JCD2012_e1a_10",0,"InvalidCue",2,1265.391,"Include",89
"JCD2012_e1a","JCD2012_e1a_10",1,"ValidCue",0,1459.294,"Exclude",255
"JCD2012_e1a","JCD2012_e1a_10",1,"ValidCue",6,1599.885,"Include",256
"JCD2012_e1a","JCD2012_e1a_10",1,"ValidCue",3,2002.934,"Include",257
"JCD2012_e1a","JCD2012_e1a_10",0,"ValidCue",3,1571.872,"Include",258
"JCD2012_e1a","JCD2012_e1a_10",1,"ValidCue",6,1264.16,"Include",259
"JCD2012_e1a","JCD2012_e1a_10",1,"ValidCue",6,1279.311,"Include",260
"JCD2012_e1a","JCD2012_e1a_10",0,"ValidCue",0,0.662142,"Exclude",261
"JCD2012_e1a","JCD2012_e1a_10",1,"ValidCue",6,1896.753,"Include",262
"JCD2012_e1a","JCD2012_e1a_10",0,"ValidCue",3,2842.172,"Include",263
"JCD2012_e1a","JCD2012_e1a_10",0,"ValidCue",3,1125.586,"Include",264
"JCD2012_e1a","JCD2012_e1a_10",1,"ValidCue",4,1491.157,"Include",265
"JCD2012_e1a","JCD2012_e1a_10",0,"ValidCue",3,2370.365,"Include",266
"JCD2012_e1a","JCD2012_e1a_10",0,"ValidCue",1,2119.842,"Include",267
"JCD2012_e1a","JCD2012_e1a_10",0,"ValidCue",3,3012.383,"Include",268
"JCD2012_e1a","JCD2012_e1a_10",0,"ValidCue",2,1306.493,"Include",269
"JCD2012_e1a","JCD2012_e1a_10",1,"ValidCue",4,1972.819,"Include",270
"JCD2012_e1a","JCD2012_e1a_10",1,"InvalidCue",2,1270.449,"Include",90
"JCD2012_e1a","JCD2012_e1a_11",0,"NoCue",5,7936.27,"Include",1
"JCD2012_e1a","JCD2012_e1a_11",1,"NoCue",6,1835.45,"Include",2
"JCD2012_e1a","JCD2012_e1a_11",0,"NoCue",2,2026.142,"Include",3
"JCD2012_e1a","JCD2012_e1a_11",0,"NoCue",2,1180.866,"Include",4
"JCD2012_e1a","JCD2012_e1a_11",1,"NoCue",6,1154.921,"Include",5
"JCD2012_e1a","JCD2012_e1a_11",1,"NoCue",6,789.0329,"Include",6
"JCD2012_e1a","JCD2012_e1a_11",1,"NoCue",6,742.2876,"Include",7
"JCD2012_e1a","JCD2012_e1a_11",0,"NoCue",1,1489.926,"Include",8
"JCD2012_e1a","JCD2012_e1a_11",0,"NoCue",2,1371.376,"Include",9
"JCD2012_e1a","JCD2012_e1a_11",1,"NoCue",6,1227.142,"Include",10
"JCD2012_e1a","JCD2012_e1a_11",1,"NoCue",6,1278.454,"Include",11
"JCD2012_e1a","JCD2012_e1a_11",0,"NoCue",1,1304.506,"Include",12
"JCD2012_e1a","JCD2012_e1a_11",1,"NoCue",3,2325.163,"Include",13
"JCD2012_e1a","JCD2012_e1a_11",1,"NoCue",4,2248.008,"Include",14
"JCD2012_e1a","JCD2012_e1a_11",1,"NoCue",4,1340.357,"Include",15
"JCD2012_e1a","JCD2012_e1a_11",1,"NoCue",6,928.0044,"Include",16
"JCD2012_e1a","JCD2012_e1a_11",1,"NoCue",6,1144.421,"Include",17
"JCD2012_e1a","JCD2012_e1a_11",0,"NoCue",2,1907.678,"Include",18
"JCD2012_e1a","JCD2012_e1a_11",0,"NoCue",3,984.7084,"Include",19
"JCD2012_e1a","JCD2012_e1a_11",1,"NoCue",4,2242.692,"Include",20
"JCD2012_e1a","JCD2012_e1a_11",1,"NoCue",5,1010.374,"Include",21
"JCD2012_e1a","JCD2012_e1a_11",1,"NoCue",4,2578.129,"Include",22
"JCD2012_e1a","JCD2012_e1a_11",0,"NoCue",2,3067.633,"Include",23
"JCD2012_e1a","JCD2012_e1a_11",0,"NoCue",1,979.6892,"Include",24
"JCD2012_e1a","JCD2012_e1a_11",0,"NoCue",1,1422.922,"Include",25
"JCD2012_e1a","JCD2012_e1a_11",0,"NoCue",2,1309.64,"Include",26
"JCD2012_e1a","JCD2012_e1a_11",0,"NoCue",3,1902.234,"Include",27
"JCD2012_e1a","JCD2012_e1a_11",0,"NoCue",2,1242.511,"Include",28
"JCD2012_e1a","JCD2012_e1a_11",1,"NoCue",6,1386.961,"Include",29
"JCD2012_e1a","JCD2012_e1a_11",0,"NoCue",3,2315.086,"Include",30
"JCD2012_e1a","JCD2012_e1a_11",0,"NoCue",3,737.2877,"Include",31
"JCD2012_e1a","JCD2012_e1a_11",1,"NoCue",2,1525.951,"Include",32
"JCD2012_e1a","JCD2012_e1a_11",1,"NoCue",5,2980.077,"Include",33
"JCD2012_e1a","JCD2012_e1a_11",1,"NoCue",6,902.2107,"Include",34
"JCD2012_e1a","JCD2012_e1a_11",0,"NoCue",2,1206.253,"Include",35
"JCD2012_e1a","JCD2012_e1a_11",0,"NoCue",1,1711.772,"Include",36
"JCD2012_e1a","JCD2012_e1a_11",1,"NoCue",4,3701.602,"Include",37
"JCD2012_e1a","JCD2012_e1a_11",1,"NoCue",6,835.1136,"Include",38
"JCD2012_e1a","JCD2012_e1a_11",0,"NoCue",1,1366.06,"Include",39
"JCD2012_e1a","JCD2012_e1a_11",0,"NoCue",2,912.4629,"Include",40
"JCD2012_e1a","JCD2012_e1a_11",1,"NoCue",3,1438.24,"Include",41
"JCD2012_e1a","JCD2012_e1a_11",0,"NoCue",3,855.6918,"Include",42
"JCD2012_e1a","JCD2012_e1a_11",0,"NoCue",2,1067.093,"Include",43
"JCD2012_e1a","JCD2012_e1a_11",0,"NoCue",2,665.0558,"Include",44
"JCD2012_e1a","JCD2012_e1a_11",1,"NoCue",3,1479.613,"Include",45
"JCD2012_e1a","JCD2012_e1a_11",0,"NoCue",2,866.1447,"Include",46
"JCD2012_e1a","JCD2012_e1a_11",1,"NoCue",6,1371.485,"Include",47
"JCD2012_e1a","JCD2012_e1a_11",1,"NoCue",6,654.6453,"Include",48
"JCD2012_e1a","JCD2012_e1a_11",0,"NoCue",2,1036.163,"Include",49
"JCD2012_e1a","JCD2012_e1a_11",0,"NoCue",2,763.263,"Include",50
"JCD2012_e1a","JCD2012_e1a_11",1,"NoCue",3,1324.805,"Include",51
"JCD2012_e1a","JCD2012_e1a_11",0,"NoCue",3,1000.201,"Include",52
"JCD2012_e1a","JCD2012_e1a_11",1,"NoCue",4,1577.854,"Include",53
"JCD2012_e1a","JCD2012_e1a_11",0,"NoCue",3,1020.732,"Include",54
"JCD2012_e1a","JCD2012_e1a_11",1,"NoCue",5,1247.669,"Include",55
"JCD2012_e1a","JCD2012_e1a_11",1,"NoCue",2,3233.157,"Include",56
"JCD2012_e1a","JCD2012_e1a_11",1,"NoCue",6,1211.602,"Include",57
"JCD2012_e1a","JCD2012_e1a_11",0,"NoCue",2,783.5628,"Include",58
"JCD2012_e1a","JCD2012_e1a_11",0,"NoCue",2,994.9937,"Include",59
"JCD2012_e1a","JCD2012_e1a_11",1,"NoCue",6,747.724,"Include",60
"JCD2012_e1a","JCD2012_e1a_11",1,"NoCue",2,804.0826,"Include",61
"JCD2012_e1a","JCD2012_e1a_11",0,"NoCue",2,561.8725,"Include",62
"JCD2012_e1a","JCD2012_e1a_11",0,"NoCue",1,757.774,"Include",63
"JCD2012_e1a","JCD2012_e1a_11",1,"NoCue",5,1371.577,"Include",64
"JCD2012_e1a","JCD2012_e1a_11",0,"NoCue",2,850.6793,"Include",65
"JCD2012_e1a","JCD2012_e1a_11",1,"NoCue",5,1500.363,"Include",66
"JCD2012_e1a","JCD2012_e1a_11",0,"NoCue",2,850.6614,"Include",67
"JCD2012_e1a","JCD2012_e1a_11",1,"NoCue",6,1716.834,"Include",68
"JCD2012_e1a","JCD2012_e1a_11",1,"NoCue",6,804.136,"Include",69
"JCD2012_e1a","JCD2012_e1a_11",1,"NoCue",6,618.5861,"Include",70
"JCD2012_e1a","JCD2012_e1a_11",1,"NoCue",6,2087.99,"Include",71
"JCD2012_e1a","JCD2012_e1a_11",1,"NoCue",4,4120.071,"Include",72
"JCD2012_e1a","JCD2012_e1a_11",1,"NoCue",3,1314.482,"Include",73
"JCD2012_e1a","JCD2012_e1a_11",0,"NoCue",3,891.853,"Include",74
"JCD2012_e1a","JCD2012_e1a_11",0,"NoCue",2,2098.245,"Include",75
"JCD2012_e1a","JCD2012_e1a_11",0,"NoCue",3,814.5153,"Include",76
"JCD2012_e1a","JCD2012_e1a_11",0,"NoCue",3,690.761,"Include",77
"JCD2012_e1a","JCD2012_e1a_11",0,"NoCue",2,881.5023,"Include",78
"JCD2012_e1a","JCD2012_e1a_11",0,"NoCue",2,793.9012,"Include",79
"JCD2012_e1a","JCD2012_e1a_11",1,"NoCue",4,1201.211,"Include",80
"JCD2012_e1a","JCD2012_e1a_11",0,"NoCue",3,1268.071,"Include",81
"JCD2012_e1a","JCD2012_e1a_11",0,"NoCue",2,881.5361,"Include",82
"JCD2012_e1a","JCD2012_e1a_11",1,"NoCue",3,1381.648,"Include",83
"JCD2012_e1a","JCD2012_e1a_11",1,"NoCue",3,2247.983,"Include",84
"JCD2012_e1a","JCD2012_e1a_11",0,"NoCue",3,922.6368,"Include",85
"JCD2012_e1a","JCD2012_e1a_11",0,"NoCue",3,603.0868,"Include",86
"JCD2012_e1a","JCD2012_e1a_11",0,"NoCue",3,577.3188,"Include",87
"JCD2012_e1a","JCD2012_e1a_11",0,"NoCue",2,628.8894,"Include",88
"JCD2012_e1a","JCD2012_e1a_11",1,"NoCue",4,2103.311,"Include",89
"JCD2012_e1a","JCD2012_e1a_11",1,"NoCue",4,1690.933,"Include",90
"JCD2012_e1a","JCD2012_e1a_11",1,"NoCue",2,2134.528,"Include",91
"JCD2012_e1a","JCD2012_e1a_11",0,"NoCue",3,1355.816,"Include",92
"JCD2012_e1a","JCD2012_e1a_11",1,"NoCue",4,2484.993,"Include",93
"JCD2012_e1a","JCD2012_e1a_11",0,"NoCue",2,1613.697,"Include",94
"JCD2012_e1a","JCD2012_e1a_11",1,"NoCue",4,1706.633,"Include",95
"JCD2012_e1a","JCD2012_e1a_11",0,"NoCue",4,1335.306,"Include",96
"JCD2012_e1a","JCD2012_e1a_11",0,"NoCue",3,680.4367,"Include",97
"JCD2012_e1a","JCD2012_e1a_11",0,"NoCue",2,2933.527,"Include",98
"JCD2012_e1a","JCD2012_e1a_11",0,"NoCue",2,1319.762,"Include",99
"JCD2012_e1a","JCD2012_e1a_11",0,"NoCue",2,525.746,"Include",100
"JCD2012_e1a","JCD2012_e1a_11",1,"NoCue",2,582.4293,"Include",101
"JCD2012_e1a","JCD2012_e1a_11",0,"NoCue",2,608.2333,"Include",102
"JCD2012_e1a","JCD2012_e1a_11",1,"NoCue",2,1299.17,"Include",103
"JCD2012_e1a","JCD2012_e1a_11",0,"NoCue",2,546.4202,"Include",104
"JCD2012_e1a","JCD2012_e1a_11",1,"NoCue",6,2712.021,"Include",105
"JCD2012_e1a","JCD2012_e1a_11",0,"NoCue",2,912.39,"Include",106
"JCD2012_e1a","JCD2012_e1a_11",1,"NoCue",3,1221.726,"Include",107
"JCD2012_e1a","JCD2012_e1a_11",0,"NoCue",3,675.3204,"Include",108
"JCD2012_e1a","JCD2012_e1a_11",1,"NoCue",6,1092.924,"Include",109
"JCD2012_e1a","JCD2012_e1a_11",0,"NoCue",2,994.8865,"Include",110
"JCD2012_e1a","JCD2012_e1a_11",1,"NoCue",2,1098.114,"Include",111
"JCD2012_e1a","JCD2012_e1a_11",1,"NoCue",4,4820.612,"Include",112
"JCD2012_e1a","JCD2012_e1a_11",1,"NoCue",6,1082.601,"Include",113
"JCD2012_e1a","JCD2012_e1a_11",1,"NoCue",6,644.3117,"Include",114
"JCD2012_e1a","JCD2012_e1a_11",1,"NoCue",6,659.8749,"Include",115
"JCD2012_e1a","JCD2012_e1a_11",1,"NoCue",3,1170.165,"Include",116
"JCD2012_e1a","JCD2012_e1a_11",1,"NoCue",3,850.5116,"Include",117
"JCD2012_e1a","JCD2012_e1a_11",1,"NoCue",3,623.6973,"Include",118
"JCD2012_e1a","JCD2012_e1a_11",0,"NoCue",2,793.7622,"Include",119
"JCD2012_e1a","JCD2012_e1a_11",0,"NoCue",2,757.652,"Include",120
"JCD2012_e1a","JCD2012_e1a_11",1,"ValidCue",5,3217.033,"Include",1
"JCD2012_e1a","JCD2012_e1a_11",1,"ValidCue",5,1005.301,"Include",2
"JCD2012_e1a","JCD2012_e1a_11",0,"InvalidCue",3,2557.038,"Include",1
"JCD2012_e1a","JCD2012_e1a_11",1,"ValidCue",4,1701.358,"Include",3
"JCD2012_e1a","JCD2012_e1a_11",1,"ValidCue",5,1886.964,"Include",4
"JCD2012_e1a","JCD2012_e1a_11",1,"InvalidCue",3,1175.39,"Include",2
"JCD2012_e1a","JCD2012_e1a_11",0,"InvalidCue",3,4340.934,"Include",3
"JCD2012_e1a","JCD2012_e1a_11",1,"ValidCue",6,1216.977,"Include",5
"JCD2012_e1a","JCD2012_e1a_11",1,"InvalidCue",6,2866.853,"Include",4
"JCD2012_e1a","JCD2012_e1a_11",1,"ValidCue",4,2907.713,"Include",6
"JCD2012_e1a","JCD2012_e1a_11",0,"ValidCue",2,2279.142,"Include",7
"JCD2012_e1a","JCD2012_e1a_11",0,"ValidCue",1,1005.289,"Include",8
"JCD2012_e1a","JCD2012_e1a_11",0,"InvalidCue",4,1330.001,"Include",5
"JCD2012_e1a","JCD2012_e1a_11",1,"InvalidCue",3,11234.64,"Include",6
"JCD2012_e1a","JCD2012_e1a_11",0,"ValidCue",1,1324.793,"Include",9
"JCD2012_e1a","JCD2012_e1a_11",0,"ValidCue",1,639.3526,"Include",10
"JCD2012_e1a","JCD2012_e1a_11",0,"ValidCue",1,989.9285,"Include",11
"JCD2012_e1a","JCD2012_e1a_11",0,"InvalidCue",4,1474.393,"Include",7
"JCD2012_e1a","JCD2012_e1a_11",0,"ValidCue",3,2438.496,"Include",12
"JCD2012_e1a","JCD2012_e1a_11",1,"ValidCue",6,2366.447,"Include",13
"JCD2012_e1a","JCD2012_e1a_11",0,"InvalidCue",3,2376.68,"Include",8
"JCD2012_e1a","JCD2012_e1a_11",1,"ValidCue",6,1319.809,"Include",14
"JCD2012_e1a","JCD2012_e1a_11",1,"ValidCue",5,2521.145,"Include",15
"JCD2012_e1a","JCD2012_e1a_11",0,"ValidCue",2,3021.13,"Include",16
"JCD2012_e1a","JCD2012_e1a_11",0,"ValidCue",1,793.844,"Include",17
"JCD2012_e1a","JCD2012_e1a_11",1,"InvalidCue",6,4243.298,"Include",9
"JCD2012_e1a","JCD2012_e1a_11",1,"ValidCue",6,1263.073,"Include",18
"JCD2012_e1a","JCD2012_e1a_11",1,"InvalidCue",6,6749.075,"Include",10
"JCD2012_e1a","JCD2012_e1a_11",1,"ValidCue",6,5263.863,"Include",19
"JCD2012_e1a","JCD2012_e1a_11",1,"ValidCue",6,711.484,"Include",20
"JCD2012_e1a","JCD2012_e1a_11",0,"InvalidCue",1,1340.453,"Include",11
"JCD2012_e1a","JCD2012_e1a_11",0,"ValidCue",1,835.1264,"Include",21
"JCD2012_e1a","JCD2012_e1a_11",1,"ValidCue",4,2871.605,"Include",22
"JCD2012_e1a","JCD2012_e1a_11",1,"ValidCue",4,2098.318,"Include",23
"JCD2012_e1a","JCD2012_e1a_11",1,"ValidCue",5,2005.805,"Include",24
"JCD2012_e1a","JCD2012_e1a_11",1,"ValidCue",5,1005.257,"Include",25
"JCD2012_e1a","JCD2012_e1a_11",1,"InvalidCue",4,1587.784,"Include",12
"JCD2012_e1a","JCD2012_e1a_11",0,"ValidCue",2,1696.2,"Include",26
"JCD2012_e1a","JCD2012_e1a_11",1,"ValidCue",3,3294.51,"Include",27
"JCD2012_e1a","JCD2012_e1a_11",0,"ValidCue",3,4923.788,"Include",28
"JCD2012_e1a","JCD2012_e1a_11",0,"ValidCue",2,881.6984,"Include",29
"JCD2012_e1a","JCD2012_e1a_11",1,"ValidCue",4,7063.958,"Include",30
"JCD2012_e1a","JCD2012_e1a_11",1,"InvalidCue",5,2165.251,"Include",13
"JCD2012_e1a","JCD2012_e1a_11",0,"ValidCue",2,4340.915,"Include",31
"JCD2012_e1a","JCD2012_e1a_11",1,"ValidCue",4,1056.865,"Include",32
"JCD2012_e1a","JCD2012_e1a_11",0,"ValidCue",3,1464.176,"Include",33
"JCD2012_e1a","JCD2012_e1a_11",0,"ValidCue",2,1623.866,"Include",34
"JCD2012_e1a","JCD2012_e1a_11",1,"ValidCue",4,1644.546,"Include",35
"JCD2012_e1a","JCD2012_e1a_11",1,"ValidCue",5,948.5134,"Include",36
"JCD2012_e1a","JCD2012_e1a_11",0,"ValidCue",3,768.0825,"Include",37
"JCD2012_e1a","JCD2012_e1a_11",0,"ValidCue",2,824.7926,"Include",38
"JCD2012_e1a","JCD2012_e1a_11",0,"InvalidCue",4,964.012,"Include",14
"JCD2012_e1a","JCD2012_e1a_11",0,"ValidCue",2,1159.949,"Include",39
"JCD2012_e1a","JCD2012_e1a_11",1,"ValidCue",5,1015.637,"Include",40
"JCD2012_e1a","JCD2012_e1a_11",0,"ValidCue",2,778.344,"Include",41
"JCD2012_e1a","JCD2012_e1a_11",1,"ValidCue",4,1165.11,"Include",42
"JCD2012_e1a","JCD2012_e1a_11",0,"InvalidCue",3,2928.487,"Include",15
"JCD2012_e1a","JCD2012_e1a_11",0,"ValidCue",2,1804.664,"Include",43
"JCD2012_e1a","JCD2012_e1a_11",0,"ValidCue",2,1448.593,"Include",44
"JCD2012_e1a","JCD2012_e1a_11",0,"ValidCue",2,1128.977,"Include",45
"JCD2012_e1a","JCD2012_e1a_11",0,"ValidCue",2,896.8967,"Include",46
"JCD2012_e1a","JCD2012_e1a_11",1,"ValidCue",4,2758.419,"Include",47
"JCD2012_e1a","JCD2012_e1a_11",0,"ValidCue",3,1103.208,"Include",48
"JCD2012_e1a","JCD2012_e1a_11",1,"InvalidCue",3,1175.461,"Include",16
"JCD2012_e1a","JCD2012_e1a_11",0,"ValidCue",2,1190.894,"Include",49
"JCD2012_e1a","JCD2012_e1a_11",0,"ValidCue",3,1639.535,"Include",50
"JCD2012_e1a","JCD2012_e1a_11",1,"ValidCue",6,1103.266,"Include",51
"JCD2012_e1a","JCD2012_e1a_11",0,"ValidCue",2,896.9391,"Include",52
"JCD2012_e1a","JCD2012_e1a_11",1,"ValidCue",4,1108.481,"Include",53
"JCD2012_e1a","JCD2012_e1a_11",0,"InvalidCue",3,1448.626,"Include",17
"JCD2012_e1a","JCD2012_e1a_11",1,"InvalidCue",5,1825.069,"Include",18
"JCD2012_e1a","JCD2012_e1a_11",1,"ValidCue",6,2644.812,"Include",54
"JCD2012_e1a","JCD2012_e1a_11",1,"InvalidCue",6,2985.002,"Include",19
"JCD2012_e1a","JCD2012_e1a_11",0,"ValidCue",1,2361.287,"Include",55
"JCD2012_e1a","JCD2012_e1a_11",0,"InvalidCue",4,2613.793,"Include",20
"JCD2012_e1a","JCD2012_e1a_11",0,"ValidCue",3,2634.439,"Include",56
"JCD2012_e1a","JCD2012_e1a_11",1,"ValidCue",5,1345.446,"Include",57
"JCD2012_e1a","JCD2012_e1a_11",1,"ValidCue",3,1562.019,"Include",58
"JCD2012_e1a","JCD2012_e1a_11",0,"InvalidCue",3,912.5015,"Include",21
"JCD2012_e1a","JCD2012_e1a_11",0,"ValidCue",2,1345.477,"Include",59
"JCD2012_e1a","JCD2012_e1a_11",0,"ValidCue",2,866.2131,"Include",60
"JCD2012_e1a","JCD2012_e1a_11",1,"ValidCue",4,1623.955,"Include",61
"JCD2012_e1a","JCD2012_e1a_11",0,"InvalidCue",3,3562.811,"Include",22
"JCD2012_e1a","JCD2012_e1a_11",1,"ValidCue",4,2309.904,"Include",62
"JCD2012_e1a","JCD2012_e1a_11",1,"ValidCue",3,1061.922,"Include",63
"JCD2012_e1a","JCD2012_e1a_11",0,"ValidCue",3,3098.812,"Include",64
"JCD2012_e1a","JCD2012_e1a_11",1,"ValidCue",3,1660.027,"Include",65
"JCD2012_e1a","JCD2012_e1a_11",0,"ValidCue",3,989.9624,"Include",66
"JCD2012_e1a","JCD2012_e1a_11",1,"ValidCue",4,922.8053,"Include",67
"JCD2012_e1a","JCD2012_e1a_11",1,"ValidCue",5,958.9527,"Include",68
"JCD2012_e1a","JCD2012_e1a_11",1,"ValidCue",4,1629.114,"Include",69
"JCD2012_e1a","JCD2012_e1a_11",0,"ValidCue",3,1835.447,"Include",70
"JCD2012_e1a","JCD2012_e1a_11",0,"ValidCue",2,1046.466,"Include",71
"JCD2012_e1a","JCD2012_e1a_11",0,"ValidCue",3,799.2236,"Include",72
"JCD2012_e1a","JCD2012_e1a_11",0,"ValidCue",2,773.5498,"Include",73
"JCD2012_e1a","JCD2012_e1a_11",0,"ValidCue",2,664.9907,"Include",74
"JCD2012_e1a","JCD2012_e1a_11",0,"InvalidCue",3,1861.303,"Include",23
"JCD2012_e1a","JCD2012_e1a_11",0,"ValidCue",3,1510.587,"Include",75
"JCD2012_e1a","JCD2012_e1a_11",0,"ValidCue",3,783.4791,"Include",76
"JCD2012_e1a","JCD2012_e1a_11",0,"ValidCue",3,639.3171,"Include",77
"JCD2012_e1a","JCD2012_e1a_11",1,"ValidCue",5,804.164,"Include",78
"JCD2012_e1a","JCD2012_e1a_11",1,"ValidCue",4,1453.897,"Include",79
"JCD2012_e1a","JCD2012_e1a_11",1,"ValidCue",5,1046.546,"Include",80
"JCD2012_e1a","JCD2012_e1a_11",1,"ValidCue",6,804.2753,"Include",81
"JCD2012_e1a","JCD2012_e1a_11",1,"InvalidCue",5,2691.248,"Include",24
"JCD2012_e1a","JCD2012_e1a_11",1,"InvalidCue",4,1593.256,"Include",25
"JCD2012_e1a","JCD2012_e1a_11",1,"InvalidCue",6,979.5031,"Include",26
"JCD2012_e1a","JCD2012_e1a_11",1,"ValidCue",6,1825.283,"Include",82
"JCD2012_e1a","JCD2012_e1a_11",1,"ValidCue",3,1015.509,"Include",83
"JCD2012_e1a","JCD2012_e1a_11",0,"ValidCue",2,912.7654,"Include",84
"JCD2012_e1a","JCD2012_e1a_11",0,"ValidCue",3,644.3232,"Include",85
"JCD2012_e1a","JCD2012_e1a_11",1,"InvalidCue",3,1861.199,"Include",27
"JCD2012_e1a","JCD2012_e1a_11",0,"ValidCue",2,3155.346,"Include",86
"JCD2012_e1a","JCD2012_e1a_11",1,"ValidCue",6,1345.576,"Include",87
"JCD2012_e1a","JCD2012_e1a_11",0,"ValidCue",3,881.4944,"Include",88
"JCD2012_e1a","JCD2012_e1a_11",1,"InvalidCue",3,840.4228,"Include",28
"JCD2012_e1a","JCD2012_e1a_11",1,"ValidCue",6,1046.475,"Include",89
"JCD2012_e1a","JCD2012_e1a_11",0,"InvalidCue",3,2639.945,"Include",29
"JCD2012_e1a","JCD2012_e1a_11",0,"InvalidCue",3,1056.789,"Include",30
"JCD2012_e1a","JCD2012_e1a_11",1,"ValidCue",4,1314.744,"Include",90
"JCD2012_e1a","JCD2012_e1a_11",0,"InvalidCue",3,2350.955,"Include",31
"JCD2012_e1a","JCD2012_e1a_11",0,"ValidCue",3,1360.949,"Include",91
"JCD2012_e1a","JCD2012_e1a_11",1,"ValidCue",5,902.2115,"Include",92
"JCD2012_e1a","JCD2012_e1a_11",1,"ValidCue",4,1237.299,"Include",93
"JCD2012_e1a","JCD2012_e1a_11",0,"ValidCue",3,1046.519,"Include",94
"JCD2012_e1a","JCD2012_e1a_11",1,"InvalidCue",5,1170.186,"Include",32
"JCD2012_e1a","JCD2012_e1a_11",1,"ValidCue",4,1386.73,"Include",95
"JCD2012_e1a","JCD2012_e1a_11",1,"ValidCue",5,1216.689,"Include",96
"JCD2012_e1a","JCD2012_e1a_11",1,"ValidCue",4,716.6962,"Include",97
"JCD2012_e1a","JCD2012_e1a_11",0,"InvalidCue",3,794.0802,"Include",33
"JCD2012_e1a","JCD2012_e1a_11",0,"ValidCue",2,974.5099,"Include",98
"JCD2012_e1a","JCD2012_e1a_11",0,"ValidCue",4,1175.329,"Include",99
"JCD2012_e1a","JCD2012_e1a_11",1,"ValidCue",4,1665.197,"Include",100
"JCD2012_e1a","JCD2012_e1a_11",1,"InvalidCue",5,3392.337,"Include",34
"JCD2012_e1a","JCD2012_e1a_11",1,"ValidCue",3,3206.889,"Include",101
"JCD2012_e1a","JCD2012_e1a_11",0,"ValidCue",3,896.95,"Include",102
"JCD2012_e1a","JCD2012_e1a_11",0,"InvalidCue",4,1515.825,"Include",35
"JCD2012_e1a","JCD2012_e1a_11",0,"InvalidCue",4,1005.358,"Include",36
"JCD2012_e1a","JCD2012_e1a_11",0,"ValidCue",3,1067.127,"Include",103
"JCD2012_e1a","JCD2012_e1a_11",1,"ValidCue",6,886.6827,"Include",104
"JCD2012_e1a","JCD2012_e1a_11",0,"InvalidCue",4,1123.755,"Include",37
"JCD2012_e1a","JCD2012_e1a_11",0,"ValidCue",2,1123.795,"Include",105
"JCD2012_e1a","JCD2012_e1a_11",0,"ValidCue",2,757.8236,"Include",106
"JCD2012_e1a","JCD2012_e1a_11",1,"ValidCue",4,1613.559,"Include",107
"JCD2012_e1a","JCD2012_e1a_11",0,"ValidCue",3,1371.311,"Include",108
"JCD2012_e1a","JCD2012_e1a_11",0,"ValidCue",2,1314.771,"Include",109
"JCD2012_e1a","JCD2012_e1a_11",1,"ValidCue",6,1067.13,"Include",110
"JCD2012_e1a","JCD2012_e1a_11",1,"ValidCue",4,1092.897,"Include",111
"JCD2012_e1a","JCD2012_e1a_11",0,"ValidCue",3,861.0419,"Include",112
"JCD2012_e1a","JCD2012_e1a_11",1,"ValidCue",4,2170.561,"Include",113
"JCD2012_e1a","JCD2012_e1a_11",1,"ValidCue",4,3222.433,"Include",114
"JCD2012_e1a","JCD2012_e1a_11",0,"ValidCue",3,675.2975,"Include",115
"JCD2012_e1a","JCD2012_e1a_11",1,"ValidCue",6,1015.481,"Include",116
"JCD2012_e1a","JCD2012_e1a_11",0,"ValidCue",3,788.7265,"Include",117
"JCD2012_e1a","JCD2012_e1a_11",0,"ValidCue",3,1335.351,"Include",118
"JCD2012_e1a","JCD2012_e1a_11",1,"ValidCue",4,1263.186,"Include",119
"JCD2012_e1a","JCD2012_e1a_11",1,"InvalidCue",6,1129.052,"Include",38
"JCD2012_e1a","JCD2012_e1a_11",1,"ValidCue",6,1010.482,"Include",120
"JCD2012_e1a","JCD2012_e1a_11",1,"InvalidCue",6,1072.271,"Include",39
"JCD2012_e1a","JCD2012_e1a_11",1,"InvalidCue",3,2459.146,"Include",40
"JCD2012_e1a","JCD2012_e1a_11",0,"ValidCue",3,953.718,"Include",121
"JCD2012_e1a","JCD2012_e1a_11",0,"InvalidCue",2,840.383,"Include",41
"JCD2012_e1a","JCD2012_e1a_11",0,"ValidCue",2,1082.574,"Include",122
"JCD2012_e1a","JCD2012_e1a_11",1,"ValidCue",4,1634.185,"Include",123
"JCD2012_e1a","JCD2012_e1a_11",1,"ValidCue",3,1392.016,"Include",124
"JCD2012_e1a","JCD2012_e1a_11",0,"ValidCue",3,788.7054,"Include",125
"JCD2012_e1a","JCD2012_e1a_11",0,"ValidCue",1,994.9969,"Include",126
"JCD2012_e1a","JCD2012_e1a_11",0,"ValidCue",2,969.1943,"Include",127
"JCD2012_e1a","JCD2012_e1a_11",1,"ValidCue",5,969.1843,"Include",128
"JCD2012_e1a","JCD2012_e1a_11",0,"InvalidCue",3,2031.363,"Include",42
"JCD2012_e1a","JCD2012_e1a_11",1,"InvalidCue",3,881.4888,"Include",43
"JCD2012_e1a","JCD2012_e1a_11",1,"ValidCue",4,1087.714,"Include",129
"JCD2012_e1a","JCD2012_e1a_11",0,"ValidCue",1,2016.036,"Include",130
"JCD2012_e1a","JCD2012_e1a_11",1,"ValidCue",3,1355.909,"Include",131
"JCD2012_e1a","JCD2012_e1a_11",0,"ValidCue",3,1025.926,"Include",132
"JCD2012_e1a","JCD2012_e1a_11",1,"ValidCue",4,1469.354,"Include",133
"JCD2012_e1a","JCD2012_e1a_11",0,"ValidCue",3,1139.539,"Include",134
"JCD2012_e1a","JCD2012_e1a_11",1,"ValidCue",6,1175.738,"Include",135
"JCD2012_e1a","JCD2012_e1a_11",0,"ValidCue",2,979.479,"Include",136
"JCD2012_e1a","JCD2012_e1a_11",0,"InvalidCue",4,927.942,"Include",44
"JCD2012_e1a","JCD2012_e1a_11",1,"ValidCue",4,1010.316,"Include",137
"JCD2012_e1a","JCD2012_e1a_11",0,"ValidCue",3,762.9241,"Include",138
"JCD2012_e1a","JCD2012_e1a_11",1,"InvalidCue",4,2345.715,"Include",45
"JCD2012_e1a","JCD2012_e1a_11",0,"ValidCue",3,1278.633,"Include",139
"JCD2012_e1a","JCD2012_e1a_11",1,"ValidCue",6,974.3278,"Include",140
"JCD2012_e1a","JCD2012_e1a_11",1,"InvalidCue",3,1278.505,"Include",46
"JCD2012_e1a","JCD2012_e1a_11",1,"ValidCue",3,1170.279,"Include",141
"JCD2012_e1a","JCD2012_e1a_11",0,"ValidCue",3,1283.765,"Include",142
"JCD2012_e1a","JCD2012_e1a_11",0,"InvalidCue",3,716.5465,"Include",47
"JCD2012_e1a","JCD2012_e1a_11",0,"ValidCue",4,814.4308,"Include",143
"JCD2012_e1a","JCD2012_e1a_11",1,"ValidCue",4,2371.506,"Include",144
"JCD2012_e1a","JCD2012_e1a_11",0,"InvalidCue",3,1438.297,"Include",48
"JCD2012_e1a","JCD2012_e1a_11",0,"InvalidCue",3,1443.484,"Include",49
"JCD2012_e1a","JCD2012_e1a_11",1,"ValidCue",4,22758.3,"Include",145
"JCD2012_e1a","JCD2012_e1a_11",0,"InvalidCue",3,1711.778,"Include",50
"JCD2012_e1a","JCD2012_e1a_11",0,"InvalidCue",3,1654.849,"Include",51
"JCD2012_e1a","JCD2012_e1a_11",1,"ValidCue",6,1046.549,"Include",146
"JCD2012_e1a","JCD2012_e1a_11",0,"ValidCue",3,1660.021,"Include",147
"JCD2012_e1a","JCD2012_e1a_11",0,"ValidCue",3,1268.198,"Include",148
"JCD2012_e1a","JCD2012_e1a_11",0,"ValidCue",3,2191.076,"Include",149
"JCD2012_e1a","JCD2012_e1a_11",0,"ValidCue",2,881.4518,"Include",150
"JCD2012_e1a","JCD2012_e1a_11",0,"ValidCue",2,948.5788,"Include",151
"JCD2012_e1a","JCD2012_e1a_11",0,"ValidCue",2,979.4829,"Include",152
"JCD2012_e1a","JCD2012_e1a_11",0,"ValidCue",2,598.032,"Include",153
"JCD2012_e1a","JCD2012_e1a_11",0,"ValidCue",2,618.8867,"Include",154
"JCD2012_e1a","JCD2012_e1a_11",1,"ValidCue",4,762.8822,"Include",155
"JCD2012_e1a","JCD2012_e1a_11",1,"ValidCue",3,1510.602,"Include",156
"JCD2012_e1a","JCD2012_e1a_11",1,"ValidCue",4,1732.427,"Include",157
"JCD2012_e1a","JCD2012_e1a_11",0,"ValidCue",3,737.4387,"Include",158
"JCD2012_e1a","JCD2012_e1a_11",1,"InvalidCue",2,871.681,"Include",52
"JCD2012_e1a","JCD2012_e1a_11",1,"InvalidCue",4,1201.289,"Include",53
"JCD2012_e1a","JCD2012_e1a_11",1,"ValidCue",5,1175.346,"Include",159
"JCD2012_e1a","JCD2012_e1a_11",1,"ValidCue",5,2959.406,"Include",160
"JCD2012_e1a","JCD2012_e1a_11",1,"InvalidCue",5,2799.501,"Include",54
"JCD2012_e1a","JCD2012_e1a_11",0,"ValidCue",2,902.1367,"Include",161
"JCD2012_e1a","JCD2012_e1a_11",0,"ValidCue",3,762.9992,"Include",162
"JCD2012_e1a","JCD2012_e1a_11",1,"InvalidCue",3,1325.157,"Include",55
"JCD2012_e1a","JCD2012_e1a_11",0,"ValidCue",2,2010.685,"Include",163
"JCD2012_e1a","JCD2012_e1a_11",0,"ValidCue",2,891.7999,"Include",164
"JCD2012_e1a","JCD2012_e1a_11",1,"ValidCue",4,958.8514,"Include",165
"JCD2012_e1a","JCD2012_e1a_11",1,"ValidCue",6,1113.496,"Include",166
"JCD2012_e1a","JCD2012_e1a_11",0,"ValidCue",2,701.2531,"Include",167
"JCD2012_e1a","JCD2012_e1a_11",0,"ValidCue",3,1479.626,"Include",168
"JCD2012_e1a","JCD2012_e1a_11",0,"ValidCue",2,695.9921,"Include",169
"JCD2012_e1a","JCD2012_e1a_11",0,"ValidCue",2,1051.641,"Include",170
"JCD2012_e1a","JCD2012_e1a_11",1,"ValidCue",4,1149.928,"Include",171
"JCD2012_e1a","JCD2012_e1a_11",1,"ValidCue",6,1098.22,"Include",172
"JCD2012_e1a","JCD2012_e1a_11",1,"ValidCue",6,675.2598,"Include",173
"JCD2012_e1a","JCD2012_e1a_11",1,"InvalidCue",2,1103.35,"Include",56
"JCD2012_e1a","JCD2012_e1a_11",1,"InvalidCue",4,2552.021,"Include",57
"JCD2012_e1a","JCD2012_e1a_11",1,"ValidCue",3,1041.354,"Include",174
"JCD2012_e1a","JCD2012_e1a_11",0,"InvalidCue",4,3526.454,"Include",58
"JCD2012_e1a","JCD2012_e1a_11",0,"ValidCue",3,1221.754,"Include",175
"JCD2012_e1a","JCD2012_e1a_11",1,"ValidCue",4,1098.069,"Include",176
"JCD2012_e1a","JCD2012_e1a_11",1,"ValidCue",5,902.2664,"Include",177
"JCD2012_e1a","JCD2012_e1a_11",1,"InvalidCue",3,1082.627,"Include",59
"JCD2012_e1a","JCD2012_e1a_11",1,"ValidCue",5,845.473,"Include",178
"JCD2012_e1a","JCD2012_e1a_11",0,"InvalidCue",2,871.3311,"Include",60
"JCD2012_e1a","JCD2012_e1a_11",1,"ValidCue",4,1118.659,"Include",179
"JCD2012_e1a","JCD2012_e1a_11",1,"ValidCue",6,1072.459,"Include",180
"JCD2012_e1a","JCD2012_e1a_11",0,"ValidCue",2,912.4432,"Include",181
"JCD2012_e1a","JCD2012_e1a_11",0,"InvalidCue",3,2490.192,"Include",61
"JCD2012_e1a","JCD2012_e1a_11",1,"ValidCue",6,902.0992,"Include",182
"JCD2012_e1a","JCD2012_e1a_11",1,"ValidCue",5,1191.135,"Include",183
"JCD2012_e1a","JCD2012_e1a_11",0,"ValidCue",3,726.8501,"Include",184
"JCD2012_e1a","JCD2012_e1a_11",1,"ValidCue",6,876.2629,"Include",185
"JCD2012_e1a","JCD2012_e1a_11",0,"ValidCue",2,1232.043,"Include",186
"JCD2012_e1a","JCD2012_e1a_11",0,"ValidCue",2,1288.959,"Include",187
"JCD2012_e1a","JCD2012_e1a_11",1,"InvalidCue",2,814.4506,"Include",62
"JCD2012_e1a","JCD2012_e1a_11",1,"ValidCue",6,948.5271,"Include",188
"JCD2012_e1a","JCD2012_e1a_11",1,"ValidCue",6,618.5457,"Include",189
"JCD2012_e1a","JCD2012_e1a_11",0,"ValidCue",3,979.5161,"Include",190
"JCD2012_e1a","JCD2012_e1a_11",1,"ValidCue",4,1283.664,"Include",191
"JCD2012_e1a","JCD2012_e1a_11",0,"ValidCue",2,1582.777,"Include",192
"JCD2012_e1a","JCD2012_e1a_11",1,"InvalidCue",4,1257.983,"Include",63
"JCD2012_e1a","JCD2012_e1a_11",1,"InvalidCue",5,1108.34,"Include",64
"JCD2012_e1a","JCD2012_e1a_11",0,"ValidCue",3,845.4895,"Include",193
"JCD2012_e1a","JCD2012_e1a_11",1,"InvalidCue",3,1386.701,"Include",65
"JCD2012_e1a","JCD2012_e1a_11",0,"ValidCue",2,1025.835,"Include",194
"JCD2012_e1a","JCD2012_e1a_11",1,"ValidCue",5,773.195,"Include",195
"JCD2012_e1a","JCD2012_e1a_11",0,"ValidCue",3,840.3499,"Include",196
"JCD2012_e1a","JCD2012_e1a_11",0,"InvalidCue",4,932.96,"Include",66
"JCD2012_e1a","JCD2012_e1a_11",1,"ValidCue",4,1685.988,"Include",197
"JCD2012_e1a","JCD2012_e1a_11",1,"ValidCue",4,1149.618,"Include",198
"JCD2012_e1a","JCD2012_e1a_11",0,"ValidCue",3,861.1679,"Include",199
"JCD2012_e1a","JCD2012_e1a_11",0,"ValidCue",3,1041.51,"Include",200
"JCD2012_e1a","JCD2012_e1a_11",0,"ValidCue",3,1722.058,"Include",201
"JCD2012_e1a","JCD2012_e1a_11",1,"ValidCue",3,3237.983,"Include",202
"JCD2012_e1a","JCD2012_e1a_11",0,"ValidCue",3,1025.835,"Include",203
"JCD2012_e1a","JCD2012_e1a_11",0,"ValidCue",3,1319.796,"Include",204
"JCD2012_e1a","JCD2012_e1a_11",1,"ValidCue",5,819.5858,"Include",205
"JCD2012_e1a","JCD2012_e1a_11",0,"InvalidCue",4,871.2076,"Include",67
"JCD2012_e1a","JCD2012_e1a_11",0,"ValidCue",2,1108.445,"Include",206
"JCD2012_e1a","JCD2012_e1a_11",1,"ValidCue",5,928.0375,"Include",207
"JCD2012_e1a","JCD2012_e1a_11",0,"ValidCue",3,798.9891,"Include",208
"JCD2012_e1a","JCD2012_e1a_11",1,"ValidCue",5,1165.187,"Include",209
"JCD2012_e1a","JCD2012_e1a_11",1,"InvalidCue",4,1283.867,"Include",68
"JCD2012_e1a","JCD2012_e1a_11",1,"ValidCue",4,1072.369,"Include",210
"JCD2012_e1a","JCD2012_e1a_11",1,"InvalidCue",4,1237.36,"Include",69
"JCD2012_e1a","JCD2012_e1a_11",0,"ValidCue",3,871.2777,"Include",211
"JCD2012_e1a","JCD2012_e1a_11",1,"ValidCue",6,1165.136,"Include",212
"JCD2012_e1a","JCD2012_e1a_11",1,"ValidCue",5,933.1521,"Include",213
"JCD2012_e1a","JCD2012_e1a_11",0,"ValidCue",3,938.4003,"Include",214
"JCD2012_e1a","JCD2012_e1a_11",0,"InvalidCue",4,3263.766,"Include",70
"JCD2012_e1a","JCD2012_e1a_11",0,"ValidCue",3,1067.205,"Include",215
"JCD2012_e1a","JCD2012_e1a_11",0,"ValidCue",3,1283.627,"Include",216
"JCD2012_e1a","JCD2012_e1a_11",0,"ValidCue",3,644.3149,"Include",217
"JCD2012_e1a","JCD2012_e1a_11",1,"ValidCue",5,1067.167,"Include",218
"JCD2012_e1a","JCD2012_e1a_11",1,"ValidCue",4,1118.724,"Include",219
"JCD2012_e1a","JCD2012_e1a_11",1,"ValidCue",4,840.4533,"Include",220
"JCD2012_e1a","JCD2012_e1a_11",1,"ValidCue",4,726.8432,"Include",221
"JCD2012_e1a","JCD2012_e1a_11",1,"ValidCue",6,969.2381,"Include",222
"JCD2012_e1a","JCD2012_e1a_11",0,"ValidCue",3,1520.851,"Include",223
"JCD2012_e1a","JCD2012_e1a_11",1,"ValidCue",5,855.687,"Include",224
"JCD2012_e1a","JCD2012_e1a_11",0,"ValidCue",2,726.939,"Include",225
"JCD2012_e1a","JCD2012_e1a_11",0,"ValidCue",3,1196.26,"Include",226
"JCD2012_e1a","JCD2012_e1a_11",1,"ValidCue",4,943.3458,"Include",227
"JCD2012_e1a","JCD2012_e1a_11",1,"InvalidCue",3,1134.171,"Include",71
"JCD2012_e1a","JCD2012_e1a_11",0,"ValidCue",3,938.2246,"Include",228
"JCD2012_e1a","JCD2012_e1a_11",1,"ValidCue",4,1185.922,"Include",229
"JCD2012_e1a","JCD2012_e1a_11",0,"InvalidCue",4,1000.086,"Include",72
"JCD2012_e1a","JCD2012_e1a_11",0,"ValidCue",3,783.4755,"Include",230
"JCD2012_e1a","JCD2012_e1a_11",1,"InvalidCue",3,2608.84,"Include",73
"JCD2012_e1a","JCD2012_e1a_11",0,"InvalidCue",4,6924.597,"Include",74
"JCD2012_e1a","JCD2012_e1a_11",1,"InvalidCue",5,1118.634,"Include",75
"JCD2012_e1a","JCD2012_e1a_11",1,"ValidCue",4,1907.622,"Include",231
"JCD2012_e1a","JCD2012_e1a_11",0,"InvalidCue",3,1319.671,"Include",76
"JCD2012_e1a","JCD2012_e1a_11",1,"ValidCue",3,711.3661,"Include",232
"JCD2012_e1a","JCD2012_e1a_11",1,"InvalidCue",4,1701.29,"Include",77
"JCD2012_e1a","JCD2012_e1a_11",1,"ValidCue",3,845.4583,"Include",233
"JCD2012_e1a","JCD2012_e1a_11",1,"ValidCue",4,953.7354,"Include",234
"JCD2012_e1a","JCD2012_e1a_11",0,"ValidCue",3,2129.335,"Include",235
"JCD2012_e1a","JCD2012_e1a_11",0,"ValidCue",3,742.2856,"Include",236
"JCD2012_e1a","JCD2012_e1a_11",0,"ValidCue",3,567.0231,"Include",237
"JCD2012_e1a","JCD2012_e1a_11",0,"ValidCue",2,804.1832,"Include",238
"JCD2012_e1a","JCD2012_e1a_11",1,"InvalidCue",5,953.7492,"Include",78
"JCD2012_e1a","JCD2012_e1a_11",0,"ValidCue",3,881.3841,"Include",239
"JCD2012_e1a","JCD2012_e1a_11",0,"InvalidCue",3,1283.703,"Include",79
"JCD2012_e1a","JCD2012_e1a_11",0,"InvalidCue",4,505.0902,"Include",80
"JCD2012_e1a","JCD2012_e1a_11",0,"ValidCue",3,963.9356,"Include",240
"JCD2012_e1a","JCD2012_e1a_11",1,"ValidCue",5,902.0387,"Include",241
"JCD2012_e1a","JCD2012_e1a_11",1,"ValidCue",5,876.7304,"Include",242
"JCD2012_e1a","JCD2012_e1a_11",1,"ValidCue",4,788.58,"Include",243
"JCD2012_e1a","JCD2012_e1a_11",1,"ValidCue",4,969.2013,"Include",244
"JCD2012_e1a","JCD2012_e1a_11",0,"InvalidCue",4,628.8359,"Include",81
"JCD2012_e1a","JCD2012_e1a_11",0,"ValidCue",3,623.6909,"Include",245
"JCD2012_e1a","JCD2012_e1a_11",1,"InvalidCue",4,1330.158,"Include",82
"JCD2012_e1a","JCD2012_e1a_11",0,"InvalidCue",4,2129.455,"Include",83
"JCD2012_e1a","JCD2012_e1a_11",1,"ValidCue",5,1654.819,"Include",246
"JCD2012_e1a","JCD2012_e1a_11",1,"ValidCue",5,902.2066,"Include",247
"JCD2012_e1a","JCD2012_e1a_11",0,"ValidCue",2,793.8795,"Include",248
"JCD2012_e1a","JCD2012_e1a_11",1,"ValidCue",5,809.3164,"Include",249
"JCD2012_e1a","JCD2012_e1a_11",1,"InvalidCue",2,752.7058,"Include",84
"JCD2012_e1a","JCD2012_e1a_11",1,"ValidCue",4,1314.514,"Include",250
"JCD2012_e1a","JCD2012_e1a_11",1,"ValidCue",4,1005.171,"Include",251
"JCD2012_e1a","JCD2012_e1a_11",1,"ValidCue",4,866.2035,"Include",252
"JCD2012_e1a","JCD2012_e1a_11",0,"ValidCue",3,623.7039,"Include",253
"JCD2012_e1a","JCD2012_e1a_11",1,"ValidCue",4,917.6782,"Include",254
"JCD2012_e1a","JCD2012_e1a_11",1,"ValidCue",4,3711.987,"Include",255
"JCD2012_e1a","JCD2012_e1a_11",0,"InvalidCue",4,613.4992,"Include",85
"JCD2012_e1a","JCD2012_e1a_11",0,"ValidCue",3,216.3854,"Include",256
"JCD2012_e1a","JCD2012_e1a_11",1,"InvalidCue",3,329.8627,"Include",86
"JCD2012_e1a","JCD2012_e1a_11",1,"ValidCue",4,1397.17,"Include",257
"JCD2012_e1a","JCD2012_e1a_11",0,"ValidCue",3,2608.59,"Include",258
"JCD2012_e1a","JCD2012_e1a_11",1,"ValidCue",4,1407.486,"Include",259
"JCD2012_e1a","JCD2012_e1a_11",1,"InvalidCue",4,1356.038,"Include",87
"JCD2012_e1a","JCD2012_e1a_11",0,"ValidCue",3,3531.62,"Include",260
"JCD2012_e1a","JCD2012_e1a_11",0,"ValidCue",3,644.3109,"Include",261
"JCD2012_e1a","JCD2012_e1a_11",0,"ValidCue",2,680.4187,"Include",262
"JCD2012_e1a","JCD2012_e1a_11",1,"ValidCue",4,1397.046,"Include",263
"JCD2012_e1a","JCD2012_e1a_11",0,"InvalidCue",4,804.1223,"Include",88
"JCD2012_e1a","JCD2012_e1a_11",1,"ValidCue",4,1082.616,"Include",264
"JCD2012_e1a","JCD2012_e1a_11",0,"InvalidCue",4,886.6734,"Include",89
"JCD2012_e1a","JCD2012_e1a_11",0,"ValidCue",2,1098.184,"Include",265
"JCD2012_e1a","JCD2012_e1a_11",0,"InvalidCue",4,896.9409,"Include",90
"JCD2012_e1a","JCD2012_e1a_11",1,"ValidCue",4,757.7135,"Include",266
"JCD2012_e1a","JCD2012_e1a_11",0,"ValidCue",3,799.0136,"Include",267
"JCD2012_e1a","JCD2012_e1a_11",0,"ValidCue",3,628.8074,"Include",268
"JCD2012_e1a","JCD2012_e1a_11",0,"ValidCue",2,845.5346,"Include",269
"JCD2012_e1a","JCD2012_e1a_11",0,"ValidCue",3,623.6939,"Include",270
"JCD2012_e1a","JCD2012_e1a_12",1,"NoCue",6,4722.597,"Include",1
"JCD2012_e1a","JCD2012_e1a_12",0,"NoCue",1,1838.971,"Include",2
"JCD2012_e1a","JCD2012_e1a_12",0,"NoCue",1,1603.523,"Include",3
"JCD2012_e1a","JCD2012_e1a_12",0,"NoCue",1,793.8518,"Include",4
"JCD2012_e1a","JCD2012_e1a_12",0,"NoCue",1,1077.609,"Include",5
"JCD2012_e1a","JCD2012_e1a_12",0,"NoCue",1,634.0557,"Include",6
"JCD2012_e1a","JCD2012_e1a_12",0,"NoCue",1,850.6261,"Include",7
"JCD2012_e1a","JCD2012_e1a_12",1,"NoCue",6,1655.143,"Include",8
"JCD2012_e1a","JCD2012_e1a_12",0,"NoCue",1,1005.24,"Include",9
"JCD2012_e1a","JCD2012_e1a_12",0,"NoCue",1,912.4517,"Include",10
"JCD2012_e1a","JCD2012_e1a_12",0,"NoCue",1,695.9169,"Include",11
"JCD2012_e1a","JCD2012_e1a_12",0,"NoCue",1,793.89,"Include",12
"JCD2012_e1a","JCD2012_e1a_12",1,"NoCue",6,773.1908,"Include",13
"JCD2012_e1a","JCD2012_e1a_12",1,"NoCue",6,1185.705,"Include",14
"JCD2012_e1a","JCD2012_e1a_12",1,"NoCue",6,623.7001,"Include",15
"JCD2012_e1a","JCD2012_e1a_12",1,"NoCue",1,747.6002,"Include",16
"JCD2012_e1a","JCD2012_e1a_12",1,"NoCue",6,938.208,"Include",17
"JCD2012_e1a","JCD2012_e1a_12",0,"NoCue",1,1103.201,"Include",18
"JCD2012_e1a","JCD2012_e1a_12",1,"NoCue",6,829.956,"Include",19
"JCD2012_e1a","JCD2012_e1a_12",0,"NoCue",1,969.183,"Include",20
"JCD2012_e1a","JCD2012_e1a_12",0,"NoCue",1,1814.647,"Include",21
"JCD2012_e1a","JCD2012_e1a_12",1,"NoCue",6,1768.387,"Include",22
"JCD2012_e1a","JCD2012_e1a_12",1,"NoCue",6,969.2873,"Include",23
"JCD2012_e1a","JCD2012_e1a_12",0,"NoCue",1,1061.999,"Include",24
"JCD2012_e1a","JCD2012_e1a_12",1,"NoCue",6,659.9119,"Include",25
"JCD2012_e1a","JCD2012_e1a_12",1,"NoCue",6,757.8117,"Include",26
"JCD2012_e1a","JCD2012_e1a_12",0,"NoCue",1,773.2231,"Include",27
"JCD2012_e1a","JCD2012_e1a_12",1,"NoCue",6,1412.588,"Include",28
"JCD2012_e1a","JCD2012_e1a_12",1,"NoCue",6,701.0175,"Include",29
"JCD2012_e1a","JCD2012_e1a_12",1,"NoCue",6,742.2713,"Include",30
"JCD2012_e1a","JCD2012_e1a_12",1,"NoCue",6,659.7406,"Include",31
"JCD2012_e1a","JCD2012_e1a_12",1,"NoCue",6,814.5588,"Include",32
"JCD2012_e1a","JCD2012_e1a_12",1,"NoCue",6,597.9373,"Include",33
"JCD2012_e1a","JCD2012_e1a_12",1,"NoCue",6,536.0437,"Include",34
"JCD2012_e1a","JCD2012_e1a_12",1,"NoCue",6,520.5912,"Include",35
"JCD2012_e1a","JCD2012_e1a_12",0,"NoCue",1,2546.771,"Include",36
"JCD2012_e1a","JCD2012_e1a_12",1,"NoCue",6,907.4003,"Include",37
"JCD2012_e1a","JCD2012_e1a_12",1,"NoCue",6,737.1413,"Include",38
"JCD2012_e1a","JCD2012_e1a_12",0,"NoCue",2,3294.748,"Include",39
"JCD2012_e1a","JCD2012_e1a_12",1,"NoCue",6,783.4896,"Include",40
"JCD2012_e1a","JCD2012_e1a_12",0,"NoCue",1,1190.883,"Include",41
