"exp","id","trial","condition1","condition2","isold","rating","RT","excluding"
"JCD2012_e2","JCD2012_e2_1",1,"Deep","Valid",1,6,4981.734,"Include"
"JCD2012_e2","JCD2012_e2_1",2,"Baseline","Valid",0,2,7085.949,"Include"
"JCD2012_e2","JCD2012_e2_1",3,"Shallow","NoCue",1,6,2625.989,"Include"
"JCD2012_e2","JCD2012_e2_1",4,"Shallow","Valid",1,6,2447.46,"Include"
"JCD2012_e2","JCD2012_e2_1",5,"Deep","Valid",1,6,942.2156,"Include"
"JCD2012_e2","JCD2012_e2_1",6,"Shallow","Valid",1,6,989.8305,"Include"
"JCD2012_e2","JCD2012_e2_1",7,"Shallow","Valid",1,6,1000.117,"Include"
"JCD2012_e2","JCD2012_e2_1",8,"Shallow","Invalid",1,2,2379.48,"Include"
"JCD2012_e2","JCD2012_e2_1",9,"Shallow","Invalid",1,5,2682.782,"Include"
"JCD2012_e2","JCD2012_e2_1",10,"Shallow","Valid",1,4,9152.25,"Include"
"JCD2012_e2","JCD2012_e2_1",11,"Baseline","Valid",0,4,6075.568,"Include"
"JCD2012_e2","JCD2012_e2_1",12,"Baseline","Invalid",0,3,3057.223,"Include"
"JCD2012_e2","JCD2012_e2_1",13,"Deep","Valid",1,6,1263.648,"Include"
"JCD2012_e2","JCD2012_e2_1",14,"Shallow","Valid",1,6,952.5679,"Include"
"JCD2012_e2","JCD2012_e2_1",15,"Baseline","Valid",0,2,3098.564,"Include"
"JCD2012_e2","JCD2012_e2_1",16,"Shallow","NoCue",1,2,8283.917,"Include"
"JCD2012_e2","JCD2012_e2_1",17,"Shallow","Valid",1,3,3082.561,"Include"
"JCD2012_e2","JCD2012_e2_1",18,"Deep","Valid",1,4,3132.371,"Include"
"JCD2012_e2","JCD2012_e2_1",19,"Deep","Valid",1,6,1053.025,"Include"
"JCD2012_e2","JCD2012_e2_1",20,"Deep","NoCue",1,6,1005.326,"Include"
"JCD2012_e2","JCD2012_e2_1",21,"Baseline","Invalid",0,2,3730.291,"Include"
"JCD2012_e2","JCD2012_e2_1",22,"Shallow","Valid",1,6,1289.368,"Include"
"JCD2012_e2","JCD2012_e2_1",23,"Baseline","NoCue",0,2,3240.12,"Include"
"JCD2012_e2","JCD2012_e2_1",24,"Shallow","Valid",1,3,5970.96,"Include"
"JCD2012_e2","JCD2012_e2_1",25,"Shallow","Invalid",1,5,2193.991,"Include"
"JCD2012_e2","JCD2012_e2_1",26,"Baseline","Valid",0,2,4303.149,"Include"
"JCD2012_e2","JCD2012_e2_1",27,"Shallow","Invalid",1,1,2893.688,"Include"
"JCD2012_e2","JCD2012_e2_1",28,"Baseline","NoCue",0,3,3072.94,"Include"
"JCD2012_e2","JCD2012_e2_1",29,"Deep","NoCue",1,6,2093.727,"Include"
"JCD2012_e2","JCD2012_e2_1",30,"Deep","Valid",1,5,4201.399,"Include"
"JCD2012_e2","JCD2012_e2_1",31,"Deep","Valid",1,6,1010.5,"Include"
"JCD2012_e2","JCD2012_e2_1",32,"Baseline","Invalid",0,3,2530.761,"Include"
"JCD2012_e2","JCD2012_e2_1",33,"Baseline","Valid",0,2,2446.652,"Include"
"JCD2012_e2","JCD2012_e2_1",34,"Deep","Invalid",1,6,4936.438,"Include"
"JCD2012_e2","JCD2012_e2_1",35,"Baseline","Valid",0,2,3173.564,"Include"
"JCD2012_e2","JCD2012_e2_1",36,"Deep","Valid",1,3,5677.621,"Include"
"JCD2012_e2","JCD2012_e2_1",37,"Deep","Valid",1,6,1404.908,"Include"
"JCD2012_e2","JCD2012_e2_1",38,"Shallow","Invalid",1,2,6023.305,"Include"
"JCD2012_e2","JCD2012_e2_1",39,"Baseline","Valid",0,1,1410.562,"Include"
"JCD2012_e2","JCD2012_e2_1",40,"Deep","Valid",1,6,3252.482,"Include"
"JCD2012_e2","JCD2012_e2_1",41,"Baseline","Valid",0,2,2378.432,"Include"
"JCD2012_e2","JCD2012_e2_1",42,"Baseline","Valid",0,2,1000.37,"Include"
"JCD2012_e2","JCD2012_e2_1",43,"Deep","Valid",1,6,1094.911,"Include"
"JCD2012_e2","JCD2012_e2_1",44,"Shallow","Valid",1,6,1289.806,"Include"
"JCD2012_e2","JCD2012_e2_1",45,"Shallow","Valid",1,6,873.3052,"Include"
"JCD2012_e2","JCD2012_e2_1",46,"Baseline","Valid",0,2,2277.905,"Include"
"JCD2012_e2","JCD2012_e2_1",47,"Baseline","Valid",0,3,7465.816,"Include"
"JCD2012_e2","JCD2012_e2_1",48,"Deep","Valid",1,6,1341.945,"Include"
"JCD2012_e2","JCD2012_e2_1",49,"Shallow","Valid",1,5,2600.194,"Include"
"JCD2012_e2","JCD2012_e2_1",50,"Deep","NoCue",1,6,1336.498,"Include"
"JCD2012_e2","JCD2012_e2_1",51,"Shallow","NoCue",1,6,810.5161,"Include"
"JCD2012_e2","JCD2012_e2_1",52,"Deep","Valid",1,6,1341.992,"Include"
"JCD2012_e2","JCD2012_e2_1",53,"Baseline","Valid",0,1,1552.58,"Include"
"JCD2012_e2","JCD2012_e2_1",54,"Deep","Invalid",1,4,2521.331,"Include"
"JCD2012_e2","JCD2012_e2_1",55,"Shallow","Valid",1,6,1284.074,"Include"
"JCD2012_e2","JCD2012_e2_1",56,"Baseline","NoCue",0,2,2069.147,"Include"
"JCD2012_e2","JCD2012_e2_1",57,"Shallow","Valid",1,3,2882.053,"Include"
"JCD2012_e2","JCD2012_e2_1",58,"Baseline","Valid",0,2,4997.494,"Include"
"JCD2012_e2","JCD2012_e2_1",59,"Deep","Valid",1,5,1026.149,"Include"
"JCD2012_e2","JCD2012_e2_1",60,"Deep","NoCue",1,5,3593.062,"Include"
"JCD2012_e2","JCD2012_e2_1",61,"Deep","Valid",1,6,989.1567,"Include"
"JCD2012_e2","JCD2012_e2_1",62,"Deep","NoCue",1,6,726.3864,"Include"
"JCD2012_e2","JCD2012_e2_1",63,"Baseline","NoCue",0,1,5039.603,"Include"
"JCD2012_e2","JCD2012_e2_1",64,"Deep","NoCue",1,5,3015.581,"Include"
"JCD2012_e2","JCD2012_e2_1",65,"Baseline","NoCue",0,3,5398.649,"Include"
"JCD2012_e2","JCD2012_e2_1",66,"Baseline","Valid",0,1,4377.818,"Include"
"JCD2012_e2","JCD2012_e2_1",67,"Deep","Invalid",1,4,1825.983,"Include"
"JCD2012_e2","JCD2012_e2_1",68,"Baseline","Valid",0,2,2094.284,"Include"
"JCD2012_e2","JCD2012_e2_1",69,"Shallow","Invalid",1,2,4150.682,"Include"
"JCD2012_e2","JCD2012_e2_1",70,"Baseline","Invalid",0,3,2389.146,"Include"
"JCD2012_e2","JCD2012_e2_1",71,"Deep","NoCue",1,5,1325.978,"Include"
"JCD2012_e2","JCD2012_e2_1",72,"Shallow","Valid",1,6,1142.516,"Include"
"JCD2012_e2","JCD2012_e2_1",73,"Shallow","Valid",1,6,2863.893,"Include"
"JCD2012_e2","JCD2012_e2_1",74,"Deep","Valid",1,6,4924.478,"Include"
"JCD2012_e2","JCD2012_e2_1",75,"Shallow","Valid",1,6,11219.79,"Include"
"JCD2012_e2","JCD2012_e2_1",76,"Baseline","Valid",0,2,1747.198,"Include"
"JCD2012_e2","JCD2012_e2_1",77,"Deep","Valid",1,6,1189.476,"Include"
"JCD2012_e2","JCD2012_e2_1",78,"Shallow","NoCue",1,1,2146.606,"Include"
"JCD2012_e2","JCD2012_e2_1",79,"Baseline","NoCue",0,2,3366.188,"Include"
"JCD2012_e2","JCD2012_e2_1",80,"Shallow","NoCue",1,5,10553.37,"Include"
"JCD2012_e2","JCD2012_e2_1",81,"Shallow","Invalid",1,2,2935.741,"Include"
"JCD2012_e2","JCD2012_e2_1",82,"Baseline","Invalid",0,4,15964.03,"Include"
"JCD2012_e2","JCD2012_e2_1",83,"Shallow","Valid",1,5,1299.544,"Include"
"JCD2012_e2","JCD2012_e2_1",84,"Baseline","NoCue",0,2,1621.019,"Include"
"JCD2012_e2","JCD2012_e2_1",85,"Baseline","Valid",0,4,3298.739,"Include"
"JCD2012_e2","JCD2012_e2_1",86,"Shallow","Valid",1,5,2462.009,"Include"
"JCD2012_e2","JCD2012_e2_1",87,"Baseline","NoCue",0,1,1610.73,"Include"
"JCD2012_e2","JCD2012_e2_1",88,"Baseline","Valid",0,1,1321.328,"Include"
"JCD2012_e2","JCD2012_e2_1",89,"Deep","Invalid",1,4,1715.655,"Include"
"JCD2012_e2","JCD2012_e2_1",90,"Baseline","Valid",0,2,1962.438,"Include"
"JCD2012_e2","JCD2012_e2_1",91,"Baseline","Invalid",0,3,2466.682,"Include"
"JCD2012_e2","JCD2012_e2_1",92,"Deep","Invalid",1,5,5470.856,"Include"
"JCD2012_e2","JCD2012_e2_1",93,"Baseline","Valid",0,2,2403.757,"Include"
"JCD2012_e2","JCD2012_e2_1",94,"Shallow","Invalid",1,6,2709.411,"Include"
"JCD2012_e2","JCD2012_e2_1",95,"Shallow","Invalid",1,6,3835.189,"Include"
"JCD2012_e2","JCD2012_e2_1",96,"Shallow","Valid",1,5,2940.83,"Include"
"JCD2012_e2","JCD2012_e2_1",97,"Baseline","Invalid",0,2,13547.77,"Include"
"JCD2012_e2","JCD2012_e2_1",98,"Baseline","Invalid",0,2,1331.785,"Include"
"JCD2012_e2","JCD2012_e2_1",99,"Baseline","Valid",0,2,2230.751,"Include"
"JCD2012_e2","JCD2012_e2_1",100,"Deep","Invalid",1,6,2299.284,"Include"
"JCD2012_e2","JCD2012_e2_1",101,"Deep","Valid",1,6,24509.05,"Include"
"JCD2012_e2","JCD2012_e2_1",102,"Deep","Valid",1,5,2762.336,"Include"
"JCD2012_e2","JCD2012_e2_1",103,"Shallow","Valid",1,3,2189.36,"Include"
"JCD2012_e2","JCD2012_e2_1",104,"Baseline","Valid",0,1,2078.67,"Include"
"JCD2012_e2","JCD2012_e2_1",105,"Baseline","NoCue",0,2,1546.866,"Include"
"JCD2012_e2","JCD2012_e2_1",106,"Deep","NoCue",1,6,2436.13,"Include"
"JCD2012_e2","JCD2012_e2_1",107,"Deep","Valid",1,6,1447.358,"Include"
"JCD2012_e2","JCD2012_e2_1",108,"Shallow","Valid",1,3,9595.728,"Include"
"JCD2012_e2","JCD2012_e2_1",109,"Baseline","Valid",0,2,1804.262,"Include"
"JCD2012_e2","JCD2012_e2_1",110,"Shallow","Invalid",1,1,1578.689,"Include"
"JCD2012_e2","JCD2012_e2_1",111,"Deep","NoCue",1,6,1426.285,"Include"
"JCD2012_e2","JCD2012_e2_1",112,"Deep","Invalid",1,6,984.2332,"Include"
"JCD2012_e2","JCD2012_e2_1",113,"Baseline","Valid",0,3,8411.588,"Include"
"JCD2012_e2","JCD2012_e2_1",114,"Deep","Valid",1,6,1268.758,"Include"
"JCD2012_e2","JCD2012_e2_1",115,"Deep","Invalid",1,6,1262.891,"Include"
"JCD2012_e2","JCD2012_e2_1",116,"Shallow","NoCue",1,6,1804.854,"Include"
"JCD2012_e2","JCD2012_e2_1",117,"Deep","Valid",1,5,2009.808,"Include"
"JCD2012_e2","JCD2012_e2_1",118,"Baseline","Valid",0,2,4241.153,"Include"
"JCD2012_e2","JCD2012_e2_1",119,"Shallow","Valid",1,5,1683.159,"Include"
"JCD2012_e2","JCD2012_e2_1",120,"Baseline","Valid",0,1,1310.865,"Include"
"JCD2012_e2","JCD2012_e2_1",121,"Shallow","Valid",1,4,4323.92,"Include"
"JCD2012_e2","JCD2012_e2_1",122,"Shallow","NoCue",1,5,1552.916,"Include"
"JCD2012_e2","JCD2012_e2_1",123,"Deep","Valid",1,6,1078.896,"Include"
"JCD2012_e2","JCD2012_e2_1",124,"Shallow","Valid",1,6,1105.179,"Include"
"JCD2012_e2","JCD2012_e2_1",125,"Shallow","NoCue",1,6,900.0388,"Include"
"JCD2012_e2","JCD2012_e2_1",126,"Baseline","Invalid",0,3,2404.575,"Include"
"JCD2012_e2","JCD2012_e2_1",127,"Deep","Valid",1,6,2430.683,"Include"
"JCD2012_e2","JCD2012_e2_1",128,"Baseline","Valid",0,2,3345.415,"Include"
"JCD2012_e2","JCD2012_e2_1",129,"Deep","Valid",1,3,1883.752,"Include"
"JCD2012_e2","JCD2012_e2_1",130,"Baseline","Valid",0,1,5940.818,"Include"
"JCD2012_e2","JCD2012_e2_1",131,"Baseline","NoCue",0,2,2288.978,"Include"
"JCD2012_e2","JCD2012_e2_1",132,"Shallow","NoCue",1,5,1384.158,"Include"
"JCD2012_e2","JCD2012_e2_1",133,"Deep","Invalid",1,6,4350.759,"Include"
"JCD2012_e2","JCD2012_e2_1",134,"Deep","Invalid",1,6,1126.724,"Include"
"JCD2012_e2","JCD2012_e2_1",135,"Deep","Valid",1,6,1636.398,"Include"
"JCD2012_e2","JCD2012_e2_1",136,"Shallow","Valid",1,6,3515.436,"Include"
"JCD2012_e2","JCD2012_e2_1",137,"Deep","Valid",1,6,731.3534,"Include"
"JCD2012_e2","JCD2012_e2_1",138,"Deep","Valid",1,6,653.1935,"Include"
"JCD2012_e2","JCD2012_e2_1",139,"Baseline","Valid",0,2,1309.932,"Include"
"JCD2012_e2","JCD2012_e2_1",140,"Deep","NoCue",1,6,2656.162,"Include"
"JCD2012_e2","JCD2012_e2_1",141,"Baseline","Valid",0,1,3077.653,"Include"
"JCD2012_e2","JCD2012_e2_1",142,"Shallow","NoCue",1,6,1399.79,"Include"
"JCD2012_e2","JCD2012_e2_1",143,"Deep","Valid",1,6,979.0888,"Include"
"JCD2012_e2","JCD2012_e2_1",144,"Shallow","Valid",1,6,995.2818,"Include"
"JCD2012_e2","JCD2012_e2_1",145,"Shallow","Valid",1,6,1810.391,"Include"
"JCD2012_e2","JCD2012_e2_1",146,"Shallow","Valid",1,3,3225.418,"Include"
"JCD2012_e2","JCD2012_e2_1",147,"Shallow","Valid",1,4,5628.763,"Include"
"JCD2012_e2","JCD2012_e2_1",148,"Shallow","Valid",1,5,1610.752,"Include"
"JCD2012_e2","JCD2012_e2_1",149,"Deep","Valid",1,5,2415.089,"Include"
"JCD2012_e2","JCD2012_e2_1",150,"Baseline","Invalid",0,2,1683.698,"Include"
"JCD2012_e2","JCD2012_e2_1",151,"Shallow","Valid",1,6,2452.416,"Include"
"JCD2012_e2","JCD2012_e2_1",152,"Deep","Valid",1,6,900.6849,"Include"
"JCD2012_e2","JCD2012_e2_1",153,"Shallow","Valid",1,6,2694.994,"Include"
"JCD2012_e2","JCD2012_e2_1",154,"Shallow","NoCue",1,6,1378.79,"Include"
"JCD2012_e2","JCD2012_e2_1",155,"Deep","Invalid",1,6,1158.072,"Include"
"JCD2012_e2","JCD2012_e2_1",156,"Baseline","Valid",0,1,1289.823,"Include"
"JCD2012_e2","JCD2012_e2_1",157,"Baseline","Invalid",0,3,2037.691,"Include"
"JCD2012_e2","JCD2012_e2_1",158,"Deep","NoCue",1,6,1930.802,"Include"
"JCD2012_e2","JCD2012_e2_1",159,"Shallow","Invalid",1,5,2316.275,"Include"
"JCD2012_e2","JCD2012_e2_1",160,"Deep","Valid",1,6,3846.68,"Include"
"JCD2012_e2","JCD2012_e2_1",161,"Shallow","Valid",1,3,5472.343,"Include"
"JCD2012_e2","JCD2012_e2_1",162,"Deep","Valid",1,6,2147.582,"Include"
"JCD2012_e2","JCD2012_e2_1",163,"Shallow","Invalid",1,6,1331.856,"Include"
"JCD2012_e2","JCD2012_e2_1",164,"Deep","Valid",1,6,6756.301,"Include"
"JCD2012_e2","JCD2012_e2_1",165,"Baseline","Invalid",0,1,1542.498,"Include"
"JCD2012_e2","JCD2012_e2_1",166,"Baseline","Valid",0,1,1179.724,"Include"
"JCD2012_e2","JCD2012_e2_1",167,"Baseline","Valid",0,1,1153.437,"Include"
"JCD2012_e2","JCD2012_e2_1",168,"Deep","Valid",1,6,2163.04,"Include"
"JCD2012_e2","JCD2012_e2_1",169,"Shallow","Invalid",1,6,1153.02,"Include"
"JCD2012_e2","JCD2012_e2_1",170,"Baseline","Valid",0,1,989.8702,"Include"
"JCD2012_e2","JCD2012_e2_1",171,"Shallow","NoCue",1,5,2453.066,"Include"
"JCD2012_e2","JCD2012_e2_1",172,"Shallow","Valid",1,5,1958.052,"Include"
"JCD2012_e2","JCD2012_e2_1",173,"Baseline","NoCue",0,2,2784.178,"Include"
"JCD2012_e2","JCD2012_e2_1",174,"Deep","NoCue",1,6,1432.032,"Include"
"JCD2012_e2","JCD2012_e2_1",175,"Shallow","NoCue",1,4,2006.068,"Include"
"JCD2012_e2","JCD2012_e2_1",176,"Deep","Valid",1,6,1137.82,"Include"
"JCD2012_e2","JCD2012_e2_1",177,"Shallow","Invalid",1,4,2294.233,"Include"
"JCD2012_e2","JCD2012_e2_1",178,"Deep","Valid",1,6,1542.695,"Include"
"JCD2012_e2","JCD2012_e2_1",179,"Baseline","NoCue",0,1,1463.002,"Include"
"JCD2012_e2","JCD2012_e2_1",180,"Baseline","Valid",0,1,2290.012,"Include"
"JCD2012_e2","JCD2012_e2_1",181,"Deep","Valid",1,6,1752.721,"Include"
"JCD2012_e2","JCD2012_e2_1",182,"Shallow","Valid",1,4,2152.794,"Include"
"JCD2012_e2","JCD2012_e2_1",183,"Deep","Valid",1,6,1158.117,"Include"
"JCD2012_e2","JCD2012_e2_1",184,"Baseline","Valid",0,2,1295.729,"Include"
"JCD2012_e2","JCD2012_e2_1",185,"Baseline","Valid",0,1,1642.516,"Include"
"JCD2012_e2","JCD2012_e2_1",186,"Baseline","Valid",0,2,1280.872,"Include"
"JCD2012_e2","JCD2012_e2_1",187,"Shallow","Valid",1,5,1947.01,"Include"
"JCD2012_e2","JCD2012_e2_1",188,"Deep","Invalid",1,6,1079.27,"Include"
"JCD2012_e2","JCD2012_e2_1",189,"Baseline","Valid",0,1,1026.711,"Include"
"JCD2012_e2","JCD2012_e2_1",190,"Deep","Valid",1,6,1816.262,"Include"
"JCD2012_e2","JCD2012_e2_1",191,"Shallow","Valid",1,4,2453.733,"Include"
"JCD2012_e2","JCD2012_e2_1",192,"Deep","Valid",1,6,1257.971,"Include"
"JCD2012_e2","JCD2012_e2_1",193,"Shallow","NoCue",1,6,1668.802,"Include"
"JCD2012_e2","JCD2012_e2_1",194,"Shallow","Valid",1,4,2931.836,"Include"
"JCD2012_e2","JCD2012_e2_1",195,"Shallow","NoCue",1,3,2516.313,"Include"
"JCD2012_e2","JCD2012_e2_1",196,"Deep","Valid",1,6,1363.288,"Include"
"JCD2012_e2","JCD2012_e2_1",197,"Baseline","Valid",0,1,1358.587,"Include"
"JCD2012_e2","JCD2012_e2_1",198,"Shallow","NoCue",1,2,2053.339,"Include"
"JCD2012_e2","JCD2012_e2_1",199,"Shallow","Invalid",1,6,1032.291,"Include"
"JCD2012_e2","JCD2012_e2_1",200,"Shallow","Valid",1,6,1526.957,"Include"
"JCD2012_e2","JCD2012_e2_1",201,"Deep","Valid",1,3,5504.568,"Include"
"JCD2012_e2","JCD2012_e2_1",202,"Baseline","Valid",0,1,968.8701,"Include"
"JCD2012_e2","JCD2012_e2_1",203,"Shallow","Valid",1,2,4545.899,"Include"
"JCD2012_e2","JCD2012_e2_1",204,"Baseline","Invalid",0,2,1816.123,"Include"
"JCD2012_e2","JCD2012_e2_1",205,"Baseline","Valid",0,2,7207.703,"Include"
"JCD2012_e2","JCD2012_e2_1",206,"Shallow","Valid",1,4,1874.146,"Include"
"JCD2012_e2","JCD2012_e2_1",207,"Deep","Invalid",1,5,1694.522,"Include"
"JCD2012_e2","JCD2012_e2_1",208,"Shallow","Valid",1,3,7335.187,"Include"
"JCD2012_e2","JCD2012_e2_1",209,"Shallow","Valid",1,5,1379.296,"Include"
"JCD2012_e2","JCD2012_e2_1",210,"Baseline","NoCue",0,1,1194.991,"Include"
"JCD2012_e2","JCD2012_e2_1",211,"Deep","Valid",1,6,1777.877,"Include"
"JCD2012_e2","JCD2012_e2_1",212,"Baseline","Invalid",0,4,1652.611,"Include"
"JCD2012_e2","JCD2012_e2_1",213,"Baseline","Invalid",0,3,2079.039,"Include"
"JCD2012_e2","JCD2012_e2_1",214,"Deep","Invalid",1,1,2131.228,"Include"
"JCD2012_e2","JCD2012_e2_1",215,"Deep","Valid",1,6,3099.284,"Include"
"JCD2012_e2","JCD2012_e2_1",216,"Baseline","Valid",0,1,1390.751,"Include"
"JCD2012_e2","JCD2012_e2_1",217,"Deep","Invalid",1,6,963.5818,"Include"
"JCD2012_e2","JCD2012_e2_1",218,"Shallow","Valid",1,5,7724.839,"Include"
"JCD2012_e2","JCD2012_e2_1",219,"Deep","Valid",1,6,1058.211,"Include"
"JCD2012_e2","JCD2012_e2_1",220,"Baseline","Valid",0,2,1800.271,"Include"
"JCD2012_e2","JCD2012_e2_1",221,"Shallow","Valid",1,6,1252.987,"Include"
"JCD2012_e2","JCD2012_e2_1",222,"Shallow","Invalid",1,2,2978.241,"Include"
"JCD2012_e2","JCD2012_e2_1",223,"Deep","NoCue",1,6,2337.818,"Include"
"JCD2012_e2","JCD2012_e2_1",224,"Deep","Invalid",1,6,1163.781,"Include"
"JCD2012_e2","JCD2012_e2_1",225,"Shallow","Valid",1,4,5093.228,"Include"
"JCD2012_e2","JCD2012_e2_1",226,"Shallow","NoCue",1,6,1589.524,"Include"
"JCD2012_e2","JCD2012_e2_1",227,"Baseline","Valid",0,1,1515.927,"Include"
"JCD2012_e2","JCD2012_e2_1",228,"Deep","NoCue",1,6,1231.147,"Include"
"JCD2012_e2","JCD2012_e2_1",229,"Shallow","Valid",1,6,947.7773,"Include"
"JCD2012_e2","JCD2012_e2_1",230,"Baseline","NoCue",0,4,7653.428,"Include"
"JCD2012_e2","JCD2012_e2_1",231,"Baseline","Valid",0,3,6100.998,"Include"
"JCD2012_e2","JCD2012_e2_1",232,"Deep","Invalid",1,6,1074.589,"Include"
"JCD2012_e2","JCD2012_e2_1",233,"Baseline","NoCue",0,2,4846.498,"Include"
"JCD2012_e2","JCD2012_e2_1",234,"Shallow","Invalid",1,6,1163.647,"Include"
"JCD2012_e2","JCD2012_e2_1",235,"Shallow","Valid",1,6,1331.76,"Include"
"JCD2012_e2","JCD2012_e2_1",236,"Deep","Valid",1,6,942.669,"Include"
"JCD2012_e2","JCD2012_e2_1",237,"Baseline","Valid",0,1,2036.998,"Include"
"JCD2012_e2","JCD2012_e2_1",238,"Baseline","Invalid",0,3,2884.973,"Include"
"JCD2012_e2","JCD2012_e2_1",239,"Deep","Invalid",1,2,5789.703,"Include"
"JCD2012_e2","JCD2012_e2_1",240,"Baseline","NoCue",0,1,2163.381,"Include"
"JCD2012_e2","JCD2012_e2_1",241,"Deep","Valid",1,6,1184.534,"Include"
"JCD2012_e2","JCD2012_e2_1",242,"Baseline","Valid",0,1,1821.177,"Include"
"JCD2012_e2","JCD2012_e2_1",243,"Baseline","Valid",0,1,1706.292,"Include"
"JCD2012_e2","JCD2012_e2_1",244,"Shallow","NoCue",1,6,905.4141,"Include"
"JCD2012_e2","JCD2012_e2_1",245,"Baseline","Valid",0,1,1021.696,"Include"
"JCD2012_e2","JCD2012_e2_1",246,"Shallow","Invalid",1,6,1053.179,"Include"
"JCD2012_e2","JCD2012_e2_1",247,"Shallow","Invalid",1,6,826.524,"Include"
"JCD2012_e2","JCD2012_e2_1",248,"Deep","Valid",1,6,1079.251,"Include"
"JCD2012_e2","JCD2012_e2_1",249,"Shallow","Invalid",1,6,2790.165,"Include"
"JCD2012_e2","JCD2012_e2_1",250,"Baseline","Valid",0,1,1484.284,"Include"
"JCD2012_e2","JCD2012_e2_1",251,"Shallow","Valid",1,6,953.103,"Include"
"JCD2012_e2","JCD2012_e2_1",252,"Deep","Invalid",1,6,1473.623,"Include"
"JCD2012_e2","JCD2012_e2_1",253,"Shallow","Valid",1,2,2236.539,"Include"
"JCD2012_e2","JCD2012_e2_1",254,"Baseline","Valid",0,1,906.0857,"Include"
"JCD2012_e2","JCD2012_e2_1",255,"Baseline","Valid",0,1,5819.551,"Include"
"JCD2012_e2","JCD2012_e2_1",256,"Deep","Valid",1,6,3136.963,"Include"
"JCD2012_e2","JCD2012_e2_1",257,"Deep","Valid",1,6,795.1266,"Include"
"JCD2012_e2","JCD2012_e2_1",258,"Shallow","Valid",1,3,3089.407,"Include"
"JCD2012_e2","JCD2012_e2_1",259,"Deep","Valid",1,5,3441.566,"Include"
"JCD2012_e2","JCD2012_e2_1",260,"Shallow","Valid",1,1,1737.652,"Include"
"JCD2012_e2","JCD2012_e2_1",261,"Baseline","NoCue",0,1,1537.261,"Include"
"JCD2012_e2","JCD2012_e2_1",262,"Shallow","Valid",1,4,6004.223,"Include"
"JCD2012_e2","JCD2012_e2_1",263,"Deep","Invalid",1,6,1805.279,"Include"
"JCD2012_e2","JCD2012_e2_1",264,"Shallow","Valid",1,5,8979.67,"Include"
"JCD2012_e2","JCD2012_e2_1",265,"Shallow","Valid",1,5,1310.71,"Include"
"JCD2012_e2","JCD2012_e2_1",266,"Shallow","Valid",1,3,2142.543,"Include"
"JCD2012_e2","JCD2012_e2_1",267,"Baseline","Valid",0,1,1200.27,"Include"
"JCD2012_e2","JCD2012_e2_1",268,"Baseline","NoCue",0,2,1883.451,"Include"
"JCD2012_e2","JCD2012_e2_1",269,"Baseline","Valid",0,1,1025.882,"Include"
"JCD2012_e2","JCD2012_e2_1",270,"Deep","Valid",1,6,3911.542,"Include"
"JCD2012_e2","JCD2012_e2_1",271,"Deep","NoCue",1,6,1068.774,"Include"
"JCD2012_e2","JCD2012_e2_1",272,"Baseline","Valid",0,1,1284.709,"Include"
"JCD2012_e2","JCD2012_e2_1",273,"Baseline","Valid",0,2,3027.449,"Include"
"JCD2012_e2","JCD2012_e2_1",274,"Baseline","Valid",0,1,1310.963,"Include"
"JCD2012_e2","JCD2012_e2_1",275,"Deep","NoCue",1,6,1489.752,"Include"
"JCD2012_e2","JCD2012_e2_1",276,"Deep","Valid",1,6,863.6908,"Include"
"JCD2012_e2","JCD2012_e2_1",277,"Deep","Valid",1,6,1431.888,"Include"
"JCD2012_e2","JCD2012_e2_1",278,"Deep","Valid",1,6,837.5659,"Include"
"JCD2012_e2","JCD2012_e2_1",279,"Baseline","NoCue",0,1,2599.684,"Include"
"JCD2012_e2","JCD2012_e2_1",280,"Baseline","NoCue",0,1,1989.046,"Include"
"JCD2012_e2","JCD2012_e2_1",281,"Deep","NoCue",1,6,1373.614,"Include"
"JCD2012_e2","JCD2012_e2_1",282,"Deep","Valid",1,6,1474.333,"Include"
"JCD2012_e2","JCD2012_e2_1",283,"Shallow","Valid",1,6,1005.256,"Include"
"JCD2012_e2","JCD2012_e2_1",284,"Deep","NoCue",1,6,1516.603,"Include"
"JCD2012_e2","JCD2012_e2_1",285,"Shallow","NoCue",1,2,2577.944,"Include"
"JCD2012_e2","JCD2012_e2_1",286,"Baseline","Valid",0,1,889.7347,"Include"
"JCD2012_e2","JCD2012_e2_1",287,"Deep","Valid",1,6,1269.25,"Include"
"JCD2012_e2","JCD2012_e2_1",288,"Baseline","Invalid",0,6,4345.656,"Include"
"JCD2012_e2","JCD2012_e2_1",289,"Baseline","Invalid",0,1,2036.995,"Include"
"JCD2012_e2","JCD2012_e2_1",290,"Shallow","Valid",1,6,1163.954,"Include"
"JCD2012_e2","JCD2012_e2_1",291,"Deep","Valid",1,6,989.6572,"Include"
"JCD2012_e2","JCD2012_e2_1",292,"Baseline","Valid",0,1,1132.042,"Include"
"JCD2012_e2","JCD2012_e2_1",293,"Baseline","Invalid",0,3,3120.513,"Include"
"JCD2012_e2","JCD2012_e2_1",294,"Shallow","Valid",1,4,6289.114,"Include"
"JCD2012_e2","JCD2012_e2_1",295,"Shallow","Valid",1,3,1663.554,"Include"
"JCD2012_e2","JCD2012_e2_1",296,"Deep","Valid",1,6,1426.39,"Include"
"JCD2012_e2","JCD2012_e2_1",297,"Baseline","Invalid",0,3,2689.783,"Include"
"JCD2012_e2","JCD2012_e2_1",298,"Shallow","NoCue",1,6,1820.508,"Include"
"JCD2012_e2","JCD2012_e2_1",299,"Deep","NoCue",1,6,1305.595,"Include"
"JCD2012_e2","JCD2012_e2_1",300,"Deep","NoCue",1,6,2251.932,"Include"
"JCD2012_e2","JCD2012_e2_1",301,"Shallow","Valid",1,3,1841.911,"Include"
"JCD2012_e2","JCD2012_e2_1",302,"Baseline","NoCue",0,1,1105.249,"Include"
"JCD2012_e2","JCD2012_e2_1",303,"Baseline","NoCue",0,2,1467.695,"Include"
"JCD2012_e2","JCD2012_e2_1",304,"Deep","Valid",1,6,1125.855,"Include"
"JCD2012_e2","JCD2012_e2_1",305,"Deep","Valid",1,6,999.9861,"Include"
"JCD2012_e2","JCD2012_e2_1",306,"Shallow","NoCue",1,6,1379.133,"Include"
"JCD2012_e2","JCD2012_e2_1",307,"Baseline","NoCue",0,1,1778.695,"Include"
"JCD2012_e2","JCD2012_e2_1",308,"Baseline","Valid",0,1,7808.149,"Include"
"JCD2012_e2","JCD2012_e2_1",309,"Shallow","Invalid",1,6,1468.101,"Include"
"JCD2012_e2","JCD2012_e2_1",310,"Deep","NoCue",1,6,1168.208,"Include"
"JCD2012_e2","JCD2012_e2_1",311,"Shallow","Invalid",1,1,942.6705,"Include"
"JCD2012_e2","JCD2012_e2_1",312,"Baseline","Invalid",0,2,14407.83,"Include"
"JCD2012_e2","JCD2012_e2_1",313,"Baseline","Valid",0,2,4534.866,"Include"
"JCD2012_e2","JCD2012_e2_1",314,"Baseline","Valid",0,1,663.1379,"Include"
"JCD2012_e2","JCD2012_e2_1",315,"Shallow","Valid",1,6,1042.78,"Include"
"JCD2012_e2","JCD2012_e2_1",316,"Baseline","Valid",0,1,1173.433,"Include"
"JCD2012_e2","JCD2012_e2_1",317,"Deep","Invalid",1,6,983.9303,"Include"
"JCD2012_e2","JCD2012_e2_1",318,"Deep","Valid",1,6,910.5777,"Include"
"JCD2012_e2","JCD2012_e2_1",319,"Shallow","Valid",1,6,6601.929,"Include"
"JCD2012_e2","JCD2012_e2_1",320,"Deep","NoCue",1,6,2340.834,"Include"
"JCD2012_e2","JCD2012_e2_1",321,"Baseline","Valid",0,2,6772.591,"Include"
"JCD2012_e2","JCD2012_e2_1",322,"Baseline","Invalid",0,3,2898.583,"Include"
"JCD2012_e2","JCD2012_e2_1",323,"Deep","NoCue",1,6,990,"Include"
"JCD2012_e2","JCD2012_e2_1",324,"Deep","Valid",1,6,2362.231,"Include"
"JCD2012_e2","JCD2012_e2_1",325,"Shallow","NoCue",1,2,3425.855,"Include"
"JCD2012_e2","JCD2012_e2_1",326,"Shallow","Valid",1,6,1730.529,"Include"
"JCD2012_e2","JCD2012_e2_1",327,"Shallow","NoCue",1,1,2651.203,"Include"
"JCD2012_e2","JCD2012_e2_1",328,"Deep","Valid",1,6,1483.636,"Include"
"JCD2012_e2","JCD2012_e2_1",329,"Baseline","Valid",0,1,920.9203,"Include"
"JCD2012_e2","JCD2012_e2_1",330,"Deep","NoCue",1,6,1210.943,"Include"
"JCD2012_e2","JCD2012_e2_1",331,"Deep","Invalid",1,6,994.4956,"Include"
"JCD2012_e2","JCD2012_e2_1",332,"Deep","Valid",1,6,1169.178,"Include"
"JCD2012_e2","JCD2012_e2_1",333,"Baseline","Valid",0,1,1105.231,"Include"
"JCD2012_e2","JCD2012_e2_1",334,"Baseline","Valid",0,1,947.7048,"Include"
"JCD2012_e2","JCD2012_e2_1",335,"Shallow","Valid",1,3,2178.004,"Include"
"JCD2012_e2","JCD2012_e2_1",336,"Shallow","Valid",1,2,1589.173,"Include"
"JCD2012_e2","JCD2012_e2_1",337,"Baseline","Valid",0,1,1573.211,"Include"
"JCD2012_e2","JCD2012_e2_1",338,"Deep","Valid",1,6,1484.272,"Include"
"JCD2012_e2","JCD2012_e2_1",339,"Shallow","Valid",1,3,1552.168,"Include"
"JCD2012_e2","JCD2012_e2_1",340,"Baseline","Valid",0,1,3041.699,"Include"
"JCD2012_e2","JCD2012_e2_1",341,"Deep","NoCue",1,6,1126.237,"Include"
"JCD2012_e2","JCD2012_e2_1",342,"Deep","Valid",1,6,2642.374,"Include"
"JCD2012_e2","JCD2012_e2_1",343,"Baseline","Valid",0,1,1100.138,"Include"
"JCD2012_e2","JCD2012_e2_1",344,"Deep","NoCue",1,6,2183.087,"Include"
"JCD2012_e2","JCD2012_e2_1",345,"Shallow","NoCue",1,4,2524.91,"Include"
"JCD2012_e2","JCD2012_e2_1",346,"Baseline","Valid",0,3,2824.553,"Include"
"JCD2012_e2","JCD2012_e2_1",347,"Shallow","Valid",1,6,1531.487,"Include"
"JCD2012_e2","JCD2012_e2_1",348,"Shallow","Invalid",1,6,1089.311,"Include"
"JCD2012_e2","JCD2012_e2_1",349,"Deep","Valid",1,6,1147.096,"Include"
"JCD2012_e2","JCD2012_e2_1",350,"Baseline","NoCue",0,1,1562.808,"Include"
"JCD2012_e2","JCD2012_e2_1",351,"Baseline","NoCue",0,1,1605.154,"Include"
"JCD2012_e2","JCD2012_e2_1",352,"Baseline","Invalid",0,3,1547.601,"Include"
"JCD2012_e2","JCD2012_e2_1",353,"Shallow","Invalid",1,4,2420.785,"Include"
"JCD2012_e2","JCD2012_e2_1",354,"Baseline","NoCue",0,2,1673.263,"Include"
"JCD2012_e2","JCD2012_e2_1",355,"Baseline","Invalid",0,4,2598.288,"Include"
"JCD2012_e2","JCD2012_e2_1",356,"Shallow","Valid",1,6,1730.83,"Include"
"JCD2012_e2","JCD2012_e2_1",357,"Shallow","Valid",1,3,2388.986,"Include"
"JCD2012_e2","JCD2012_e2_1",358,"Baseline","Valid",0,1,4877.033,"Include"
"JCD2012_e2","JCD2012_e2_1",359,"Deep","Valid",1,6,1595.578,"Include"
"JCD2012_e2","JCD2012_e2_1",360,"Shallow","Invalid",1,1,1484.433,"Include"
"JCD2012_e2","JCD2012_e2_1",361,"Baseline","Valid",0,1,1216.148,"Include"
"JCD2012_e2","JCD2012_e2_1",362,"Shallow","Valid",1,3,3573.536,"Include"
"JCD2012_e2","JCD2012_e2_1",363,"Baseline","Invalid",0,3,4845.28,"Include"
"JCD2012_e2","JCD2012_e2_1",364,"Deep","NoCue",1,5,7968.316,"Include"
"JCD2012_e2","JCD2012_e2_1",365,"Shallow","Invalid",1,4,3936.707,"Include"
"JCD2012_e2","JCD2012_e2_1",366,"Shallow","Valid",1,5,1636.342,"Include"
"JCD2012_e2","JCD2012_e2_1",367,"Baseline","Valid",0,1,1089.684,"Include"
"JCD2012_e2","JCD2012_e2_1",368,"Shallow","Valid",1,6,1268.265,"Include"
"JCD2012_e2","JCD2012_e2_1",369,"Baseline","Valid",0,2,1936.696,"Include"
"JCD2012_e2","JCD2012_e2_1",370,"Baseline","NoCue",0,3,3472.586,"Include"
"JCD2012_e2","JCD2012_e2_1",371,"Deep","NoCue",1,6,2046.588,"Include"
"JCD2012_e2","JCD2012_e2_1",372,"Baseline","NoCue",0,4,2935.885,"Include"
"JCD2012_e2","JCD2012_e2_1",373,"Baseline","Invalid",0,3,2399.946,"Include"
"JCD2012_e2","JCD2012_e2_1",374,"Baseline","Valid",0,1,1736.367,"Include"
"JCD2012_e2","JCD2012_e2_1",375,"Baseline","Valid",0,3,4287.323,"Include"
"JCD2012_e2","JCD2012_e2_1",376,"Deep","Invalid",1,6,1473.687,"Include"
"JCD2012_e2","JCD2012_e2_1",377,"Baseline","Valid",0,1,957.6053,"Include"
"JCD2012_e2","JCD2012_e2_1",378,"Deep","Valid",1,4,2466.733,"Include"
"JCD2012_e2","JCD2012_e2_1",379,"Shallow","Invalid",1,2,2073.566,"Include"
"JCD2012_e2","JCD2012_e2_1",380,"Baseline","NoCue",0,1,1705.462,"Include"
"JCD2012_e2","JCD2012_e2_1",381,"Shallow","Invalid",1,1,1641.968,"Include"
"JCD2012_e2","JCD2012_e2_1",382,"Shallow","NoCue",1,1,984.482,"Include"
"JCD2012_e2","JCD2012_e2_1",383,"Shallow","Valid",1,6,3198.273,"Include"
"JCD2012_e2","JCD2012_e2_1",384,"Deep","Invalid",1,6,994.8475,"Include"
"JCD2012_e2","JCD2012_e2_1",385,"Baseline","Valid",0,1,1515.106,"Include"
"JCD2012_e2","JCD2012_e2_1",386,"Shallow","Invalid",1,2,3214.185,"Include"
"JCD2012_e2","JCD2012_e2_1",387,"Shallow","Valid",1,5,2083.361,"Include"
"JCD2012_e2","JCD2012_e2_1",388,"Deep","Invalid",1,6,1300.647,"Include"
"JCD2012_e2","JCD2012_e2_1",389,"Shallow","Valid",1,2,38441.29,"Include"
"JCD2012_e2","JCD2012_e2_1",390,"Deep","Valid",1,3,1689.803,"Include"
"JCD2012_e2","JCD2012_e2_1",391,"Deep","Invalid",1,6,2167.877,"Include"
"JCD2012_e2","JCD2012_e2_1",392,"Shallow","Valid",1,6,1505.58,"Include"
"JCD2012_e2","JCD2012_e2_1",393,"Baseline","Valid",0,1,1379.064,"Include"
"JCD2012_e2","JCD2012_e2_1",394,"Shallow","Valid",1,6,3403.561,"Include"
"JCD2012_e2","JCD2012_e2_1",395,"Deep","NoCue",1,6,2789.707,"Include"
"JCD2012_e2","JCD2012_e2_1",396,"Shallow","NoCue",1,2,1899.823,"Include"
"JCD2012_e2","JCD2012_e2_1",397,"Deep","Invalid",1,6,1594.904,"Include"
"JCD2012_e2","JCD2012_e2_1",398,"Shallow","Valid",1,3,2141.863,"Include"
"JCD2012_e2","JCD2012_e2_1",399,"Baseline","Valid",0,2,10488.7,"Include"
"JCD2012_e2","JCD2012_e2_1",400,"Shallow","Valid",1,5,941.8819,"Include"
"JCD2012_e2","JCD2012_e2_1",401,"Shallow","Valid",1,4,2704.184,"Include"
"JCD2012_e2","JCD2012_e2_1",402,"Baseline","Valid",0,1,1768.119,"Include"
"JCD2012_e2","JCD2012_e2_1",403,"Baseline","NoCue",0,1,1262.917,"Include"
"JCD2012_e2","JCD2012_e2_1",404,"Deep","Valid",1,6,1267.699,"Include"
"JCD2012_e2","JCD2012_e2_1",405,"Baseline","Valid",0,2,3577.228,"Include"
"JCD2012_e2","JCD2012_e2_1",406,"Baseline","Valid",0,1,1325.739,"Include"
"JCD2012_e2","JCD2012_e2_1",407,"Deep","Valid",1,6,1425.791,"Include"
"JCD2012_e2","JCD2012_e2_1",408,"Baseline","Invalid",0,3,2172.631,"Include"
"JCD2012_e2","JCD2012_e2_1",409,"Deep","Valid",1,6,1462.466,"Include"
"JCD2012_e2","JCD2012_e2_1",410,"Shallow","NoCue",1,6,1268.018,"Include"
"JCD2012_e2","JCD2012_e2_1",411,"Shallow","Valid",1,6,1289.898,"Include"
"JCD2012_e2","JCD2012_e2_1",412,"Shallow","NoCue",1,6,1074.15,"Include"
"JCD2012_e2","JCD2012_e2_1",413,"Shallow","Valid",1,6,695.0085,"Include"
"JCD2012_e2","JCD2012_e2_1",414,"Deep","Invalid",1,6,979.3182,"Include"
"JCD2012_e2","JCD2012_e2_1",415,"Deep","Valid",1,6,2224.761,"Include"
"JCD2012_e2","JCD2012_e2_1",416,"Deep","Valid",1,6,952,"Include"
"JCD2012_e2","JCD2012_e2_1",417,"Deep","Valid",1,6,2256.617,"Include"
"JCD2012_e2","JCD2012_e2_1",418,"Shallow","Valid",1,2,1667.565,"Include"
"JCD2012_e2","JCD2012_e2_1",419,"Shallow","Valid",1,6,800.1662,"Include"
"JCD2012_e2","JCD2012_e2_1",420,"Shallow","Valid",1,2,1431.444,"Include"
"JCD2012_e2","JCD2012_e2_1",421,"Baseline","Valid",0,2,2540.998,"Include"
"JCD2012_e2","JCD2012_e2_1",422,"Deep","Valid",1,6,1194.352,"Include"
"JCD2012_e2","JCD2012_e2_1",423,"Deep","Valid",1,6,1078.677,"Include"
"JCD2012_e2","JCD2012_e2_1",424,"Deep","Valid",1,6,826.1544,"Include"
"JCD2012_e2","JCD2012_e2_1",425,"Baseline","Invalid",0,1,1168.269,"Include"
"JCD2012_e2","JCD2012_e2_1",426,"Shallow","Valid",1,3,1889.593,"Include"
"JCD2012_e2","JCD2012_e2_1",427,"Shallow","Valid",1,3,1115.315,"Include"
"JCD2012_e2","JCD2012_e2_1",428,"Shallow","NoCue",1,3,5502.872,"Include"
"JCD2012_e2","JCD2012_e2_1",429,"Deep","Valid",1,3,2761.794,"Include"
"JCD2012_e2","JCD2012_e2_1",430,"Deep","Valid",1,6,1105.185,"Include"
"JCD2012_e2","JCD2012_e2_1",431,"Deep","Valid",1,6,669.0161,"Include"
"JCD2012_e2","JCD2012_e2_1",432,"Baseline","Invalid",0,1,1431.305,"Include"
"JCD2012_e2","JCD2012_e2_1",433,"Deep","Valid",1,6,1147.091,"Include"
"JCD2012_e2","JCD2012_e2_1",434,"Baseline","Valid",0,2,1967.79,"Include"
"JCD2012_e2","JCD2012_e2_1",435,"Deep","Valid",1,6,899.9876,"Include"
"JCD2012_e2","JCD2012_e2_1",436,"Baseline","Valid",0,2,2962.632,"Include"
"JCD2012_e2","JCD2012_e2_1",437,"Shallow","Valid",1,2,8906.382,"Include"
"JCD2012_e2","JCD2012_e2_1",438,"Deep","Valid",1,6,984.6443,"Include"
"JCD2012_e2","JCD2012_e2_1",439,"Shallow","NoCue",1,3,3124.314,"Include"
"JCD2012_e2","JCD2012_e2_1",440,"Baseline","Invalid",0,2,2504.06,"Include"
"JCD2012_e2","JCD2012_e2_1",441,"Deep","Valid",1,6,4535.089,"Include"
"JCD2012_e2","JCD2012_e2_1",442,"Deep","Valid",1,6,1678.487,"Include"
"JCD2012_e2","JCD2012_e2_1",443,"Baseline","Valid",0,1,24909,"Include"
"JCD2012_e2","JCD2012_e2_1",444,"Shallow","Invalid",1,1,879.4344,"Include"
"JCD2012_e2","JCD2012_e2_1",445,"Baseline","Valid",0,1,794.6791,"Include"
"JCD2012_e2","JCD2012_e2_1",446,"Shallow","Valid",1,4,2278.505,"Include"
"JCD2012_e2","JCD2012_e2_1",447,"Deep","Valid",1,6,979.0571,"Include"
"JCD2012_e2","JCD2012_e2_1",448,"Deep","Invalid",1,4,2603.442,"Include"
"JCD2012_e2","JCD2012_e2_1",449,"Deep","NoCue",1,5,1436.227,"Include"
"JCD2012_e2","JCD2012_e2_1",450,"Deep","Invalid",1,6,1189.418,"Include"
"JCD2012_e2","JCD2012_e2_10",1,"Deep","NoCue",1,6,14479.03,"Include"
"JCD2012_e2","JCD2012_e2_10",2,"Shallow","Valid",1,6,4246.849,"Include"
"JCD2012_e2","JCD2012_e2_10",3,"Baseline","Valid",0,1,6683.355,"Include"
"JCD2012_e2","JCD2012_e2_10",4,"Deep","Valid",1,6,1961.19,"Include"
"JCD2012_e2","JCD2012_e2_10",5,"Shallow","Valid",1,6,1174.651,"Include"
"JCD2012_e2","JCD2012_e2_10",6,"Deep","Valid",1,6,1348.831,"Include"
"JCD2012_e2","JCD2012_e2_10",7,"Deep","Invalid",1,6,1279.385,"Include"
"JCD2012_e2","JCD2012_e2_10",8,"Deep","Valid",1,6,1227.189,"Include"
"JCD2012_e2","JCD2012_e2_10",9,"Baseline","Valid",0,6,1772.641,"Include"
"JCD2012_e2","JCD2012_e2_10",10,"Deep","NoCue",1,6,1610.461,"Include"
"JCD2012_e2","JCD2012_e2_10",11,"Baseline","Valid",0,1,4523.612,"Include"
"JCD2012_e2","JCD2012_e2_10",12,"Baseline","NoCue",0,6,2228.19,"Include"
"JCD2012_e2","JCD2012_e2_10",13,"Shallow","Invalid",1,6,1698.951,"Include"
"JCD2012_e2","JCD2012_e2_10",14,"Shallow","Valid",1,6,2311.907,"Include"
"JCD2012_e2","JCD2012_e2_10",15,"Shallow","Valid",1,2,5598.05,"Include"
"JCD2012_e2","JCD2012_e2_10",16,"Shallow","NoCue",1,2,4314.505,"Include"
"JCD2012_e2","JCD2012_e2_10",17,"Deep","Valid",1,6,2600.288,"Include"
"JCD2012_e2","JCD2012_e2_10",18,"Shallow","Valid",1,6,2328.001,"Include"
"JCD2012_e2","JCD2012_e2_10",19,"Deep","Valid",1,6,2008.657,"Include"
"JCD2012_e2","JCD2012_e2_10",20,"Deep","NoCue",1,5,2364.884,"Include"
"JCD2012_e2","JCD2012_e2_10",21,"Deep","Invalid",1,6,1054.36,"Include"
"JCD2012_e2","JCD2012_e2_10",22,"Deep","Valid",1,6,949.4929,"Include"
"JCD2012_e2","JCD2012_e2_10",23,"Deep","Valid",1,6,871.0131,"Include"
"JCD2012_e2","JCD2012_e2_10",24,"Deep","Valid",1,6,860.3253,"Include"
"JCD2012_e2","JCD2012_e2_10",25,"Baseline","NoCue",0,1,1877.184,"Include"
"JCD2012_e2","JCD2012_e2_10",26,"Deep","Invalid",1,6,813.3777,"Include"
"JCD2012_e2","JCD2012_e2_10",27,"Deep","Valid",1,6,1238.168,"Include"
"JCD2012_e2","JCD2012_e2_10",28,"Baseline","NoCue",0,1,1358.037,"Include"
"JCD2012_e2","JCD2012_e2_10",29,"Deep","Valid",1,6,2192.326,"Include"
"JCD2012_e2","JCD2012_e2_10",30,"Deep","Invalid",1,6,1242.958,"Include"
"JCD2012_e2","JCD2012_e2_10",31,"Baseline","Valid",0,6,1965.893,"Include"
"JCD2012_e2","JCD2012_e2_10",32,"Shallow","Valid",1,6,1431.702,"Include"
"JCD2012_e2","JCD2012_e2_10",33,"Shallow","Valid",1,6,1494.591,"Include"
"JCD2012_e2","JCD2012_e2_10",34,"Shallow","NoCue",1,6,1044.102,"Include"
"JCD2012_e2","JCD2012_e2_10",35,"Deep","Valid",1,6,896.8879,"Include"
"JCD2012_e2","JCD2012_e2_10",36,"Deep","Valid",1,6,1007.294,"Include"
"JCD2012_e2","JCD2012_e2_10",37,"Baseline","Valid",0,1,2343.202,"Include"
"JCD2012_e2","JCD2012_e2_10",38,"Deep","Valid",1,6,1179.976,"Include"
"JCD2012_e2","JCD2012_e2_10",39,"Shallow","NoCue",1,6,1855.683,"Include"
"JCD2012_e2","JCD2012_e2_10",40,"Shallow","Valid",1,6,828.7988,"Include"
"JCD2012_e2","JCD2012_e2_10",41,"Baseline","Invalid",0,6,1887.866,"Include"
"JCD2012_e2","JCD2012_e2_10",42,"Deep","Invalid",1,6,1829.869,"Include"
"JCD2012_e2","JCD2012_e2_10",43,"Shallow","NoCue",1,5,3134.713,"Include"
"JCD2012_e2","JCD2012_e2_10",44,"Shallow","Valid",1,5,3067.465,"Include"
"JCD2012_e2","JCD2012_e2_10",45,"Deep","Invalid",1,6,1279.462,"Include"
"JCD2012_e2","JCD2012_e2_10",46,"Deep","NoCue",1,1,1809.29,"Include"
"JCD2012_e2","JCD2012_e2_10",47,"Shallow","NoCue",1,6,1410.659,"Include"
"JCD2012_e2","JCD2012_e2_10",48,"Shallow","Valid",1,2,1719.619,"Include"
"JCD2012_e2","JCD2012_e2_10",49,"Shallow","Valid",1,6,1504.996,"Include"
"JCD2012_e2","JCD2012_e2_10",50,"Baseline","Valid",0,1,1478.561,"Include"
"JCD2012_e2","JCD2012_e2_10",51,"Deep","Valid",1,6,1174.892,"Include"
"JCD2012_e2","JCD2012_e2_10",52,"Baseline","Invalid",0,6,1536.43,"Include"
"JCD2012_e2","JCD2012_e2_10",53,"Baseline","Invalid",0,1,1284.891,"Include"
"JCD2012_e2","JCD2012_e2_10",54,"Shallow","Invalid",1,5,4770.688,"Include"
"JCD2012_e2","JCD2012_e2_10",55,"Shallow","Valid",1,6,1080.733,"Include"
"JCD2012_e2","JCD2012_e2_10",56,"Shallow","Valid",1,6,697.884,"Include"
"JCD2012_e2","JCD2012_e2_10",57,"Deep","Valid",1,6,1730.2,"Include"
"JCD2012_e2","JCD2012_e2_10",58,"Shallow","Valid",1,6,996.5421,"Include"
"JCD2012_e2","JCD2012_e2_10",59,"Baseline","Valid",0,6,1657.088,"Include"
"JCD2012_e2","JCD2012_e2_10",60,"Baseline","Valid",0,6,912.7885,"Include"
"JCD2012_e2","JCD2012_e2_10",61,"Baseline","Valid",0,2,3773.784,"Include"
"JCD2012_e2","JCD2012_e2_10",62,"Baseline","Invalid",0,5,1358.101,"Include"
"JCD2012_e2","JCD2012_e2_10",63,"Deep","Valid",1,1,3292.343,"Include"
"JCD2012_e2","JCD2012_e2_10",64,"Deep","Valid",1,6,970.5336,"Include"
"JCD2012_e2","JCD2012_e2_10",65,"Baseline","Invalid",0,2,1756.69,"Include"
"JCD2012_e2","JCD2012_e2_10",66,"Baseline","Valid",0,2,2018.748,"Include"
"JCD2012_e2","JCD2012_e2_10",67,"Deep","NoCue",1,6,892.8164,"Include"
"JCD2012_e2","JCD2012_e2_10",68,"Baseline","Valid",0,6,672.0653,"Include"
"JCD2012_e2","JCD2012_e2_10",69,"Baseline","NoCue",0,6,755.3574,"Include"
"JCD2012_e2","JCD2012_e2_10",70,"Baseline","Valid",0,6,21.6396,"Include"
"JCD2012_e2","JCD2012_e2_10",71,"Shallow","Invalid",1,6,8778.41,"Include"
"JCD2012_e2","JCD2012_e2_10",72,"Shallow","Valid",1,6,1347.607,"Include"
"JCD2012_e2","JCD2012_e2_10",73,"Shallow","Valid",1,6,760.8158,"Include"
"JCD2012_e2","JCD2012_e2_10",74,"Deep","NoCue",1,6,1043.656,"Include"
"JCD2012_e2","JCD2012_e2_10",75,"Baseline","Valid",0,1,1148.907,"Include"
"JCD2012_e2","JCD2012_e2_10",76,"Baseline","Valid",0,6,681.9307,"Include"
"JCD2012_e2","JCD2012_e2_10",77,"Baseline","NoCue",0,1,866.1362,"Include"
"JCD2012_e2","JCD2012_e2_10",78,"Baseline","Valid",0,6,1379.414,"Include"
"JCD2012_e2","JCD2012_e2_10",79,"Shallow","Valid",1,2,1777.335,"Include"
"JCD2012_e2","JCD2012_e2_10",80,"Deep","Invalid",1,2,4675.158,"Include"
"JCD2012_e2","JCD2012_e2_10",81,"Baseline","Valid",0,6,3941.86,"Include"
"JCD2012_e2","JCD2012_e2_10",82,"Shallow","Valid",1,6,1112.061,"Include"
"JCD2012_e2","JCD2012_e2_10",83,"Shallow","Valid",1,6,3229.063,"Include"
"JCD2012_e2","JCD2012_e2_10",84,"Deep","Valid",1,6,813.1437,"Include"
"JCD2012_e2","JCD2012_e2_10",85,"Deep","Invalid",1,6,797.6593,"Include"
"JCD2012_e2","JCD2012_e2_10",86,"Deep","NoCue",1,6,608.6849,"Include"
"JCD2012_e2","JCD2012_e2_10",87,"Baseline","Invalid",0,1,2595.394,"Include"
"JCD2012_e2","JCD2012_e2_10",88,"Shallow","NoCue",1,6,6452.319,"Include"
"JCD2012_e2","JCD2012_e2_10",89,"Baseline","Invalid",0,6,981.6996,"Include"
"JCD2012_e2","JCD2012_e2_10",90,"Deep","Valid",1,6,739.5961,"Include"
"JCD2012_e2","JCD2012_e2_10",91,"Shallow","Invalid",1,6,970.2712,"Include"
"JCD2012_e2","JCD2012_e2_10",92,"Baseline","Valid",0,6,907.6763,"Include"
"JCD2012_e2","JCD2012_e2_10",93,"Baseline","Valid",0,5,1856.198,"Include"
"JCD2012_e2","JCD2012_e2_10",94,"Shallow","Invalid",1,6,1049.002,"Include"
"JCD2012_e2","JCD2012_e2_10",95,"Baseline","Invalid",0,2,1651.669,"Include"
"JCD2012_e2","JCD2012_e2_10",96,"Baseline","NoCue",0,3,3459.477,"Include"
"JCD2012_e2","JCD2012_e2_10",97,"Shallow","Valid",1,3,16665.57,"Include"
"JCD2012_e2","JCD2012_e2_10",98,"Baseline","Valid",0,3,1085.458,"Include"
"JCD2012_e2","JCD2012_e2_10",99,"Baseline","Valid",0,2,1829.766,"Include"
"JCD2012_e2","JCD2012_e2_10",100,"Shallow","Invalid",1,6,3832.06,"Include"
"JCD2012_e2","JCD2012_e2_10",101,"Baseline","Valid",0,5,1221.762,"Include"
"JCD2012_e2","JCD2012_e2_10",102,"Shallow","Valid",1,6,1756.528,"Include"
"JCD2012_e2","JCD2012_e2_10",103,"Baseline","Valid",0,1,1447.577,"Include"
"JCD2012_e2","JCD2012_e2_10",104,"Baseline","Valid",0,1,1028.027,"Include"
"JCD2012_e2","JCD2012_e2_10",105,"Deep","Valid",1,6,1012.324,"Include"
"JCD2012_e2","JCD2012_e2_10",106,"Deep","Valid",1,6,828.8421,"Include"
"JCD2012_e2","JCD2012_e2_10",107,"Baseline","Valid",0,1,4057.55,"Include"
"JCD2012_e2","JCD2012_e2_10",108,"Baseline","Invalid",0,2,5851.017,"Include"
"JCD2012_e2","JCD2012_e2_10",109,"Shallow","Valid",1,6,729.2486,"Include"
"JCD2012_e2","JCD2012_e2_10",110,"Baseline","Valid",0,1,4010.537,"Include"
"JCD2012_e2","JCD2012_e2_10",111,"Deep","Valid",1,6,697.736,"Include"
"JCD2012_e2","JCD2012_e2_10",112,"Deep","Valid",1,6,739.6107,"Include"
"JCD2012_e2","JCD2012_e2_10",113,"Baseline","NoCue",0,1,3538.615,"Include"
"JCD2012_e2","JCD2012_e2_10",114,"Deep","Valid",1,6,8580.393,"Include"
"JCD2012_e2","JCD2012_e2_10",115,"Baseline","NoCue",0,6,875.8063,"Include"
"JCD2012_e2","JCD2012_e2_10",116,"Deep","Valid",1,6,556.2316,"Include"
"JCD2012_e2","JCD2012_e2_10",117,"Shallow","Valid",1,6,776.4787,"Include"
"JCD2012_e2","JCD2012_e2_10",118,"Baseline","Valid",0,6,8659.703,"Include"
"JCD2012_e2","JCD2012_e2_10",119,"Shallow","Valid",1,6,8354.345,"Include"
"JCD2012_e2","JCD2012_e2_10",120,"Shallow","Valid",1,1,1143.64,"Include"
"JCD2012_e2","JCD2012_e2_10",121,"Baseline","Valid",0,1,771.1499,"Include"
"JCD2012_e2","JCD2012_e2_10",122,"Shallow","Valid",1,6,10818.49,"Include"
"JCD2012_e2","JCD2012_e2_10",123,"Shallow","Valid",1,6,734.5316,"Include"
"JCD2012_e2","JCD2012_e2_10",124,"Shallow","Invalid",1,1,545.9134,"Include"
"JCD2012_e2","JCD2012_e2_10",125,"Shallow","Invalid",1,1,655.9701,"Include"
"JCD2012_e2","JCD2012_e2_10",126,"Deep","Valid",1,2,1725.759,"Include"
"JCD2012_e2","JCD2012_e2_10",127,"Deep","Valid",1,6,1138.163,"Include"
"JCD2012_e2","JCD2012_e2_10",128,"Deep","NoCue",1,5,1259.16,"Include"
"JCD2012_e2","JCD2012_e2_10",129,"Shallow","Invalid",1,6,1845.145,"Include"
"JCD2012_e2","JCD2012_e2_10",130,"Deep","NoCue",1,6,1394.837,"Include"
"JCD2012_e2","JCD2012_e2_10",131,"Deep","Invalid",1,6,2941.221,"Include"
"JCD2012_e2","JCD2012_e2_10",132,"Deep","Valid",1,6,1044.419,"Include"
"JCD2012_e2","JCD2012_e2_10",133,"Shallow","Valid",1,6,739.7969,"Include"
"JCD2012_e2","JCD2012_e2_10",134,"Deep","NoCue",1,6,10560.55,"Include"
"JCD2012_e2","JCD2012_e2_10",135,"Shallow","Valid",1,6,713.5218,"Include"
"JCD2012_e2","JCD2012_e2_10",136,"Shallow","NoCue",1,6,640.1169,"Include"
"JCD2012_e2","JCD2012_e2_10",137,"Deep","Valid",1,6,3459.655,"Include"
"JCD2012_e2","JCD2012_e2_10",138,"Deep","Valid",1,6,897.0509,"Include"
"JCD2012_e2","JCD2012_e2_10",139,"Shallow","Valid",1,6,766.1564,"Include"
"JCD2012_e2","JCD2012_e2_10",140,"Shallow","Invalid",1,6,1132.944,"Include"
"JCD2012_e2","JCD2012_e2_10",141,"Shallow","NoCue",1,3,1584.054,"Include"
"JCD2012_e2","JCD2012_e2_10",142,"Shallow","NoCue",1,6,1054.643,"Include"
"JCD2012_e2","JCD2012_e2_10",143,"Baseline","NoCue",0,6,1059.427,"Include"
"JCD2012_e2","JCD2012_e2_10",144,"Baseline","Valid",0,1,2191.383,"Include"
"JCD2012_e2","JCD2012_e2_10",145,"Shallow","NoCue",1,6,9952.182,"Include"
"JCD2012_e2","JCD2012_e2_10",146,"Baseline","NoCue",0,6,650.7136,"Include"
"JCD2012_e2","JCD2012_e2_10",147,"Baseline","Invalid",0,6,729.1358,"Include"
"JCD2012_e2","JCD2012_e2_10",148,"Deep","Invalid",1,6,1059.602,"Include"
"JCD2012_e2","JCD2012_e2_10",149,"Baseline","Valid",0,6,729.3156,"Include"
"JCD2012_e2","JCD2012_e2_10",150,"Baseline","Valid",0,1,2894.128,"Include"
"JCD2012_e2","JCD2012_e2_10",151,"Shallow","Valid",1,6,5095.005,"Include"
"JCD2012_e2","JCD2012_e2_10",152,"Deep","Valid",1,6,802.921,"Include"
"JCD2012_e2","JCD2012_e2_10",153,"Deep","NoCue",1,6,1483.884,"Include"
"JCD2012_e2","JCD2012_e2_10",154,"Baseline","Valid",0,2,1515.195,"Include"
"JCD2012_e2","JCD2012_e2_10",155,"Baseline","Valid",0,3,1242.806,"Include"
"JCD2012_e2","JCD2012_e2_10",156,"Shallow","Valid",1,6,922.8651,"Include"
"JCD2012_e2","JCD2012_e2_10",157,"Shallow","Valid",1,6,833.9159,"Include"
"JCD2012_e2","JCD2012_e2_10",158,"Baseline","Invalid",0,6,2432.362,"Include"
"JCD2012_e2","JCD2012_e2_10",159,"Baseline","Valid",0,1,1028.18,"Include"
"JCD2012_e2","JCD2012_e2_10",160,"Baseline","Valid",0,1,2333.31,"Include"
"JCD2012_e2","JCD2012_e2_10",161,"Baseline","Invalid",0,3,1814.081,"Include"
"JCD2012_e2","JCD2012_e2_10",162,"Baseline","Valid",0,1,1593.726,"Include"
"JCD2012_e2","JCD2012_e2_10",163,"Baseline","Valid",0,1,2249.064,"Include"
"JCD2012_e2","JCD2012_e2_10",164,"Baseline","Invalid",0,1,2081.511,"Include"
"JCD2012_e2","JCD2012_e2_10",165,"Shallow","Valid",1,5,8784.38,"Include"
"JCD2012_e2","JCD2012_e2_10",166,"Deep","Valid",1,6,755.435,"Include"
"JCD2012_e2","JCD2012_e2_10",167,"Deep","Valid",1,5,881.293,"Include"
"JCD2012_e2","JCD2012_e2_10",168,"Shallow","Invalid",1,1,2432.54,"Include"
"JCD2012_e2","JCD2012_e2_10",169,"Baseline","Valid",0,4,1672.496,"Include"
"JCD2012_e2","JCD2012_e2_10",170,"Deep","NoCue",1,6,1269.472,"Include"
"JCD2012_e2","JCD2012_e2_10",171,"Baseline","Valid",0,3,2799.597,"Include"
"JCD2012_e2","JCD2012_e2_10",172,"Shallow","Invalid",1,6,1279.623,"Include"
"JCD2012_e2","JCD2012_e2_10",173,"Deep","Valid",1,6,949.4363,"Include"
"JCD2012_e2","JCD2012_e2_10",174,"Baseline","NoCue",0,6,13567.81,"Include"
"JCD2012_e2","JCD2012_e2_10",175,"Shallow","Valid",1,6,960.1353,"Include"
"JCD2012_e2","JCD2012_e2_10",176,"Deep","Valid",1,6,1137.884,"Include"
"JCD2012_e2","JCD2012_e2_10",177,"Shallow","Invalid",1,6,870.8282,"Include"
"JCD2012_e2","JCD2012_e2_10",178,"Shallow","Valid",1,5,2443.401,"Include"
"JCD2012_e2","JCD2012_e2_10",179,"Baseline","Valid",0,6,2301.437,"Include"
"JCD2012_e2","JCD2012_e2_10",180,"Deep","Valid",1,6,1054.326,"Include"
"JCD2012_e2","JCD2012_e2_10",181,"Shallow","Valid",1,0,0.622,"Exclude"
"JCD2012_e2","JCD2012_e2_10",182,"Shallow","Valid",1,6,839.2063,"Include"
"JCD2012_e2","JCD2012_e2_10",183,"Baseline","NoCue",0,6,1792.837,"Include"
"JCD2012_e2","JCD2012_e2_10",184,"Baseline","Valid",0,2,3601.142,"Include"
"JCD2012_e2","JCD2012_e2_10",185,"Deep","Valid",1,6,561.563,"Include"
"JCD2012_e2","JCD2012_e2_10",186,"Deep","Valid",1,6,750.1872,"Include"
"JCD2012_e2","JCD2012_e2_10",187,"Deep","NoCue",1,1,1578.478,"Include"
"JCD2012_e2","JCD2012_e2_10",188,"Deep","Valid",1,6,645.6362,"Include"
"JCD2012_e2","JCD2012_e2_10",189,"Baseline","Valid",0,2,2641.861,"Include"
"JCD2012_e2","JCD2012_e2_10",190,"Baseline","Invalid",0,1,2055.347,"Include"
"JCD2012_e2","JCD2012_e2_10",191,"Shallow","Valid",1,3,2814.7,"Include"
"JCD2012_e2","JCD2012_e2_10",192,"Baseline","Valid",0,1,1489.078,"Include"
"JCD2012_e2","JCD2012_e2_10",193,"Deep","NoCue",1,6,1038.578,"Include"
"JCD2012_e2","JCD2012_e2_10",194,"Baseline","Valid",0,1,2050.207,"Include"
"JCD2012_e2","JCD2012_e2_10",195,"Shallow","Invalid",1,1,1730.159,"Include"
"JCD2012_e2","JCD2012_e2_10",196,"Deep","Invalid",1,6,1725.208,"Include"
"JCD2012_e2","JCD2012_e2_10",197,"Baseline","Valid",0,6,1630,"Include"
"JCD2012_e2","JCD2012_e2_10",198,"Shallow","Valid",1,6,2448.716,"Include"
"JCD2012_e2","JCD2012_e2_10",199,"Baseline","Valid",0,6,1033.224,"Include"
"JCD2012_e2","JCD2012_e2_10",200,"Deep","Valid",1,6,729.301,"Include"
"JCD2012_e2","JCD2012_e2_10",201,"Deep","Valid",1,6,986.1954,"Include"
"JCD2012_e2","JCD2012_e2_10",202,"Deep","Valid",1,6,719.0218,"Include"
"JCD2012_e2","JCD2012_e2_10",203,"Baseline","Invalid",0,6,813.2674,"Include"
"JCD2012_e2","JCD2012_e2_10",204,"Deep","Valid",1,6,687.5616,"Include"
"JCD2012_e2","JCD2012_e2_10",205,"Shallow","Valid",1,6,7667.766,"Include"
"JCD2012_e2","JCD2012_e2_10",206,"Baseline","Invalid",0,6,844.4242,"Include"
"JCD2012_e2","JCD2012_e2_10",207,"Deep","Invalid",1,6,1400.408,"Include"
"JCD2012_e2","JCD2012_e2_10",208,"Baseline","Valid",0,1,3784.056,"Include"
"JCD2012_e2","JCD2012_e2_10",209,"Shallow","NoCue",1,6,4575.689,"Include"
"JCD2012_e2","JCD2012_e2_10",210,"Shallow","NoCue",1,1,1321.541,"Include"
"JCD2012_e2","JCD2012_e2_10",211,"Shallow","NoCue",1,6,3046.52,"Include"
"JCD2012_e2","JCD2012_e2_10",212,"Baseline","Valid",0,6,676.5251,"Include"
"JCD2012_e2","JCD2012_e2_10",213,"Shallow","Valid",1,6,1253.309,"Include"
"JCD2012_e2","JCD2012_e2_10",214,"Deep","Invalid",1,6,8237.635,"Include"
"JCD2012_e2","JCD2012_e2_10",215,"Deep","Valid",1,6,765.7705,"Include"
"JCD2012_e2","JCD2012_e2_10",216,"Shallow","Valid",1,1,1473.285,"Include"
"JCD2012_e2","JCD2012_e2_10",217,"Baseline","NoCue",0,6,1489.086,"Include"
"JCD2012_e2","JCD2012_e2_10",218,"Shallow","NoCue",1,2,613.9056,"Include"
"JCD2012_e2","JCD2012_e2_10",219,"Deep","NoCue",1,2,2674.14,"Include"
"JCD2012_e2","JCD2012_e2_10",220,"Shallow","Valid",1,6,1174.581,"Include"
"JCD2012_e2","JCD2012_e2_10",221,"Shallow","Valid",1,6,4078.524,"Include"
"JCD2012_e2","JCD2012_e2_10",222,"Shallow","Invalid",1,1,1384.358,"Include"
"JCD2012_e2","JCD2012_e2_10",223,"Deep","Valid",1,6,844.9549,"Include"
"JCD2012_e2","JCD2012_e2_10",224,"Deep","Valid",1,6,634.8567,"Include"
"JCD2012_e2","JCD2012_e2_10",225,"Deep","Valid",1,6,556.5935,"Include"
"JCD2012_e2","JCD2012_e2_10",226,"Baseline","Valid",0,6,766.0017,"Include"
"JCD2012_e2","JCD2012_e2_10",227,"Deep","NoCue",1,5,8800.364,"Include"
"JCD2012_e2","JCD2012_e2_10",228,"Deep","NoCue",1,6,1452.33,"Include"
"JCD2012_e2","JCD2012_e2_10",229,"Deep","Valid",1,6,786.9674,"Include"
"JCD2012_e2","JCD2012_e2_10",230,"Shallow","NoCue",1,6,1127.347,"Include"
"JCD2012_e2","JCD2012_e2_10",231,"Baseline","NoCue",0,6,739.6238,"Include"
"JCD2012_e2","JCD2012_e2_10",232,"Baseline","Valid",0,1,1636.1,"Include"
"JCD2012_e2","JCD2012_e2_10",233,"Deep","Valid",1,6,813.3898,"Include"
"JCD2012_e2","JCD2012_e2_10",234,"Baseline","Valid",0,6,1118.017,"Include"
"JCD2012_e2","JCD2012_e2_10",235,"Baseline","Invalid",0,6,1075.176,"Include"
"JCD2012_e2","JCD2012_e2_10",236,"Shallow","Valid",1,6,938.8469,"Include"
"JCD2012_e2","JCD2012_e2_10",237,"Baseline","NoCue",0,1,1557.551,"Include"
"JCD2012_e2","JCD2012_e2_10",238,"Deep","Valid",1,5,1038.643,"Include"
"JCD2012_e2","JCD2012_e2_10",239,"Baseline","Valid",0,6,1400.022,"Include"
"JCD2012_e2","JCD2012_e2_10",240,"Baseline","Valid",0,6,6305.149,"Include"
"JCD2012_e2","JCD2012_e2_10",241,"Shallow","Valid",1,1,84.52141,"Include"
"JCD2012_e2","JCD2012_e2_10",242,"Shallow","NoCue",1,6,1347.685,"Include"
"JCD2012_e2","JCD2012_e2_10",243,"Shallow","Valid",1,6,545.9301,"Include"
"JCD2012_e2","JCD2012_e2_10",244,"Deep","Valid",1,6,519.641,"Include"
"JCD2012_e2","JCD2012_e2_10",245,"Deep","NoCue",1,6,1022.883,"Include"
"JCD2012_e2","JCD2012_e2_10",246,"Baseline","Invalid",0,1,4937.394,"Include"
"JCD2012_e2","JCD2012_e2_10",247,"Deep","Invalid",1,6,944.1465,"Include"
"JCD2012_e2","JCD2012_e2_10",248,"Baseline","NoCue",0,6,1069.59,"Include"
"JCD2012_e2","JCD2012_e2_10",249,"Baseline","Valid",0,6,498.7329,"Include"
"JCD2012_e2","JCD2012_e2_10",250,"Shallow","Valid",1,6,697.9816,"Include"
"JCD2012_e2","JCD2012_e2_10",251,"Deep","Valid",1,6,467.1683,"Include"
"JCD2012_e2","JCD2012_e2_10",252,"Shallow","Valid",1,6,1227.295,"Include"
"JCD2012_e2","JCD2012_e2_10",253,"Deep","Invalid",1,6,692.6662,"Include"
"JCD2012_e2","JCD2012_e2_10",254,"Deep","Invalid",1,6,635.0253,"Include"
"JCD2012_e2","JCD2012_e2_10",255,"Baseline","Valid",0,6,844.5685,"Include"
"JCD2012_e2","JCD2012_e2_10",256,"Shallow","Valid",1,6,1536.184,"Include"
"JCD2012_e2","JCD2012_e2_10",257,"Baseline","NoCue",0,6,1625.2,"Include"
"JCD2012_e2","JCD2012_e2_10",258,"Shallow","NoCue",1,6,3622.631,"Include"
"JCD2012_e2","JCD2012_e2_10",259,"Baseline","Invalid",0,6,603.3987,"Include"
"JCD2012_e2","JCD2012_e2_10",260,"Shallow","Valid",1,6,677.1037,"Include"
"JCD2012_e2","JCD2012_e2_10",261,"Shallow","Invalid",1,1,729.3778,"Include"
"JCD2012_e2","JCD2012_e2_10",262,"Shallow","Valid",1,6,844.7725,"Include"
"JCD2012_e2","JCD2012_e2_10",263,"Baseline","Valid",0,6,1997.403,"Include"
"JCD2012_e2","JCD2012_e2_10",264,"Deep","Valid",1,1,1264.245,"Include"
"JCD2012_e2","JCD2012_e2_10",265,"Shallow","NoCue",1,6,1415.657,"Include"
"JCD2012_e2","JCD2012_e2_10",266,"Deep","Valid",1,6,5964.386,"Include"
"JCD2012_e2","JCD2012_e2_10",267,"Baseline","Valid",0,6,4664.712,"Include"
"JCD2012_e2","JCD2012_e2_10",268,"Deep","Invalid",1,6,582.5743,"Include"
"JCD2012_e2","JCD2012_e2_10",269,"Baseline","Invalid",0,6,425.238,"Include"
"JCD2012_e2","JCD2012_e2_10",270,"Baseline","Valid",0,2,876.0134,"Include"
"JCD2012_e2","JCD2012_e2_10",271,"Deep","Valid",1,6,760.9212,"Include"
"JCD2012_e2","JCD2012_e2_10",272,"Deep","NoCue",1,6,655.8086,"Include"
"JCD2012_e2","JCD2012_e2_10",273,"Baseline","NoCue",0,6,593.1787,"Include"
"JCD2012_e2","JCD2012_e2_10",274,"Shallow","NoCue",1,6,613.9449,"Include"
"JCD2012_e2","JCD2012_e2_10",275,"Baseline","NoCue",0,6,561.3576,"Include"
"JCD2012_e2","JCD2012_e2_10",276,"Shallow","Valid",1,6,509.192,"Include"
"JCD2012_e2","JCD2012_e2_10",277,"Shallow","Valid",1,6,577.1177,"Include"
"JCD2012_e2","JCD2012_e2_10",278,"Shallow","NoCue",1,6,4544.654,"Include"
"JCD2012_e2","JCD2012_e2_10",279,"Shallow","Valid",1,6,8767.804,"Include"
"JCD2012_e2","JCD2012_e2_10",280,"Deep","Invalid",1,6,624.4037,"Include"
"JCD2012_e2","JCD2012_e2_10",281,"Baseline","Valid",0,6,567.2159,"Include"
"JCD2012_e2","JCD2012_e2_10",282,"Baseline","Valid",0,6,504.0205,"Include"
"JCD2012_e2","JCD2012_e2_10",283,"Shallow","Invalid",1,6,807.6619,"Include"
"JCD2012_e2","JCD2012_e2_10",284,"Deep","Invalid",1,1,923.0719,"Include"
"JCD2012_e2","JCD2012_e2_10",285,"Shallow","Valid",1,6,315.1487,"Include"
"JCD2012_e2","JCD2012_e2_10",286,"Deep","Valid",1,6,10462.42,"Include"
"JCD2012_e2","JCD2012_e2_10",287,"Deep","Valid",1,6,797.4058,"Include"
"JCD2012_e2","JCD2012_e2_10",288,"Baseline","Valid",0,6,1494.406,"Include"
"JCD2012_e2","JCD2012_e2_10",289,"Shallow","Invalid",1,6,2254.276,"Include"
"JCD2012_e2","JCD2012_e2_10",290,"Shallow","Valid",1,5,1337.335,"Include"
"JCD2012_e2","JCD2012_e2_10",291,"Deep","Valid",1,5,0.605,"Include"
"JCD2012_e2","JCD2012_e2_10",292,"Shallow","Valid",1,5,0.6,"Include"
"JCD2012_e2","JCD2012_e2_10",293,"Deep","Valid",1,6,745.3701,"Include"
"JCD2012_e2","JCD2012_e2_10",294,"Deep","Valid",1,6,970.3203,"Include"
"JCD2012_e2","JCD2012_e2_10",295,"Deep","NoCue",1,6,3778.854,"Include"
"JCD2012_e2","JCD2012_e2_10",296,"Shallow","Invalid",1,6,4172.064,"Include"
"JCD2012_e2","JCD2012_e2_10",297,"Deep","Invalid",1,6,1515.589,"Include"
"JCD2012_e2","JCD2012_e2_10",298,"Baseline","NoCue",0,6,1305.545,"Include"
"JCD2012_e2","JCD2012_e2_10",299,"Shallow","Valid",1,6,545.7046,"Include"
"JCD2012_e2","JCD2012_e2_10",300,"Shallow","Invalid",1,6,420.0847,"Include"
"JCD2012_e2","JCD2012_e2_10",301,"Shallow","Invalid",1,1,3768.413,"Include"
"JCD2012_e2","JCD2012_e2_10",302,"Deep","Invalid",1,6,1944.975,"Include"
"JCD2012_e2","JCD2012_e2_10",303,"Shallow","Invalid",1,2,1992.418,"Include"
"JCD2012_e2","JCD2012_e2_10",304,"Baseline","Valid",0,2,1227.496,"Include"
"JCD2012_e2","JCD2012_e2_10",305,"Shallow","NoCue",1,1,1342.407,"Include"
"JCD2012_e2","JCD2012_e2_10",306,"Shallow","Valid",1,3,2323.191,"Include"
"JCD2012_e2","JCD2012_e2_10",307,"Baseline","NoCue",0,3,1583.538,"Include"
"JCD2012_e2","JCD2012_e2_10",308,"Baseline","Invalid",0,5,7914.466,"Include"
"JCD2012_e2","JCD2012_e2_10",309,"Shallow","Valid",1,3,3700.526,"Include"
"JCD2012_e2","JCD2012_e2_10",310,"Shallow","Invalid",1,3,3323.059,"Include"
"JCD2012_e2","JCD2012_e2_10",311,"Deep","Valid",1,1,3957.746,"Include"
"JCD2012_e2","JCD2012_e2_10",312,"Deep","Valid",1,6,1027.911,"Include"
"JCD2012_e2","JCD2012_e2_10",313,"Shallow","NoCue",1,6,1101.4,"Include"
"JCD2012_e2","JCD2012_e2_10",314,"Deep","NoCue",1,6,812.8633,"Include"
"JCD2012_e2","JCD2012_e2_10",315,"Deep","Valid",1,6,1504.615,"Include"
"JCD2012_e2","JCD2012_e2_10",316,"Baseline","NoCue",0,6,1840.382,"Include"
"JCD2012_e2","JCD2012_e2_10",317,"Baseline","Invalid",0,6,1290.137,"Include"
"JCD2012_e2","JCD2012_e2_10",318,"Baseline","NoCue",0,6,1158.868,"Include"
"JCD2012_e2","JCD2012_e2_10",319,"Deep","Valid",1,6,1185.17,"Include"
"JCD2012_e2","JCD2012_e2_10",320,"Baseline","Valid",0,1,1358.02,"Include"
"JCD2012_e2","JCD2012_e2_10",321,"Baseline","Valid",0,6,1174.697,"Include"
"JCD2012_e2","JCD2012_e2_10",322,"Deep","Valid",1,2,2338.107,"Include"
"JCD2012_e2","JCD2012_e2_10",323,"Deep","NoCue",1,6,1250,"Include"
"JCD2012_e2","JCD2012_e2_10",324,"Shallow","Invalid",1,2,2537.117,"Include"
"JCD2012_e2","JCD2012_e2_10",325,"Baseline","Valid",0,3,1043.622,"Include"
"JCD2012_e2","JCD2012_e2_10",326,"Shallow","Valid",1,4,2914.857,"Include"
"JCD2012_e2","JCD2012_e2_10",327,"Deep","Invalid",1,3,1143.22,"Include"
"JCD2012_e2","JCD2012_e2_10",328,"Shallow","Invalid",1,5,199.9058,"Include"
"JCD2012_e2","JCD2012_e2_10",329,"Shallow","Valid",1,6,2144.487,"Include"
"JCD2012_e2","JCD2012_e2_10",330,"Deep","Valid",1,1,2159.912,"Include"
"JCD2012_e2","JCD2012_e2_10",331,"Shallow","Invalid",1,6,4585.963,"Include"
"JCD2012_e2","JCD2012_e2_10",332,"Shallow","Valid",1,6,655.815,"Include"
"JCD2012_e2","JCD2012_e2_10",333,"Baseline","Invalid",0,6,965.6358,"Include"
"JCD2012_e2","JCD2012_e2_10",334,"Shallow","NoCue",1,6,844.9359,"Include"
"JCD2012_e2","JCD2012_e2_10",335,"Baseline","Valid",0,6,766.0135,"Include"
"JCD2012_e2","JCD2012_e2_10",336,"Baseline","Valid",0,2,991.7838,"Include"
"JCD2012_e2","JCD2012_e2_10",337,"Baseline","Valid",0,6,1269.578,"Include"
"JCD2012_e2","JCD2012_e2_10",338,"Shallow","Valid",1,2,750.7711,"Include"
"JCD2012_e2","JCD2012_e2_10",339,"Deep","Valid",1,3,435.676,"Include"
"JCD2012_e2","JCD2012_e2_10",340,"Baseline","NoCue",0,1,1264.174,"Include"
"JCD2012_e2","JCD2012_e2_10",341,"Baseline","Valid",0,6,4811.546,"Include"
"JCD2012_e2","JCD2012_e2_10",342,"Baseline","Valid",0,1,2840.987,"Include"
"JCD2012_e2","JCD2012_e2_10",343,"Shallow","Invalid",1,1,1122.799,"Include"
"JCD2012_e2","JCD2012_e2_10",344,"Shallow","Valid",1,1,1279.657,"Include"
"JCD2012_e2","JCD2012_e2_10",345,"Baseline","Invalid",0,1,1311.05,"Include"
"JCD2012_e2","JCD2012_e2_10",346,"Baseline","Invalid",0,1,797.3268,"Include"
"JCD2012_e2","JCD2012_e2_10",347,"Shallow","Valid",1,6,750.1178,"Include"
"JCD2012_e2","JCD2012_e2_10",348,"Shallow","Invalid",1,6,765.8693,"Include"
"JCD2012_e2","JCD2012_e2_10",349,"Deep","NoCue",1,6,672.1803,"Include"
"JCD2012_e2","JCD2012_e2_10",350,"Deep","Invalid",1,6,692.4221,"Include"
"JCD2012_e2","JCD2012_e2_10",351,"Deep","Valid",1,2,792.2579,"Include"
"JCD2012_e2","JCD2012_e2_10",352,"Deep","Valid",1,6,546.1946,"Include"
"JCD2012_e2","JCD2012_e2_10",353,"Deep","NoCue",1,6,1164.34,"Include"
"JCD2012_e2","JCD2012_e2_10",354,"Baseline","Valid",0,6,1347.818,"Include"
"JCD2012_e2","JCD2012_e2_10",355,"Deep","NoCue",1,6,4256.596,"Include"
"JCD2012_e2","JCD2012_e2_10",356,"Deep","Valid",1,6,493.957,"Include"
"JCD2012_e2","JCD2012_e2_10",357,"Baseline","Valid",0,6,2600.592,"Include"
"JCD2012_e2","JCD2012_e2_10",358,"Deep","Valid",1,6,666.398,"Include"
"JCD2012_e2","JCD2012_e2_10",359,"Shallow","Valid",1,6,514.536,"Include"
"JCD2012_e2","JCD2012_e2_10",360,"Baseline","NoCue",0,6,2391.198,"Include"
"JCD2012_e2","JCD2012_e2_10",361,"Deep","NoCue",1,6,1043.77,"Include"
"JCD2012_e2","JCD2012_e2_10",362,"Baseline","Valid",0,6,876.0161,"Include"
"JCD2012_e2","JCD2012_e2_10",363,"Deep","Valid",1,6,1059.827,"Include"
"JCD2012_e2","JCD2012_e2_10",364,"Deep","NoCue",1,1,1515.157,"Include"
"JCD2012_e2","JCD2012_e2_10",365,"Deep","Valid",1,6,1153.606,"Include"
"JCD2012_e2","JCD2012_e2_10",366,"Baseline","NoCue",0,1,1767.109,"Include"
"JCD2012_e2","JCD2012_e2_10",367,"Shallow","Valid",1,6,933.8181,"Include"
"JCD2012_e2","JCD2012_e2_10",368,"Baseline","Valid",0,2,451.5771,"Include"
"JCD2012_e2","JCD2012_e2_10",369,"Shallow","Valid",1,6,1200.853,"Include"
"JCD2012_e2","JCD2012_e2_10",370,"Baseline","Valid",0,6,1536.222,"Include"
"JCD2012_e2","JCD2012_e2_10",371,"Deep","Valid",1,6,991.1796,"Include"
"JCD2012_e2","JCD2012_e2_10",372,"Baseline","NoCue",0,2,2102.704,"Include"
"JCD2012_e2","JCD2012_e2_10",373,"Shallow","Valid",1,6,1164.527,"Include"
"JCD2012_e2","JCD2012_e2_10",374,"Deep","Valid",1,5,870.8608,"Include"
"JCD2012_e2","JCD2012_e2_10",375,"Baseline","Invalid",0,6,955.1941,"Include"
"JCD2012_e2","JCD2012_e2_10",376,"Shallow","Valid",1,6,7736.121,"Include"
"JCD2012_e2","JCD2012_e2_10",377,"Shallow","NoCue",1,6,1284.897,"Include"
"JCD2012_e2","JCD2012_e2_10",378,"Shallow","Valid",1,1,1321.594,"Include"
"JCD2012_e2","JCD2012_e2_10",379,"Baseline","Valid",0,1,1169.355,"Include"
"JCD2012_e2","JCD2012_e2_10",380,"Deep","Valid",1,6,750.2031,"Include"
"JCD2012_e2","JCD2012_e2_10",381,"Baseline","Invalid",0,1,1619.944,"Include"
"JCD2012_e2","JCD2012_e2_10",382,"Shallow","Valid",1,6,1515.962,"Include"
"JCD2012_e2","JCD2012_e2_10",383,"Deep","Valid",1,6,1290.306,"Include"
"JCD2012_e2","JCD2012_e2_10",384,"Shallow","NoCue",1,6,1615.43,"Include"
"JCD2012_e2","JCD2012_e2_10",385,"Shallow","Valid",1,4,2265.638,"Include"
"JCD2012_e2","JCD2012_e2_10",386,"Deep","Valid",1,6,1745.942,"Include"
"JCD2012_e2","JCD2012_e2_10",387,"Deep","Invalid",1,6,771.8283,"Include"
"JCD2012_e2","JCD2012_e2_10",388,"Deep","Valid",1,6,745.4621,"Include"
"JCD2012_e2","JCD2012_e2_10",389,"Shallow","Valid",1,2,1138.448,"Include"
"JCD2012_e2","JCD2012_e2_10",390,"Deep","Valid",1,6,1059.314,"Include"
"JCD2012_e2","JCD2012_e2_10",391,"Deep","Valid",1,5,828.6232,"Include"
"JCD2012_e2","JCD2012_e2_10",392,"Baseline","Valid",0,0,797.4985,"Exclude"
"JCD2012_e2","JCD2012_e2_10",393,"Shallow","Valid",1,1,3564.836,"Include"
"JCD2012_e2","JCD2012_e2_10",394,"Shallow","Valid",1,6,1264.034,"Include"
"JCD2012_e2","JCD2012_e2_10",395,"Deep","Valid",1,6,1677.914,"Include"
"JCD2012_e2","JCD2012_e2_10",396,"Baseline","Valid",0,6,750.4465,"Include"
"JCD2012_e2","JCD2012_e2_10",397,"Baseline","Invalid",0,1,802.9212,"Include"
"JCD2012_e2","JCD2012_e2_10",398,"Shallow","NoCue",1,6,959.8435,"Include"
"JCD2012_e2","JCD2012_e2_10",399,"Baseline","NoCue",0,6,661.066,"Include"
"JCD2012_e2","JCD2012_e2_10",400,"Deep","Invalid",1,1,828.9064,"Include"
"JCD2012_e2","JCD2012_e2_10",401,"Baseline","Invalid",0,6,708.4172,"Include"
"JCD2012_e2","JCD2012_e2_10",402,"Deep","Invalid",1,6,8118.421,"Include"
"JCD2012_e2","JCD2012_e2_10",403,"Shallow","Valid",1,6,1206.426,"Include"
"JCD2012_e2","JCD2012_e2_10",404,"Baseline","Valid",0,6,2139.236,"Include"
"JCD2012_e2","JCD2012_e2_10",405,"Shallow","Valid",1,1,807.982,"Include"
"JCD2012_e2","JCD2012_e2_10",406,"Deep","Valid",1,3,1562.444,"Include"
"JCD2012_e2","JCD2012_e2_10",407,"Shallow","Invalid",1,1,1903.02,"Include"
"JCD2012_e2","JCD2012_e2_10",408,"Baseline","Valid",0,6,849.8995,"Include"
"JCD2012_e2","JCD2012_e2_10",409,"Baseline","NoCue",0,6,650.5938,"Include"
"JCD2012_e2","JCD2012_e2_10",410,"Shallow","Valid",1,6,1038.586,"Include"
"JCD2012_e2","JCD2012_e2_10",411,"Deep","Valid",1,2,241.7424,"Include"
"JCD2012_e2","JCD2012_e2_10",412,"Deep","Invalid",1,2,1127.915,"Include"
"JCD2012_e2","JCD2012_e2_10",413,"Deep","Invalid",1,6,718.7677,"Include"
"JCD2012_e2","JCD2012_e2_10",414,"Shallow","Valid",1,6,2343.504,"Include"
"JCD2012_e2","JCD2012_e2_10",415,"Shallow","Valid",1,6,697.7558,"Include"
"JCD2012_e2","JCD2012_e2_10",416,"Baseline","Valid",0,1,913,"Include"
"JCD2012_e2","JCD2012_e2_10",417,"Baseline","Valid",0,1,1143.912,"Include"
"JCD2012_e2","JCD2012_e2_10",418,"Deep","Invalid",1,6,776.6433,"Include"
"JCD2012_e2","JCD2012_e2_10",419,"Baseline","NoCue",0,3,2391.024,"Include"
"JCD2012_e2","JCD2012_e2_10",420,"Deep","Valid",1,4,1850.577,"Include"
"JCD2012_e2","JCD2012_e2_10",421,"Baseline","Valid",0,6,975.5753,"Include"
"JCD2012_e2","JCD2012_e2_10",422,"Deep","Valid",1,6,813.2324,"Include"
"JCD2012_e2","JCD2012_e2_10",423,"Baseline","Valid",0,6,781.8886,"Include"
"JCD2012_e2","JCD2012_e2_10",424,"Deep","NoCue",1,5,986.3406,"Include"
"JCD2012_e2","JCD2012_e2_10",425,"Baseline","Valid",0,4,692.487,"Include"
"JCD2012_e2","JCD2012_e2_10",426,"Deep","Valid",1,6,6908.522,"Include"
"JCD2012_e2","JCD2012_e2_10",427,"Shallow","NoCue",1,6,756.0256,"Include"
"JCD2012_e2","JCD2012_e2_10",428,"Baseline","Valid",0,6,834.1117,"Include"
"JCD2012_e2","JCD2012_e2_10",429,"Baseline","Invalid",0,6,818.2599,"Include"
"JCD2012_e2","JCD2012_e2_10",430,"Shallow","Valid",1,6,1028.127,"Include"
"JCD2012_e2","JCD2012_e2_10",431,"Deep","Valid",1,6,1127.334,"Include"
"JCD2012_e2","JCD2012_e2_10",432,"Baseline","Valid",0,1,923.2474,"Include"
"JCD2012_e2","JCD2012_e2_10",433,"Deep","Invalid",1,6,739.7195,"Include"
"JCD2012_e2","JCD2012_e2_10",434,"Baseline","Valid",0,1,1164.287,"Include"
"JCD2012_e2","JCD2012_e2_10",435,"Deep","Valid",1,6,3076.95,"Include"
"JCD2012_e2","JCD2012_e2_10",436,"Shallow","NoCue",1,6,1484.036,"Include"
"JCD2012_e2","JCD2012_e2_10",437,"Shallow","Valid",1,6,745.05,"Include"
"JCD2012_e2","JCD2012_e2_10",438,"Baseline","Valid",0,6,745.0045,"Include"
"JCD2012_e2","JCD2012_e2_10",439,"Shallow","Valid",1,6,566.7238,"Include"
"JCD2012_e2","JCD2012_e2_10",440,"Deep","NoCue",1,6,813.3793,"Include"
"JCD2012_e2","JCD2012_e2_10",441,"Shallow","NoCue",1,6,1269.416,"Include"
"JCD2012_e2","JCD2012_e2_10",442,"Shallow","Invalid",1,6,902.3747,"Include"
"JCD2012_e2","JCD2012_e2_10",443,"Shallow","NoCue",1,4,1683.23,"Include"
"JCD2012_e2","JCD2012_e2_10",444,"Shallow","Valid",1,2,1483.943,"Include"
"JCD2012_e2","JCD2012_e2_10",445,"Deep","NoCue",1,6,9039.889,"Include"
"JCD2012_e2","JCD2012_e2_10",446,"Deep","Valid",1,6,561.2414,"Include"
"JCD2012_e2","JCD2012_e2_10",447,"Baseline","Valid",0,3,1615.175,"Include"
"JCD2012_e2","JCD2012_e2_10",448,"Shallow","Valid",1,6,881.2649,"Include"
"JCD2012_e2","JCD2012_e2_10",449,"Baseline","Valid",0,5,1641.293,"Include"
"JCD2012_e2","JCD2012_e2_10",450,"Shallow","Valid",1,6,1384.34,"Include"
"JCD2012_e2","JCD2012_e2_11",1,"Deep","NoCue",1,5,6003.575,"Include"
"JCD2012_e2","JCD2012_e2_11",2,"Deep","Invalid",1,6,1764.276,"Include"
"JCD2012_e2","JCD2012_e2_11",3,"Deep","Valid",1,6,2517.495,"Include"
"JCD2012_e2","JCD2012_e2_11",4,"Shallow","Valid",1,6,913.2997,"Include"
"JCD2012_e2","JCD2012_e2_11",5,"Deep","Invalid",1,6,11330.29,"Include"
"JCD2012_e2","JCD2012_e2_11",6,"Baseline","Valid",0,1,4574.778,"Include"
"JCD2012_e2","JCD2012_e2_11",7,"Shallow","NoCue",1,5,6777.156,"Include"
"JCD2012_e2","JCD2012_e2_11",8,"Shallow","Valid",1,1,8587.309,"Include"
"JCD2012_e2","JCD2012_e2_11",9,"Deep","NoCue",1,6,1728.46,"Include"
"JCD2012_e2","JCD2012_e2_11",10,"Baseline","NoCue",0,1,3904.216,"Include"
"JCD2012_e2","JCD2012_e2_11",11,"Shallow","Valid",1,1,4766.084,"Include"
"JCD2012_e2","JCD2012_e2_11",12,"Shallow","Invalid",1,6,5786.857,"Include"
"JCD2012_e2","JCD2012_e2_11",13,"Shallow","Valid",1,6,4182.558,"Include"
"JCD2012_e2","JCD2012_e2_11",14,"Deep","Valid",1,6,4245.15,"Include"
"JCD2012_e2","JCD2012_e2_11",15,"Baseline","Valid",0,1,2383.412,"Include"
"JCD2012_e2","JCD2012_e2_11",16,"Baseline","NoCue",0,1,1016.52,"Include"
"JCD2012_e2","JCD2012_e2_11",17,"Shallow","Invalid",1,6,1454.894,"Include"
"JCD2012_e2","JCD2012_e2_11",18,"Shallow","Valid",1,1,1042.234,"Include"
"JCD2012_e2","JCD2012_e2_11",19,"Baseline","NoCue",0,1,959.6349,"Include"
"JCD2012_e2","JCD2012_e2_11",20,"Baseline","Valid",0,1,887.7264,"Include"
"JCD2012_e2","JCD2012_e2_11",21,"Baseline","Valid",0,1,954.7067,"Include"
"JCD2012_e2","JCD2012_e2_11",22,"Deep","NoCue",1,6,1289.811,"Include"
"JCD2012_e2","JCD2012_e2_11",23,"Deep","Valid",1,6,851.6322,"Include"
"JCD2012_e2","JCD2012_e2_11",24,"Shallow","Valid",1,1,1619.764,"Include"
"JCD2012_e2","JCD2012_e2_11",25,"Baseline","Valid",0,1,1093.783,"Include"
"JCD2012_e2","JCD2012_e2_11",26,"Shallow","Valid",1,6,2053.194,"Include"
"JCD2012_e2","JCD2012_e2_11",27,"Deep","Valid",1,6,753.5522,"Include"
"JCD2012_e2","JCD2012_e2_11",28,"Deep","Valid",1,6,593.9368,"Include"
"JCD2012_e2","JCD2012_e2_11",29,"Baseline","NoCue",0,1,712.0971,"Include"
"JCD2012_e2","JCD2012_e2_11",30,"Deep","Valid",1,6,743.2075,"Include"
"JCD2012_e2","JCD2012_e2_11",31,"Deep","Valid",1,6,670.9496,"Include"
"JCD2012_e2","JCD2012_e2_11",32,"Deep","Valid",1,6,995.9581,"Include"
"JCD2012_e2","JCD2012_e2_11",33,"Baseline","Valid",0,1,954.7159,"Include"
"JCD2012_e2","JCD2012_e2_11",34,"Shallow","NoCue",1,6,795.0679,"Include"
"JCD2012_e2","JCD2012_e2_11",35,"Shallow","Valid",1,1,717.1903,"Include"
"JCD2012_e2","JCD2012_e2_11",36,"Baseline","Valid",0,1,789.4474,"Include"
"JCD2012_e2","JCD2012_e2_11",37,"Baseline","Invalid",0,1,758.6561,"Include"
"JCD2012_e2","JCD2012_e2_11",38,"Shallow","Invalid",1,6,1165.965,"Include"
"JCD2012_e2","JCD2012_e2_11",39,"Baseline","Valid",0,1,1248.686,"Include"
"JCD2012_e2","JCD2012_e2_11",40,"Shallow","NoCue",1,3,3090.406,"Include"
"JCD2012_e2","JCD2012_e2_11",41,"Deep","Invalid",1,6,1202.238,"Include"
"JCD2012_e2","JCD2012_e2_11",42,"Deep","Invalid",1,6,763.6902,"Include"
"JCD2012_e2","JCD2012_e2_11",43,"Baseline","Invalid",0,1,867.0587,"Include"
"JCD2012_e2","JCD2012_e2_11",44,"Shallow","Valid",1,1,815.4995,"Include"
"JCD2012_e2","JCD2012_e2_11",45,"Shallow","NoCue",1,6,1021.58,"Include"
"JCD2012_e2","JCD2012_e2_11",46,"Deep","Valid",1,6,748.2235,"Include"
"JCD2012_e2","JCD2012_e2_11",47,"Baseline","Valid",0,1,1181.546,"Include"
"JCD2012_e2","JCD2012_e2_11",48,"Deep","NoCue",1,6,810.1925,"Include"
"JCD2012_e2","JCD2012_e2_11",49,"Shallow","Invalid",1,1,779.2887,"Include"
"JCD2012_e2","JCD2012_e2_11",50,"Baseline","Invalid",0,1,706.95,"Include"
"JCD2012_e2","JCD2012_e2_11",51,"Shallow","Valid",1,1,1635.884,"Include"
"JCD2012_e2","JCD2012_e2_11",52,"Baseline","Invalid",0,1,959.7483,"Include"
"JCD2012_e2","JCD2012_e2_11",53,"Baseline","Valid",0,1,918.9397,"Include"
"JCD2012_e2","JCD2012_e2_11",54,"Baseline","Invalid",0,1,706.9652,"Include"
"JCD2012_e2","JCD2012_e2_11",55,"Deep","Valid",1,6,774.2266,"Include"
"JCD2012_e2","JCD2012_e2_11",56,"Shallow","Valid",1,1,815.3009,"Include"
"JCD2012_e2","JCD2012_e2_11",57,"Shallow","NoCue",1,1,789.5264,"Include"
"JCD2012_e2","JCD2012_e2_11",58,"Shallow","Valid",1,1,1093.792,"Include"
"JCD2012_e2","JCD2012_e2_11",59,"Baseline","Valid",0,1,784.3174,"Include"
"JCD2012_e2","JCD2012_e2_11",60,"Baseline","NoCue",0,1,954.8436,"Include"
"JCD2012_e2","JCD2012_e2_11",61,"Baseline","Valid",0,1,660.5642,"Include"
"JCD2012_e2","JCD2012_e2_11",62,"Shallow","Invalid",1,1,882.2633,"Include"
"JCD2012_e2","JCD2012_e2_11",63,"Shallow","Valid",1,6,3532.885,"Include"
"JCD2012_e2","JCD2012_e2_11",64,"Baseline","Invalid",0,1,696.6954,"Include"
"JCD2012_e2","JCD2012_e2_11",65,"Deep","Valid",1,6,820.4143,"Include"
"JCD2012_e2","JCD2012_e2_11",66,"Shallow","NoCue",1,1,846.2122,"Include"
"JCD2012_e2","JCD2012_e2_11",67,"Shallow","Valid",1,1,1243.325,"Include"
"JCD2012_e2","JCD2012_e2_11",68,"Deep","Valid",1,6,996.0679,"Include"
"JCD2012_e2","JCD2012_e2_11",69,"Baseline","Valid",0,1,5358.587,"Include"
"JCD2012_e2","JCD2012_e2_11",70,"Baseline","NoCue",0,1,996.447,"Include"
"JCD2012_e2","JCD2012_e2_11",71,"Baseline","Valid",0,1,748.2012,"Include"
"JCD2012_e2","JCD2012_e2_11",72,"Shallow","Valid",1,6,2362.434,"Include"
"JCD2012_e2","JCD2012_e2_11",73,"Baseline","Valid",0,6,1269.265,"Include"
"JCD2012_e2","JCD2012_e2_11",74,"Shallow","Valid",1,1,5447.185,"Include"
"JCD2012_e2","JCD2012_e2_11",75,"Deep","Valid",1,6,706.9643,"Include"
"JCD2012_e2","JCD2012_e2_11",76,"Shallow","Invalid",1,1,774.0761,"Include"
"JCD2012_e2","JCD2012_e2_11",77,"Deep","Invalid",1,6,665.665,"Include"
"JCD2012_e2","JCD2012_e2_11",78,"Shallow","NoCue",1,6,902.948,"Include"
"JCD2012_e2","JCD2012_e2_11",79,"Shallow","Valid",1,6,16605.93,"Include"
"JCD2012_e2","JCD2012_e2_11",80,"Baseline","Valid",0,1,743.0925,"Include"
"JCD2012_e2","JCD2012_e2_11",81,"Baseline","Valid",0,1,2491.362,"Include"
"JCD2012_e2","JCD2012_e2_11",82,"Shallow","Valid",1,6,861.7183,"Include"
"JCD2012_e2","JCD2012_e2_11",83,"Baseline","Valid",0,1,634.7675,"Include"
"JCD2012_e2","JCD2012_e2_11",84,"Baseline","Invalid",0,1,1171.527,"Include"
"JCD2012_e2","JCD2012_e2_11",85,"Baseline","Valid",0,1,928.7733,"Include"
"JCD2012_e2","JCD2012_e2_11",86,"Baseline","Valid",0,1,794.9298,"Include"
"JCD2012_e2","JCD2012_e2_11",87,"Baseline","NoCue",0,4,2403.737,"Include"
"JCD2012_e2","JCD2012_e2_11",88,"Baseline","Valid",0,6,1748.633,"Include"
"JCD2012_e2","JCD2012_e2_11",89,"Deep","Valid",1,6,722.5577,"Include"
"JCD2012_e2","JCD2012_e2_11",90,"Deep","Invalid",1,6,748.3872,"Include"
"JCD2012_e2","JCD2012_e2_11",91,"Baseline","Valid",0,1,743.0386,"Include"
"JCD2012_e2","JCD2012_e2_11",92,"Deep","Invalid",1,6,706.9364,"Include"
"JCD2012_e2","JCD2012_e2_11",93,"Baseline","Valid",0,1,954.802,"Include"
"JCD2012_e2","JCD2012_e2_11",94,"Deep","NoCue",1,6,712.2597,"Include"
"JCD2012_e2","JCD2012_e2_11",95,"Deep","Valid",1,6,542.4645,"Include"
"JCD2012_e2","JCD2012_e2_11",96,"Baseline","Valid",0,1,995.8781,"Include"
"JCD2012_e2","JCD2012_e2_11",97,"Baseline","Valid",0,1,691.4648,"Include"
"JCD2012_e2","JCD2012_e2_11",98,"Deep","Valid",1,6,655.5249,"Include"
"JCD2012_e2","JCD2012_e2_11",99,"Deep","Valid",1,6,629.6285,"Include"
"JCD2012_e2","JCD2012_e2_11",100,"Shallow","NoCue",1,1,691.5601,"Include"
"JCD2012_e2","JCD2012_e2_11",101,"Shallow","Valid",1,6,593.5362,"Include"
"JCD2012_e2","JCD2012_e2_11",102,"Deep","NoCue",1,6,624.4947,"Include"
"JCD2012_e2","JCD2012_e2_11",103,"Baseline","Valid",0,1,696.7977,"Include"
"JCD2012_e2","JCD2012_e2_11",104,"Deep","Valid",1,6,732.876,"Include"
"JCD2012_e2","JCD2012_e2_11",105,"Shallow","Valid",1,6,1062.801,"Include"
"JCD2012_e2","JCD2012_e2_11",106,"Shallow","Valid",1,1,794.6681,"Include"
"JCD2012_e2","JCD2012_e2_11",107,"Deep","Valid",1,1,624.8777,"Include"
"JCD2012_e2","JCD2012_e2_11",108,"Deep","Valid",1,6,892.8311,"Include"
"JCD2012_e2","JCD2012_e2_11",109,"Shallow","NoCue",1,6,583.2566,"Include"
"JCD2012_e2","JCD2012_e2_11",110,"Deep","Valid",1,6,789.7333,"Include"
"JCD2012_e2","JCD2012_e2_11",111,"Shallow","Valid",1,1,629.6499,"Include"
"JCD2012_e2","JCD2012_e2_11",112,"Shallow","Valid",1,1,1134.956,"Include"
"JCD2012_e2","JCD2012_e2_11",113,"Shallow","Valid",1,1,820.4492,"Include"
"JCD2012_e2","JCD2012_e2_11",114,"Baseline","Invalid",0,6,851.5032,"Include"
"JCD2012_e2","JCD2012_e2_11",115,"Deep","Valid",1,6,650.2045,"Include"
"JCD2012_e2","JCD2012_e2_11",116,"Deep","Invalid",1,6,681.1692,"Include"
"JCD2012_e2","JCD2012_e2_11",117,"Shallow","Valid",1,1,1578.746,"Include"
"JCD2012_e2","JCD2012_e2_11",118,"Deep","NoCue",1,6,1336.356,"Include"
"JCD2012_e2","JCD2012_e2_11",119,"Deep","Invalid",1,6,784.544,"Include"
"JCD2012_e2","JCD2012_e2_11",120,"Shallow","Valid",1,1,738.0126,"Include"
"JCD2012_e2","JCD2012_e2_11",121,"Deep","Valid",1,6,717.2157,"Include"
"JCD2012_e2","JCD2012_e2_11",122,"Deep","Valid",1,6,670.9766,"Include"
"JCD2012_e2","JCD2012_e2_11",123,"Shallow","Valid",1,1,722.664,"Include"
"JCD2012_e2","JCD2012_e2_11",124,"Baseline","NoCue",0,1,913.2738,"Include"
"JCD2012_e2","JCD2012_e2_11",125,"Deep","Valid",1,6,887.4107,"Include"
"JCD2012_e2","JCD2012_e2_11",126,"Baseline","NoCue",0,1,722.598,"Include"
"JCD2012_e2","JCD2012_e2_11",127,"Deep","Valid",1,6,640.0971,"Include"
"JCD2012_e2","JCD2012_e2_11",128,"Shallow","Invalid",1,1,624.4325,"Include"
"JCD2012_e2","JCD2012_e2_11",129,"Deep","NoCue",1,6,598.7227,"Include"
"JCD2012_e2","JCD2012_e2_11",130,"Baseline","Valid",0,1,686.3691,"Include"
"JCD2012_e2","JCD2012_e2_11",131,"Deep","Valid",1,6,800.1865,"Include"
"JCD2012_e2","JCD2012_e2_11",132,"Shallow","NoCue",1,6,1114.338,"Include"
"JCD2012_e2","JCD2012_e2_11",133,"Deep","Valid",1,6,820.4367,"Include"
"JCD2012_e2","JCD2012_e2_11",134,"Baseline","Valid",0,1,650.3039,"Include"
"JCD2012_e2","JCD2012_e2_11",135,"Deep","Invalid",1,6,655.3987,"Include"
"JCD2012_e2","JCD2012_e2_11",136,"Deep","NoCue",1,6,923.6244,"Include"
"JCD2012_e2","JCD2012_e2_11",137,"Baseline","Valid",0,1,769.07,"Include"
"JCD2012_e2","JCD2012_e2_11",138,"Shallow","Invalid",1,1,681.7821,"Include"
"JCD2012_e2","JCD2012_e2_11",139,"Shallow","Valid",1,1,804.9736,"Include"
"JCD2012_e2","JCD2012_e2_11",140,"Shallow","Invalid",1,6,516.1357,"Include"
"JCD2012_e2","JCD2012_e2_11",141,"Shallow","Invalid",1,1,701.8616,"Include"
"JCD2012_e2","JCD2012_e2_11",142,"Deep","NoCue",1,6,634.8954,"Include"
"JCD2012_e2","JCD2012_e2_11",143,"Baseline","Valid",0,1,650.1932,"Include"
"JCD2012_e2","JCD2012_e2_11",144,"Deep","Valid",1,6,526.5417,"Include"
"JCD2012_e2","JCD2012_e2_11",145,"Baseline","Invalid",0,1,763.7715,"Include"
"JCD2012_e2","JCD2012_e2_11",146,"Baseline","NoCue",0,1,748.6433,"Include"
"JCD2012_e2","JCD2012_e2_11",147,"Shallow","Valid",1,6,815.2357,"Include"
"JCD2012_e2","JCD2012_e2_11",148,"Deep","Valid",1,6,531.7776,"Include"
"JCD2012_e2","JCD2012_e2_11",149,"Shallow","Valid",1,6,738.1569,"Include"
"JCD2012_e2","JCD2012_e2_11",150,"Baseline","Invalid",0,1,706.9487,"Include"
"JCD2012_e2","JCD2012_e2_11",151,"Baseline","Invalid",0,2,4219.303,"Include"
"JCD2012_e2","JCD2012_e2_11",152,"Baseline","NoCue",0,1,1728.287,"Include"
"JCD2012_e2","JCD2012_e2_11",153,"Deep","Valid",1,6,717.2032,"Include"
"JCD2012_e2","JCD2012_e2_11",154,"Shallow","Valid",1,6,583.2827,"Include"
"JCD2012_e2","JCD2012_e2_11",155,"Baseline","Invalid",0,1,841.0521,"Include"
"JCD2012_e2","JCD2012_e2_11",156,"Shallow","Valid",1,1,717.3854,"Include"
"JCD2012_e2","JCD2012_e2_11",157,"Deep","Invalid",1,6,521.3732,"Include"
"JCD2012_e2","JCD2012_e2_11",158,"Deep","NoCue",1,6,701.8388,"Include"
"JCD2012_e2","JCD2012_e2_11",159,"Deep","Valid",1,6,562.5637,"Include"
"JCD2012_e2","JCD2012_e2_11",160,"Shallow","Invalid",1,1,681.995,"Include"
"JCD2012_e2","JCD2012_e2_11",161,"Deep","NoCue",1,6,696.6596,"Include"
"JCD2012_e2","JCD2012_e2_11",162,"Baseline","Invalid",0,1,681.169,"Include"
"JCD2012_e2","JCD2012_e2_11",163,"Shallow","NoCue",1,1,872.0175,"Include"
"JCD2012_e2","JCD2012_e2_11",164,"Baseline","Valid",0,1,722.534,"Include"
"JCD2012_e2","JCD2012_e2_11",165,"Baseline","Valid",0,1,784.4681,"Include"
"JCD2012_e2","JCD2012_e2_11",166,"Baseline","Valid",0,1,830.7808,"Include"
"JCD2012_e2","JCD2012_e2_11",167,"Shallow","Valid",1,1,980.3491,"Include"
"JCD2012_e2","JCD2012_e2_11",168,"Deep","Valid",1,6,707.076,"Include"
"JCD2012_e2","JCD2012_e2_11",169,"Deep","Valid",1,6,655.5095,"Include"
"JCD2012_e2","JCD2012_e2_11",170,"Deep","NoCue",1,6,1181.491,"Include"
"JCD2012_e2","JCD2012_e2_11",171,"Baseline","Valid",0,1,748.4011,"Include"
"JCD2012_e2","JCD2012_e2_11",172,"Baseline","Valid",0,1,640.0529,"Include"
"JCD2012_e2","JCD2012_e2_11",173,"Baseline","Invalid",0,1,810.2661,"Include"
"JCD2012_e2","JCD2012_e2_11",174,"Deep","Valid",1,6,660.6343,"Include"
"JCD2012_e2","JCD2012_e2_11",175,"Deep","Valid",1,6,1155.623,"Include"
"JCD2012_e2","JCD2012_e2_11",176,"Baseline","Invalid",0,1,681.3085,"Include"
"JCD2012_e2","JCD2012_e2_11",177,"Baseline","NoCue",0,1,918.4328,"Include"
"JCD2012_e2","JCD2012_e2_11",178,"Deep","Invalid",1,6,727.5673,"Include"
"JCD2012_e2","JCD2012_e2_11",179,"Deep","Valid",1,6,630.0605,"Include"
"JCD2012_e2","JCD2012_e2_11",180,"Baseline","Invalid",0,1,753.515,"Include"
"JCD2012_e2","JCD2012_e2_11",181,"Baseline","Valid",0,1,666,"Include"
"JCD2012_e2","JCD2012_e2_11",182,"Baseline","NoCue",0,1,206.72,"Include"
"JCD2012_e2","JCD2012_e2_11",183,"Shallow","Invalid",1,6,779.2581,"Include"
"JCD2012_e2","JCD2012_e2_11",184,"Shallow","Invalid",1,1,521.3664,"Include"
"JCD2012_e2","JCD2012_e2_11",185,"Deep","Valid",1,6,670.9489,"Include"
"JCD2012_e2","JCD2012_e2_11",186,"Shallow","Valid",1,1,619.461,"Include"
"JCD2012_e2","JCD2012_e2_11",187,"Baseline","Valid",0,1,634.8077,"Include"
"JCD2012_e2","JCD2012_e2_11",188,"Deep","Invalid",1,6,536.7399,"Include"
"JCD2012_e2","JCD2012_e2_11",189,"Baseline","Valid",0,1,547.2432,"Include"
"JCD2012_e2","JCD2012_e2_11",190,"Baseline","Valid",0,1,784.6833,"Include"
"JCD2012_e2","JCD2012_e2_11",191,"Deep","Valid",1,6,583.2925,"Include"
"JCD2012_e2","JCD2012_e2_11",192,"Shallow","Invalid",1,1,526.5527,"Include"
"JCD2012_e2","JCD2012_e2_11",193,"Shallow","NoCue",1,1,1140.207,"Include"
"JCD2012_e2","JCD2012_e2_11",194,"Deep","Invalid",1,6,810.1142,"Include"
"JCD2012_e2","JCD2012_e2_11",195,"Baseline","NoCue",0,1,717.2254,"Include"
"JCD2012_e2","JCD2012_e2_11",196,"Shallow","Invalid",1,1,655.5951,"Include"
"JCD2012_e2","JCD2012_e2_11",197,"Baseline","NoCue",0,1,702,"Include"
"JCD2012_e2","JCD2012_e2_11",198,"Deep","Invalid",1,6,511.1389,"Include"
"JCD2012_e2","JCD2012_e2_11",199,"Shallow","Valid",1,1,706.9066,"Include"
"JCD2012_e2","JCD2012_e2_11",200,"Baseline","Valid",0,1,717.2778,"Include"
"JCD2012_e2","JCD2012_e2_11",201,"Shallow","Valid",1,6,727.9516,"Include"
"JCD2012_e2","JCD2012_e2_11",202,"Shallow","Valid",1,1,702.1623,"Include"
"JCD2012_e2","JCD2012_e2_11",203,"Baseline","Valid",0,1,670.8,"Include"
"JCD2012_e2","JCD2012_e2_11",204,"Shallow","Valid",1,6,660.5269,"Include"
"JCD2012_e2","JCD2012_e2_11",205,"Shallow","Valid",1,6,1052.445,"Include"
"JCD2012_e2","JCD2012_e2_11",206,"Baseline","Invalid",0,1,650.2154,"Include"
"JCD2012_e2","JCD2012_e2_11",207,"Deep","Valid",1,1,624.5766,"Include"
"JCD2012_e2","JCD2012_e2_11",208,"Deep","Valid",1,6,557.4917,"Include"
"JCD2012_e2","JCD2012_e2_11",209,"Baseline","Valid",0,1,583.4239,"Include"
"JCD2012_e2","JCD2012_e2_11",210,"Shallow","NoCue",1,1,753.3558,"Include"
"JCD2012_e2","JCD2012_e2_11",211,"Shallow","Valid",1,2,2832.121,"Include"
"JCD2012_e2","JCD2012_e2_11",212,"Shallow","Valid",1,6,1047.524,"Include"
"JCD2012_e2","JCD2012_e2_11",213,"Baseline","NoCue",0,1,779.2406,"Include"
"JCD2012_e2","JCD2012_e2_11",214,"Deep","Valid",1,6,604.1437,"Include"
"JCD2012_e2","JCD2012_e2_11",215,"Baseline","Valid",0,1,583.265,"Include"
"JCD2012_e2","JCD2012_e2_11",216,"Shallow","Valid",1,1,712.0691,"Include"
"JCD2012_e2","JCD2012_e2_11",217,"Deep","Valid",1,6,624.5616,"Include"
"JCD2012_e2","JCD2012_e2_11",218,"Shallow","Valid",1,5,1526.991,"Include"
"JCD2012_e2","JCD2012_e2_11",219,"Baseline","Valid",0,1,639.9178,"Include"
"JCD2012_e2","JCD2012_e2_11",220,"Deep","Invalid",1,6,1176.292,"Include"
"JCD2012_e2","JCD2012_e2_11",221,"Shallow","Valid",1,1,964.9456,"Include"
"JCD2012_e2","JCD2012_e2_11",222,"Baseline","Valid",0,2,1238.211,"Include"
"JCD2012_e2","JCD2012_e2_11",223,"Baseline","NoCue",0,2,1480.582,"Include"
"JCD2012_e2","JCD2012_e2_11",224,"Shallow","Valid",1,6,980.4129,"Include"
"JCD2012_e2","JCD2012_e2_11",225,"Shallow","Valid",1,6,691.6066,"Include"
"JCD2012_e2","JCD2012_e2_11",226,"Shallow","NoCue",1,6,815.3712,"Include"
"JCD2012_e2","JCD2012_e2_11",227,"Baseline","Valid",0,1,676.0035,"Include"
"JCD2012_e2","JCD2012_e2_11",228,"Deep","Valid",1,6,573.0374,"Include"
"JCD2012_e2","JCD2012_e2_11",229,"Deep","Valid",1,6,604.0498,"Include"
"JCD2012_e2","JCD2012_e2_11",230,"Baseline","Valid",0,1,892.906,"Include"
"JCD2012_e2","JCD2012_e2_11",231,"Shallow","Valid",1,2,702.1189,"Include"
"JCD2012_e2","JCD2012_e2_11",232,"Deep","NoCue",1,6,923.6091,"Include"
"JCD2012_e2","JCD2012_e2_11",233,"Baseline","NoCue",0,1,676.0363,"Include"
"JCD2012_e2","JCD2012_e2_11",234,"Shallow","Invalid",1,2,1243.303,"Include"
"JCD2012_e2","JCD2012_e2_11",235,"Shallow","Valid",1,6,1191.936,"Include"
"JCD2012_e2","JCD2012_e2_11",236,"Shallow","Valid",1,6,815.3143,"Include"
"JCD2012_e2","JCD2012_e2_11",237,"Deep","Valid",1,6,603.9052,"Include"
"JCD2012_e2","JCD2012_e2_11",238,"Deep","Invalid",1,6,588.3417,"Include"
"JCD2012_e2","JCD2012_e2_11",239,"Shallow","NoCue",1,6,531.7429,"Include"
"JCD2012_e2","JCD2012_e2_11",240,"Baseline","Invalid",0,1,650.6247,"Include"
"JCD2012_e2","JCD2012_e2_11",241,"Deep","Valid",1,6,676.3911,"Include"
"JCD2012_e2","JCD2012_e2_11",242,"Baseline","Valid",0,1,866.9103,"Include"
"JCD2012_e2","JCD2012_e2_11",243,"Shallow","NoCue",1,3,2104.558,"Include"
"JCD2012_e2","JCD2012_e2_11",244,"Deep","NoCue",1,6,784.3503,"Include"
"JCD2012_e2","JCD2012_e2_11",245,"Baseline","Valid",0,1,851.7294,"Include"
"JCD2012_e2","JCD2012_e2_11",246,"Deep","NoCue",1,6,732.7415,"Include"
"JCD2012_e2","JCD2012_e2_11",247,"Deep","Valid",1,1,774.1231,"Include"
"JCD2012_e2","JCD2012_e2_11",248,"Shallow","Valid",1,6,2171.879,"Include"
"JCD2012_e2","JCD2012_e2_11",249,"Deep","Valid",1,6,634.7355,"Include"
"JCD2012_e2","JCD2012_e2_11",250,"Baseline","Valid",0,1,898.0253,"Include"
"JCD2012_e2","JCD2012_e2_11",251,"Deep","Valid",1,6,779.1684,"Include"
"JCD2012_e2","JCD2012_e2_11",252,"Baseline","Invalid",0,1,780.0706,"Include"
"JCD2012_e2","JCD2012_e2_11",253,"Deep","Valid",1,6,588.9115,"Include"
"JCD2012_e2","JCD2012_e2_11",254,"Deep","Valid",1,6,588.3553,"Include"
"JCD2012_e2","JCD2012_e2_11",255,"Deep","Valid",1,6,763.7368,"Include"
"JCD2012_e2","JCD2012_e2_11",256,"Shallow","Valid",1,1,701.8005,"Include"
"JCD2012_e2","JCD2012_e2_11",257,"Deep","Invalid",1,6,743.2686,"Include"
"JCD2012_e2","JCD2012_e2_11",258,"Deep","Valid",1,1,923.6693,"Include"
"JCD2012_e2","JCD2012_e2_11",259,"Deep","Valid",1,6,836.0456,"Include"
"JCD2012_e2","JCD2012_e2_11",260,"Shallow","Valid",1,1,820.6271,"Include"
"JCD2012_e2","JCD2012_e2_11",261,"Shallow","Valid",1,6,665.6935,"Include"
"JCD2012_e2","JCD2012_e2_11",262,"Baseline","Valid",0,1,660.712,"Include"
"JCD2012_e2","JCD2012_e2_11",263,"Shallow","Valid",1,1,995.8548,"Include"
"JCD2012_e2","JCD2012_e2_11",264,"Baseline","NoCue",0,1,3754.899,"Include"
"JCD2012_e2","JCD2012_e2_11",265,"Shallow","Valid",1,1,851.3863,"Include"
"JCD2012_e2","JCD2012_e2_11",266,"Baseline","Valid",0,1,624.466,"Include"
"JCD2012_e2","JCD2012_e2_11",267,"Deep","Valid",1,6,588.3734,"Include"
"JCD2012_e2","JCD2012_e2_11",268,"Deep","NoCue",1,6,718.1947,"Include"
"JCD2012_e2","JCD2012_e2_11",269,"Shallow","Valid",1,1,712.1858,"Include"
"JCD2012_e2","JCD2012_e2_11",270,"Baseline","Valid",0,1,717.4024,"Include"
"JCD2012_e2","JCD2012_e2_11",271,"Deep","Valid",1,6,557.6619,"Include"
"JCD2012_e2","JCD2012_e2_11",272,"Deep","Invalid",1,6,1465.161,"Include"
"JCD2012_e2","JCD2012_e2_11",273,"Baseline","Valid",0,1,779.2931,"Include"
"JCD2012_e2","JCD2012_e2_11",274,"Baseline","Invalid",0,1,1011.401,"Include"
"JCD2012_e2","JCD2012_e2_11",275,"Shallow","Invalid",1,1,1032.374,"Include"
"JCD2012_e2","JCD2012_e2_11",276,"Shallow","Invalid",1,6,1758.997,"Include"
"JCD2012_e2","JCD2012_e2_11",277,"Shallow","Valid",1,6,933.889,"Include"
"JCD2012_e2","JCD2012_e2_11",278,"Deep","Invalid",1,4,3228.894,"Include"
"JCD2012_e2","JCD2012_e2_11",279,"Shallow","Valid",1,6,779.3293,"Include"
"JCD2012_e2","JCD2012_e2_11",280,"Baseline","Valid",0,3,2388.165,"Include"
"JCD2012_e2","JCD2012_e2_11",281,"Deep","NoCue",1,6,1021.549,"Include"
"JCD2012_e2","JCD2012_e2_11",282,"Shallow","Invalid",1,6,619.365,"Include"
"JCD2012_e2","JCD2012_e2_11",283,"Shallow","NoCue",1,2,3524.086,"Include"
"JCD2012_e2","JCD2012_e2_11",284,"Shallow","NoCue",1,6,928.8479,"Include"
"JCD2012_e2","JCD2012_e2_11",285,"Deep","NoCue",1,6,707.2249,"Include"
"JCD2012_e2","JCD2012_e2_11",286,"Shallow","NoCue",1,6,1702.428,"Include"
"JCD2012_e2","JCD2012_e2_11",287,"Baseline","Valid",0,5,1367.057,"Include"
"JCD2012_e2","JCD2012_e2_11",288,"Shallow","Invalid",1,1,1093.907,"Include"
"JCD2012_e2","JCD2012_e2_11",289,"Shallow","Valid",1,2,1604.347,"Include"
"JCD2012_e2","JCD2012_e2_11",290,"Shallow","NoCue",1,3,2739.025,"Include"
"JCD2012_e2","JCD2012_e2_11",291,"Baseline","Valid",0,3,1080,"Include"
"JCD2012_e2","JCD2012_e2_11",292,"Deep","Valid",1,6,697,"Include"
"JCD2012_e2","JCD2012_e2_11",293,"Deep","Valid",1,6,629.5719,"Include"
"JCD2012_e2","JCD2012_e2_11",294,"Baseline","Valid",0,1,732.8802,"Include"
"JCD2012_e2","JCD2012_e2_11",295,"Baseline","Valid",0,2,970.3023,"Include"
"JCD2012_e2","JCD2012_e2_11",296,"Baseline","NoCue",0,1,1331.051,"Include"
"JCD2012_e2","JCD2012_e2_11",297,"Deep","NoCue",1,6,707.0703,"Include"
"JCD2012_e2","JCD2012_e2_11",298,"Shallow","Valid",1,1,1114.78,"Include"
"JCD2012_e2","JCD2012_e2_11",299,"Baseline","Valid",0,1,985.4544,"Include"
"JCD2012_e2","JCD2012_e2_11",300,"Deep","Valid",1,6,712.5199,"Include"
"JCD2012_e2","JCD2012_e2_11",301,"Baseline","Valid",0,0,634.9042,"Exclude"
"JCD2012_e2","JCD2012_e2_11",302,"Baseline","Valid",0,4,3321.885,"Include"
"JCD2012_e2","JCD2012_e2_11",303,"Deep","Valid",1,6,1161.586,"Include"
"JCD2012_e2","JCD2012_e2_11",304,"Deep","Valid",1,6,624.4975,"Include"
"JCD2012_e2","JCD2012_e2_11",305,"Baseline","Valid",0,1,923.8089,"Include"
"JCD2012_e2","JCD2012_e2_11",306,"Deep","NoCue",1,6,1078.266,"Include"
"JCD2012_e2","JCD2012_e2_11",307,"Shallow","Valid",1,6,645.5268,"Include"
"JCD2012_e2","JCD2012_e2_11",308,"Shallow","Valid",1,1,686.3301,"Include"
"JCD2012_e2","JCD2012_e2_11",309,"Shallow","Valid",1,5,2192.284,"Include"
"JCD2012_e2","JCD2012_e2_11",310,"Shallow","Valid",1,4,1491.39,"Include"
"JCD2012_e2","JCD2012_e2_11",311,"Baseline","Valid",0,1,1078.441,"Include"
"JCD2012_e2","JCD2012_e2_11",312,"Baseline","Invalid",0,3,1423.755,"Include"
"JCD2012_e2","JCD2012_e2_11",313,"Baseline","NoCue",0,6,758.554,"Include"
"JCD2012_e2","JCD2012_e2_11",314,"Deep","NoCue",1,6,836.2005,"Include"
"JCD2012_e2","JCD2012_e2_11",315,"Baseline","Valid",0,2,1913.946,"Include"
"JCD2012_e2","JCD2012_e2_11",316,"Shallow","NoCue",1,6,676.0253,"Include"
"JCD2012_e2","JCD2012_e2_11",317,"Shallow","Valid",1,5,1032.105,"Include"
"JCD2012_e2","JCD2012_e2_11",318,"Baseline","Invalid",0,1,903.0553,"Include"
"JCD2012_e2","JCD2012_e2_11",319,"Deep","Valid",1,6,1168.474,"Include"
"JCD2012_e2","JCD2012_e2_11",320,"Shallow","Valid",1,6,660.7663,"Include"
"JCD2012_e2","JCD2012_e2_11",321,"Deep","NoCue",1,6,645.4629,"Include"
"JCD2012_e2","JCD2012_e2_11",322,"Baseline","NoCue",0,1,789.6056,"Include"
"JCD2012_e2","JCD2012_e2_11",323,"Shallow","Valid",1,2,1750,"Include"
"JCD2012_e2","JCD2012_e2_11",324,"Shallow","Valid",1,2,1336.156,"Include"
"JCD2012_e2","JCD2012_e2_11",325,"Shallow","NoCue",1,6,1877.739,"Include"
"JCD2012_e2","JCD2012_e2_11",326,"Baseline","Valid",0,1,1166.058,"Include"
"JCD2012_e2","JCD2012_e2_11",327,"Baseline","Valid",0,1,785.0784,"Include"
"JCD2012_e2","JCD2012_e2_11",328,"Shallow","Invalid",1,6,774.0164,"Include"
"JCD2012_e2","JCD2012_e2_11",329,"Baseline","Invalid",0,1,671.0796,"Include"
"JCD2012_e2","JCD2012_e2_11",330,"Deep","Invalid",1,6,542.0595,"Include"
"JCD2012_e2","JCD2012_e2_11",331,"Deep","Invalid",1,1,768.9395,"Include"
"JCD2012_e2","JCD2012_e2_11",332,"Shallow","Valid",1,6,2682.21,"Include"
"JCD2012_e2","JCD2012_e2_11",333,"Shallow","NoCue",1,6,779.5904,"Include"
"JCD2012_e2","JCD2012_e2_11",334,"Deep","Invalid",1,6,640.0601,"Include"
"JCD2012_e2","JCD2012_e2_11",335,"Deep","Valid",1,6,557.4648,"Include"
"JCD2012_e2","JCD2012_e2_11",336,"Shallow","Invalid",1,6,536.8406,"Include"
"JCD2012_e2","JCD2012_e2_11",337,"Baseline","Valid",0,1,872.0977,"Include"
"JCD2012_e2","JCD2012_e2_11",338,"Baseline","NoCue",0,6,1031.926,"Include"
"JCD2012_e2","JCD2012_e2_11",339,"Baseline","Valid",0,5,820.5615,"Include"
"JCD2012_e2","JCD2012_e2_11",340,"Deep","Valid",1,1,712.2665,"Include"
"JCD2012_e2","JCD2012_e2_11",341,"Shallow","Valid",1,2,774.0905,"Include"
"JCD2012_e2","JCD2012_e2_11",342,"Shallow","Valid",1,6,763.8561,"Include"
"JCD2012_e2","JCD2012_e2_11",343,"Shallow","NoCue",1,6,1063.003,"Include"
"JCD2012_e2","JCD2012_e2_11",344,"Shallow","NoCue",1,6,387.1803,"Include"
"JCD2012_e2","JCD2012_e2_11",345,"Baseline","Valid",0,2,57.49376,"Include"
"JCD2012_e2","JCD2012_e2_11",346,"Deep","Invalid",1,6,686.2915,"Include"
"JCD2012_e2","JCD2012_e2_11",347,"Deep","Valid",1,2,758.5484,"Include"
"JCD2012_e2","JCD2012_e2_11",348,"Deep","Valid",1,6,696.6634,"Include"
"JCD2012_e2","JCD2012_e2_11",349,"Shallow","Valid",1,6,542.0046,"Include"
"JCD2012_e2","JCD2012_e2_11",350,"Baseline","Valid",0,1,666.1741,"Include"
"JCD2012_e2","JCD2012_e2_11",351,"Baseline","NoCue",0,1,614.1899,"Include"
"JCD2012_e2","JCD2012_e2_11",352,"Deep","Valid",1,1,583.2232,"Include"
"JCD2012_e2","JCD2012_e2_11",353,"Baseline","Invalid",0,1,608.978,"Include"
"JCD2012_e2","JCD2012_e2_11",354,"Deep","Valid",1,6,516.392,"Include"
"JCD2012_e2","JCD2012_e2_11",355,"Deep","Invalid",1,6,572.9613,"Include"
"JCD2012_e2","JCD2012_e2_11",356,"Deep","NoCue",1,1,531.657,"Include"
"JCD2012_e2","JCD2012_e2_11",357,"Shallow","Valid",1,1,702.0156,"Include"
"JCD2012_e2","JCD2012_e2_11",358,"Shallow","Valid",1,1,923.6939,"Include"
"JCD2012_e2","JCD2012_e2_11",359,"Baseline","Valid",0,1,727.5876,"Include"
"JCD2012_e2","JCD2012_e2_11",360,"Deep","Invalid",1,1,774.0627,"Include"
"JCD2012_e2","JCD2012_e2_11",361,"Baseline","Valid",0,1,707.1146,"Include"
"JCD2012_e2","JCD2012_e2_11",362,"Deep","Valid",1,6,1475.413,"Include"
"JCD2012_e2","JCD2012_e2_11",363,"Shallow","Valid",1,6,805.0046,"Include"
"JCD2012_e2","JCD2012_e2_11",364,"Baseline","Valid",0,1,4636.671,"Include"
"JCD2012_e2","JCD2012_e2_11",365,"Deep","NoCue",1,6,831.1151,"Include"
"JCD2012_e2","JCD2012_e2_11",366,"Deep","Valid",1,6,727.8348,"Include"
"JCD2012_e2","JCD2012_e2_11",367,"Deep","NoCue",1,6,820.3859,"Include"
"JCD2012_e2","JCD2012_e2_11",368,"Deep","Invalid",1,1,779.2463,"Include"
"JCD2012_e2","JCD2012_e2_11",369,"Deep","Valid",1,6,1037.143,"Include"
"JCD2012_e2","JCD2012_e2_11",370,"Shallow","Invalid",1,1,975.1706,"Include"
"JCD2012_e2","JCD2012_e2_11",371,"Shallow","Valid",1,6,738.0738,"Include"
"JCD2012_e2","JCD2012_e2_11",372,"Baseline","Valid",0,2,897.9418,"Include"
"JCD2012_e2","JCD2012_e2_11",373,"Shallow","Valid",1,6,660.5458,"Include"
"JCD2012_e2","JCD2012_e2_11",374,"Baseline","Valid",0,2,985.4767,"Include"
"JCD2012_e2","JCD2012_e2_11",375,"Deep","Valid",1,6,609.129,"Include"
"JCD2012_e2","JCD2012_e2_11",376,"Deep","Invalid",1,2,939.0126,"Include"
"JCD2012_e2","JCD2012_e2_11",377,"Deep","Valid",1,1,1676.644,"Include"
"JCD2012_e2","JCD2012_e2_11",378,"Baseline","Valid",0,2,933.9059,"Include"
"JCD2012_e2","JCD2012_e2_11",379,"Shallow","Invalid",1,2,1088.747,"Include"
"JCD2012_e2","JCD2012_e2_11",380,"Baseline","Valid",0,2,851.2805,"Include"
"JCD2012_e2","JCD2012_e2_11",381,"Baseline","NoCue",0,4,3368.036,"Include"
"JCD2012_e2","JCD2012_e2_11",382,"Shallow","Valid",1,6,861.8673,"Include"
"JCD2012_e2","JCD2012_e2_11",383,"Baseline","Valid",0,1,1264.046,"Include"
"JCD2012_e2","JCD2012_e2_11",384,"Deep","Valid",1,6,655.5198,"Include"
"JCD2012_e2","JCD2012_e2_11",385,"Deep","Valid",1,6,1315.486,"Include"
"JCD2012_e2","JCD2012_e2_11",386,"Shallow","NoCue",1,6,1042.119,"Include"
"JCD2012_e2","JCD2012_e2_11",387,"Baseline","Valid",0,4,2599.913,"Include"
"JCD2012_e2","JCD2012_e2_11",388,"Baseline","Invalid",0,2,1258.75,"Include"
"JCD2012_e2","JCD2012_e2_11",389,"Deep","NoCue",1,1,805.1698,"Include"
"JCD2012_e2","JCD2012_e2_11",390,"Baseline","NoCue",0,1,645.003,"Include"
"JCD2012_e2","JCD2012_e2_11",391,"Shallow","Valid",1,1,872.2747,"Include"
"JCD2012_e2","JCD2012_e2_11",392,"Shallow","Valid",1,6,743.2874,"Include"
"JCD2012_e2","JCD2012_e2_11",393,"Deep","NoCue",1,6,799.7994,"Include"
"JCD2012_e2","JCD2012_e2_11",394,"Deep","Valid",1,6,645.0984,"Include"
"JCD2012_e2","JCD2012_e2_11",395,"Deep","Valid",1,6,619.4881,"Include"
"JCD2012_e2","JCD2012_e2_11",396,"Shallow","Invalid",1,6,685.8689,"Include"
"JCD2012_e2","JCD2012_e2_11",397,"Shallow","Valid",1,6,769.142,"Include"
"JCD2012_e2","JCD2012_e2_11",398,"Shallow","Valid",1,1,867.6058,"Include"
"JCD2012_e2","JCD2012_e2_11",399,"Deep","Valid",1,1,918.3491,"Include"
"JCD2012_e2","JCD2012_e2_11",400,"Baseline","NoCue",0,1,887.4202,"Include"
"JCD2012_e2","JCD2012_e2_11",401,"Deep","Valid",1,1,794.5837,"Include"
"JCD2012_e2","JCD2012_e2_11",402,"Baseline","NoCue",0,1,820.5053,"Include"
"JCD2012_e2","JCD2012_e2_11",403,"Baseline","NoCue",0,4,2764.679,"Include"
"JCD2012_e2","JCD2012_e2_11",404,"Deep","Invalid",1,6,964.9075,"Include"
"JCD2012_e2","JCD2012_e2_11",405,"Shallow","Valid",1,1,970.0011,"Include"
"JCD2012_e2","JCD2012_e2_11",406,"Deep","NoCue",1,6,629.5278,"Include"
"JCD2012_e2","JCD2012_e2_11",407,"Baseline","Valid",0,2,2249.096,"Include"
"JCD2012_e2","JCD2012_e2_11",408,"Baseline","NoCue",0,2,1351.879,"Include"
"JCD2012_e2","JCD2012_e2_11",409,"Shallow","Valid",1,6,913.362,"Include"
"JCD2012_e2","JCD2012_e2_11",410,"Shallow","Valid",1,6,650.3335,"Include"
"JCD2012_e2","JCD2012_e2_11",411,"Deep","Valid",1,4,1480.462,"Include"
"JCD2012_e2","JCD2012_e2_11",412,"Baseline","Invalid",0,3,2217.968,"Include"
"JCD2012_e2","JCD2012_e2_11",413,"Shallow","Invalid",1,6,908.1461,"Include"
"JCD2012_e2","JCD2012_e2_11",414,"Deep","Valid",1,6,2564.536,"Include"
"JCD2012_e2","JCD2012_e2_11",415,"Baseline","Valid",0,1,1279.712,"Include"
"JCD2012_e2","JCD2012_e2_11",416,"Baseline","Invalid",0,2,2510,"Include"
"JCD2012_e2","JCD2012_e2_11",417,"Baseline","Valid",0,2,768.9367,"Include"
"JCD2012_e2","JCD2012_e2_11",418,"Shallow","Invalid",1,2,933.8474,"Include"
"JCD2012_e2","JCD2012_e2_11",419,"Shallow","Invalid",1,2,815.2138,"Include"
"JCD2012_e2","JCD2012_e2_11",420,"Deep","Valid",1,6,830.6856,"Include"
"JCD2012_e2","JCD2012_e2_11",421,"Baseline","Invalid",0,2,670.917,"Include"
"JCD2012_e2","JCD2012_e2_11",422,"Deep","NoCue",1,6,841.3318,"Include"
"JCD2012_e2","JCD2012_e2_11",423,"Baseline","Valid",0,1,686.6025,"Include"
"JCD2012_e2","JCD2012_e2_11",424,"Baseline","Valid",0,1,619.3933,"Include"
"JCD2012_e2","JCD2012_e2_11",425,"Deep","Valid",1,2,541.9277,"Include"
"JCD2012_e2","JCD2012_e2_11",426,"Baseline","Valid",0,6,1398.451,"Include"
"JCD2012_e2","JCD2012_e2_11",427,"Shallow","NoCue",1,2,2042.698,"Include"
"JCD2012_e2","JCD2012_e2_11",428,"Deep","Valid",1,6,588.5913,"Include"
"JCD2012_e2","JCD2012_e2_11",429,"Baseline","Valid",0,1,2140.651,"Include"
"JCD2012_e2","JCD2012_e2_11",430,"Baseline","Valid",0,4,2604.846,"Include"
"JCD2012_e2","JCD2012_e2_11",431,"Shallow","NoCue",1,1,1712.752,"Include"
"JCD2012_e2","JCD2012_e2_11",432,"Shallow","Invalid",1,1,1599.376,"Include"
"JCD2012_e2","JCD2012_e2_11",433,"Deep","Valid",1,6,619.3489,"Include"
"JCD2012_e2","JCD2012_e2_11",434,"Baseline","Invalid",0,2,763.7364,"Include"
"JCD2012_e2","JCD2012_e2_11",435,"Shallow","Valid",1,6,748.3561,"Include"
"JCD2012_e2","JCD2012_e2_11",436,"Shallow","Valid",1,1,784.4695,"Include"
"JCD2012_e2","JCD2012_e2_11",437,"Shallow","Valid",1,6,815.4719,"Include"
"JCD2012_e2","JCD2012_e2_11",438,"Deep","Valid",1,6,923.7422,"Include"
"JCD2012_e2","JCD2012_e2_11",439,"Baseline","Invalid",0,1,696.8058,"Include"
"JCD2012_e2","JCD2012_e2_11",440,"Baseline","Valid",0,1,892.7621,"Include"
"JCD2012_e2","JCD2012_e2_11",441,"Baseline","Valid",0,1,830.6897,"Include"
"JCD2012_e2","JCD2012_e2_11",442,"Deep","Invalid",1,1,676.011,"Include"
"JCD2012_e2","JCD2012_e2_11",443,"Shallow","NoCue",1,6,995.845,"Include"
"JCD2012_e2","JCD2012_e2_11",444,"Deep","Valid",1,2,954.5517,"Include"
"JCD2012_e2","JCD2012_e2_11",445,"Deep","Valid",1,6,980.317,"Include"
"JCD2012_e2","JCD2012_e2_11",446,"Shallow","NoCue",1,4,2347.06,"Include"
"JCD2012_e2","JCD2012_e2_11",447,"Deep","Valid",1,6,892.7009,"Include"
"JCD2012_e2","JCD2012_e2_11",448,"Shallow","Valid",1,6,609.0973,"Include"
"JCD2012_e2","JCD2012_e2_11",449,"Shallow","Invalid",1,1,232.5889,"Include"
"JCD2012_e2","JCD2012_e2_11",450,"Shallow","Valid",1,6,402.8438,"Include"
"JCD2012_e2","JCD2012_e2_12",1,"Baseline","Valid",0,1,12288.22,"Include"
"JCD2012_e2","JCD2012_e2_12",2,"Shallow","Valid",1,6,5102.058,"Include"
"JCD2012_e2","JCD2012_e2_12",3,"Shallow","Valid",1,6,3910.483,"Include"
"JCD2012_e2","JCD2012_e2_12",4,"Baseline","Valid",0,1,5742.09,"Include"
"JCD2012_e2","JCD2012_e2_12",5,"Deep","NoCue",1,6,4658.293,"Include"
"JCD2012_e2","JCD2012_e2_12",6,"Deep","Valid",1,6,1233.233,"Include"
"JCD2012_e2","JCD2012_e2_12",7,"Shallow","Valid",1,3,9950.972,"Include"
"JCD2012_e2","JCD2012_e2_12",8,"Baseline","Valid",0,2,7583.52,"Include"
"JCD2012_e2","JCD2012_e2_12",9,"Baseline","NoCue",0,2,3590.829,"Include"
"JCD2012_e2","JCD2012_e2_12",10,"Deep","Valid",1,4,18931.58,"Include"
"JCD2012_e2","JCD2012_e2_12",11,"Deep","NoCue",1,6,1372.602,"Include"
"JCD2012_e2","JCD2012_e2_12",12,"Deep","Valid",1,6,1346.925,"Include"
"JCD2012_e2","JCD2012_e2_12",13,"Baseline","Valid",0,1,1450.043,"Include"
"JCD2012_e2","JCD2012_e2_12",14,"Shallow","Valid",1,4,3121.127,"Include"
"JCD2012_e2","JCD2012_e2_12",15,"Deep","NoCue",1,6,1331.289,"Include"
"JCD2012_e2","JCD2012_e2_12",16,"Shallow","Valid",1,4,6149.48,"Include"
"JCD2012_e2","JCD2012_e2_12",17,"Deep","NoCue",1,6,1965.867,"Include"
"JCD2012_e2","JCD2012_e2_12",18,"Baseline","Valid",0,1,1738.877,"Include"
"JCD2012_e2","JCD2012_e2_12",19,"Shallow","Valid",1,6,2244.233,"Include"
