"exp","id","condition1","block","trial","isold","rating","RT","excluding"
"JCM2019_e1","JCM2019_e1_1","Old85",1,1,1,2,1650,"Include"
"JCM2019_e1","JCM2019_e1_1","Old85",1,2,1,5,1939,"Include"
"JCM2019_e1","JCM2019_e1_1","Old85",1,3,1,6,1319,"Include"
"JCM2019_e1","JCM2019_e1_1","Old85",1,4,0,2,1844,"Include"
"JCM2019_e1","JCM2019_e1_1","Old85",1,5,1,6,1315,"Include"
"JCM2019_e1","JCM2019_e1_1","Old85",1,6,1,5,2111,"Include"
"JCM2019_e1","JCM2019_e1_1","Old85",1,7,1,2,1945,"Include"
"JCM2019_e1","JCM2019_e1_1","Old85",1,8,0,1,1006,"Include"
"JCM2019_e1","JCM2019_e1_1","Old85",1,9,0,2,1283,"Include"
"JCM2019_e1","JCM2019_e1_1","Old85",1,10,1,2,1515,"Include"
"JCM2019_e1","JCM2019_e1_1","Old85",1,11,1,5,1646,"Include"
"JCM2019_e1","JCM2019_e1_1","Old85",1,12,1,5,1835,"Include"
"JCM2019_e1","JCM2019_e1_1","Old85",1,13,1,5,3213,"Include"
"JCM2019_e1","JCM2019_e1_1","Old85",1,14,1,2,1605,"Include"
"JCM2019_e1","JCM2019_e1_1","Old85",1,15,1,1,2675,"Include"
"JCM2019_e1","JCM2019_e1_1","Old85",1,16,1,2,1510,"Include"
"JCM2019_e1","JCM2019_e1_1","Old85",1,17,1,2,2097,"Include"
"JCM2019_e1","JCM2019_e1_1","Old85",1,18,1,5,965,"Include"
"JCM2019_e1","JCM2019_e1_1","Old85",1,19,1,6,937,"Include"
"JCM2019_e1","JCM2019_e1_1","Old85",1,20,1,2,1846,"Include"
"JCM2019_e1","JCM2019_e1_1","Old85",1,21,1,5,2341,"Include"
"JCM2019_e1","JCM2019_e1_1","Old85",1,22,1,2,926,"Include"
"JCM2019_e1","JCM2019_e1_1","Old85",1,23,1,6,1083,"Include"
"JCM2019_e1","JCM2019_e1_1","Old85",1,24,0,2,1724,"Include"
"JCM2019_e1","JCM2019_e1_1","Old85",1,25,1,6,2441,"Include"
"JCM2019_e1","JCM2019_e1_1","Old85",1,26,1,6,1092,"Include"
"JCM2019_e1","JCM2019_e1_1","Old85",1,27,1,6,715,"Include"
"JCM2019_e1","JCM2019_e1_1","Old85",1,28,1,2,1614,"Include"
"JCM2019_e1","JCM2019_e1_1","Old85",1,29,1,5,1079,"Include"
"JCM2019_e1","JCM2019_e1_1","Old85",1,30,0,1,928,"Include"
"JCM2019_e1","JCM2019_e1_1","Old85",1,31,0,2,1293,"Include"
"JCM2019_e1","JCM2019_e1_1","Old85",1,32,1,6,1208,"Include"
"JCM2019_e1","JCM2019_e1_1","Old85",1,33,1,6,798,"Include"
"JCM2019_e1","JCM2019_e1_1","Old85",1,34,1,5,1941,"Include"
"JCM2019_e1","JCM2019_e1_1","Old85",1,35,1,2,884,"Include"
"JCM2019_e1","JCM2019_e1_1","Old85",1,36,1,5,1081,"Include"
"JCM2019_e1","JCM2019_e1_1","Old85",1,37,1,2,1107,"Include"
"JCM2019_e1","JCM2019_e1_1","Old85",1,38,1,6,1089,"Include"
"JCM2019_e1","JCM2019_e1_1","Old85",1,39,1,6,743,"Include"
"JCM2019_e1","JCM2019_e1_1","Old85",1,40,1,2,1258,"Include"
"JCM2019_e1","JCM2019_e1_1","Old85",1,41,0,2,1458,"Include"
"JCM2019_e1","JCM2019_e1_1","Old85",1,42,1,2,3779,"Include"
"JCM2019_e1","JCM2019_e1_1","Old85",1,43,1,2,881,"Include"
"JCM2019_e1","JCM2019_e1_1","Old85",1,44,0,2,3041,"Include"
"JCM2019_e1","JCM2019_e1_1","Old85",1,45,1,6,739,"Include"
"JCM2019_e1","JCM2019_e1_1","Old85",1,46,1,2,1211,"Include"
"JCM2019_e1","JCM2019_e1_1","Old85",1,47,1,6,843,"Include"
"JCM2019_e1","JCM2019_e1_1","Old85",1,48,1,2,1152,"Include"
"JCM2019_e1","JCM2019_e1_1","Old85",1,49,1,6,946,"Include"
"JCM2019_e1","JCM2019_e1_1","Old85",1,50,1,2,1388,"Include"
"JCM2019_e1","JCM2019_e1_1","Old85",1,51,1,6,832,"Include"
"JCM2019_e1","JCM2019_e1_1","Old85",1,52,1,3,2037,"Include"
"JCM2019_e1","JCM2019_e1_1","Old85",1,53,0,5,1848,"Include"
"JCM2019_e1","JCM2019_e1_1","Old85",1,54,1,5,952,"Include"
"JCM2019_e1","JCM2019_e1_1","Old85",1,55,0,5,987,"Include"
"JCM2019_e1","JCM2019_e1_1","Old85",1,56,1,6,3797,"Include"
"JCM2019_e1","JCM2019_e1_1","Old85",1,57,1,2,1196,"Include"
"JCM2019_e1","JCM2019_e1_1","Old85",1,58,1,5,1020,"Include"
"JCM2019_e1","JCM2019_e1_1","Old85",1,59,1,5,1124,"Include"
"JCM2019_e1","JCM2019_e1_1","Old85",1,60,1,6,816,"Include"
"JCM2019_e1","JCM2019_e1_1","Old85",1,61,1,6,792,"Include"
"JCM2019_e1","JCM2019_e1_1","Old85",1,62,1,6,666,"Include"
"JCM2019_e1","JCM2019_e1_1","Old85",1,63,1,6,1112,"Include"
"JCM2019_e1","JCM2019_e1_1","Old85",1,64,1,6,700,"Include"
"JCM2019_e1","JCM2019_e1_1","Old85",1,65,1,2,1137,"Include"
"JCM2019_e1","JCM2019_e1_1","Old85",1,66,1,2,1099,"Include"
"JCM2019_e1","JCM2019_e1_1","Old85",1,67,1,2,1243,"Include"
"JCM2019_e1","JCM2019_e1_1","Old85",1,68,1,5,1705,"Include"
"JCM2019_e1","JCM2019_e1_1","Old85",1,69,1,4,2720,"Include"
"JCM2019_e1","JCM2019_e1_1","Old85",1,70,1,2,2964,"Include"
"JCM2019_e1","JCM2019_e1_1","Old85",1,71,1,6,988,"Include"
"JCM2019_e1","JCM2019_e1_1","Old85",1,72,1,6,698,"Include"
"JCM2019_e1","JCM2019_e1_1","Old85",1,73,1,6,1126,"Include"
"JCM2019_e1","JCM2019_e1_1","Old85",1,74,1,2,1248,"Include"
"JCM2019_e1","JCM2019_e1_1","Old85",1,75,1,5,992,"Include"
"JCM2019_e1","JCM2019_e1_1","Old85",1,76,1,3,2692,"Include"
"JCM2019_e1","JCM2019_e1_1","Old85",1,77,0,3,982,"Include"
"JCM2019_e1","JCM2019_e1_1","Old85",1,78,1,6,1118,"Include"
"JCM2019_e1","JCM2019_e1_1","Old85",1,79,1,6,1073,"Include"
"JCM2019_e1","JCM2019_e1_1","Old85",1,80,1,6,1190,"Include"
"JCM2019_e1","JCM2019_e1_1","Old85",1,81,1,4,2103,"Include"
"JCM2019_e1","JCM2019_e1_1","Old85",1,82,0,3,1644,"Include"
"JCM2019_e1","JCM2019_e1_1","Old85",1,83,1,3,1097,"Include"
"JCM2019_e1","JCM2019_e1_1","Old85",1,84,1,6,1803,"Include"
"JCM2019_e1","JCM2019_e1_1","Old85",1,85,1,5,1419,"Include"
"JCM2019_e1","JCM2019_e1_1","Old85",1,86,0,2,5063,"Include"
"JCM2019_e1","JCM2019_e1_1","Old85",1,87,0,6,884,"Include"
"JCM2019_e1","JCM2019_e1_1","Old85",1,88,1,6,689,"Include"
"JCM2019_e1","JCM2019_e1_1","Old85",1,89,1,6,1167,"Include"
"JCM2019_e1","JCM2019_e1_1","Old85",1,90,1,2,890,"Include"
"JCM2019_e1","JCM2019_e1_1","Old85",1,91,1,2,1035,"Include"
"JCM2019_e1","JCM2019_e1_1","Old85",1,92,0,2,962,"Include"
"JCM2019_e1","JCM2019_e1_1","Old85",1,93,1,6,953,"Include"
"JCM2019_e1","JCM2019_e1_1","Old85",1,94,1,6,822,"Include"
"JCM2019_e1","JCM2019_e1_1","Old85",1,95,1,6,871,"Include"
"JCM2019_e1","JCM2019_e1_1","Old85",1,96,1,6,901,"Include"
"JCM2019_e1","JCM2019_e1_1","Old85",1,97,1,6,788,"Include"
"JCM2019_e1","JCM2019_e1_1","Old85",1,98,1,6,638,"Include"
"JCM2019_e1","JCM2019_e1_1","Old85",1,99,1,6,1127,"Include"
"JCM2019_e1","JCM2019_e1_1","Old85",1,100,1,2,1229,"Include"
"JCM2019_e1","JCM2019_e1_1","Old65",2,1,1,5,1505,"Include"
"JCM2019_e1","JCM2019_e1_1","Old65",2,2,0,2,1432,"Include"
"JCM2019_e1","JCM2019_e1_1","Old65",2,3,1,2,1368,"Include"
"JCM2019_e1","JCM2019_e1_1","Old65",2,4,0,2,1578,"Include"
"JCM2019_e1","JCM2019_e1_1","Old65",2,5,1,5,1069,"Include"
"JCM2019_e1","JCM2019_e1_1","Old65",2,6,1,5,806,"Include"
"JCM2019_e1","JCM2019_e1_1","Old65",2,7,1,6,1105,"Include"
"JCM2019_e1","JCM2019_e1_1","Old65",2,8,0,5,1447,"Include"
"JCM2019_e1","JCM2019_e1_1","Old65",2,9,1,6,894,"Include"
"JCM2019_e1","JCM2019_e1_1","Old65",2,10,0,5,3186,"Include"
"JCM2019_e1","JCM2019_e1_1","Old65",2,11,0,2,1998,"Include"
"JCM2019_e1","JCM2019_e1_1","Old65",2,12,0,2,1686,"Include"
"JCM2019_e1","JCM2019_e1_1","Old65",2,13,0,6,1677,"Include"
"JCM2019_e1","JCM2019_e1_1","Old65",2,14,1,6,949,"Include"
"JCM2019_e1","JCM2019_e1_1","Old65",2,15,1,5,1361,"Include"
"JCM2019_e1","JCM2019_e1_1","Old65",2,16,0,5,2053,"Include"
"JCM2019_e1","JCM2019_e1_1","Old65",2,17,1,2,1112,"Include"
"JCM2019_e1","JCM2019_e1_1","Old65",2,18,0,3,1253,"Include"
"JCM2019_e1","JCM2019_e1_1","Old65",2,19,0,1,978,"Include"
"JCM2019_e1","JCM2019_e1_1","Old65",2,20,1,6,1239,"Include"
"JCM2019_e1","JCM2019_e1_1","Old65",2,21,1,6,1262,"Include"
"JCM2019_e1","JCM2019_e1_1","Old65",2,22,0,5,1343,"Include"
"JCM2019_e1","JCM2019_e1_1","Old65",2,23,1,6,890,"Include"
"JCM2019_e1","JCM2019_e1_1","Old65",2,24,0,3,830,"Include"
"JCM2019_e1","JCM2019_e1_1","Old65",2,25,0,5,1700,"Include"
"JCM2019_e1","JCM2019_e1_1","Old65",2,26,0,5,1560,"Include"
"JCM2019_e1","JCM2019_e1_1","Old65",2,27,1,5,1211,"Include"
"JCM2019_e1","JCM2019_e1_1","Old65",2,28,1,5,934,"Include"
"JCM2019_e1","JCM2019_e1_1","Old65",2,29,1,5,1618,"Include"
"JCM2019_e1","JCM2019_e1_1","Old65",2,30,1,1,1728,"Include"
"JCM2019_e1","JCM2019_e1_1","Old65",2,31,1,2,1696,"Include"
"JCM2019_e1","JCM2019_e1_1","Old65",2,32,0,2,1455,"Include"
"JCM2019_e1","JCM2019_e1_1","Old65",2,33,1,2,850,"Include"
"JCM2019_e1","JCM2019_e1_1","Old65",2,34,1,5,2794,"Include"
"JCM2019_e1","JCM2019_e1_1","Old65",2,35,1,6,926,"Include"
"JCM2019_e1","JCM2019_e1_1","Old65",2,36,1,6,827,"Include"
"JCM2019_e1","JCM2019_e1_1","Old65",2,37,1,6,924,"Include"
"JCM2019_e1","JCM2019_e1_1","Old65",2,38,1,6,2569,"Include"
"JCM2019_e1","JCM2019_e1_1","Old65",2,39,0,6,830,"Include"
"JCM2019_e1","JCM2019_e1_1","Old65",2,40,0,5,1344,"Include"
"JCM2019_e1","JCM2019_e1_1","Old65",2,41,0,1,1438,"Include"
"JCM2019_e1","JCM2019_e1_1","Old65",2,42,0,1,974,"Include"
"JCM2019_e1","JCM2019_e1_1","Old65",2,43,1,2,1137,"Include"
"JCM2019_e1","JCM2019_e1_1","Old65",2,44,1,5,1359,"Include"
"JCM2019_e1","JCM2019_e1_1","Old65",2,45,1,5,1463,"Include"
"JCM2019_e1","JCM2019_e1_1","Old65",2,46,1,6,927,"Include"
"JCM2019_e1","JCM2019_e1_1","Old65",2,47,1,4,2390,"Include"
"JCM2019_e1","JCM2019_e1_1","Old65",2,48,1,5,1381,"Include"
"JCM2019_e1","JCM2019_e1_1","Old65",2,49,0,4,957,"Include"
"JCM2019_e1","JCM2019_e1_1","Old65",2,50,1,6,1015,"Include"
"JCM2019_e1","JCM2019_e1_1","Old65",2,51,1,6,975,"Include"
"JCM2019_e1","JCM2019_e1_1","Old65",2,52,0,2,1046,"Include"
"JCM2019_e1","JCM2019_e1_1","Old65",2,53,1,6,803,"Include"
"JCM2019_e1","JCM2019_e1_1","Old65",2,54,1,5,2933,"Include"
"JCM2019_e1","JCM2019_e1_1","Old65",2,55,1,5,1162,"Include"
"JCM2019_e1","JCM2019_e1_1","Old65",2,56,1,6,1394,"Include"
"JCM2019_e1","JCM2019_e1_1","Old65",2,57,1,5,2069,"Include"
"JCM2019_e1","JCM2019_e1_1","Old65",2,58,1,2,1124,"Include"
"JCM2019_e1","JCM2019_e1_1","Old65",2,59,1,2,792,"Include"
"JCM2019_e1","JCM2019_e1_1","Old65",2,60,1,5,1012,"Include"
"JCM2019_e1","JCM2019_e1_1","Old65",2,61,0,2,1219,"Include"
"JCM2019_e1","JCM2019_e1_1","Old65",2,62,1,3,1040,"Include"
"JCM2019_e1","JCM2019_e1_1","Old65",2,63,1,5,2381,"Include"
"JCM2019_e1","JCM2019_e1_1","Old65",2,64,1,2,1023,"Include"
"JCM2019_e1","JCM2019_e1_1","Old65",2,65,1,6,973,"Include"
"JCM2019_e1","JCM2019_e1_1","Old65",2,66,1,6,907,"Include"
"JCM2019_e1","JCM2019_e1_1","Old65",2,67,1,2,1018,"Include"
"JCM2019_e1","JCM2019_e1_1","Old65",2,68,1,2,947,"Include"
"JCM2019_e1","JCM2019_e1_1","Old65",2,69,1,2,1041,"Include"
"JCM2019_e1","JCM2019_e1_1","Old65",2,70,1,5,1603,"Include"
"JCM2019_e1","JCM2019_e1_1","Old65",2,71,0,2,958,"Include"
"JCM2019_e1","JCM2019_e1_1","Old65",2,72,1,2,829,"Include"
"JCM2019_e1","JCM2019_e1_1","Old65",2,73,0,2,881,"Include"
"JCM2019_e1","JCM2019_e1_1","Old65",2,74,1,6,963,"Include"
"JCM2019_e1","JCM2019_e1_1","Old65",2,75,1,6,1057,"Include"
"JCM2019_e1","JCM2019_e1_1","Old65",2,76,1,1,768,"Include"
"JCM2019_e1","JCM2019_e1_1","Old65",2,77,0,5,1135,"Include"
"JCM2019_e1","JCM2019_e1_1","Old65",2,78,1,6,1029,"Include"
"JCM2019_e1","JCM2019_e1_1","Old65",2,79,0,1,877,"Include"
"JCM2019_e1","JCM2019_e1_1","Old65",2,80,1,5,2787,"Include"
"JCM2019_e1","JCM2019_e1_1","Old65",2,81,1,5,974,"Include"
"JCM2019_e1","JCM2019_e1_1","Old65",2,82,0,1,1283,"Include"
"JCM2019_e1","JCM2019_e1_1","Old65",2,83,0,1,1480,"Include"
"JCM2019_e1","JCM2019_e1_1","Old65",2,84,0,5,1523,"Include"
"JCM2019_e1","JCM2019_e1_1","Old65",2,85,1,5,1720,"Include"
"JCM2019_e1","JCM2019_e1_1","Old65",2,86,0,5,1008,"Include"
"JCM2019_e1","JCM2019_e1_1","Old65",2,87,1,6,907,"Include"
"JCM2019_e1","JCM2019_e1_1","Old65",2,88,0,2,1206,"Include"
"JCM2019_e1","JCM2019_e1_1","Old65",2,89,0,3,1638,"Include"
"JCM2019_e1","JCM2019_e1_1","Old65",2,90,1,2,1075,"Include"
"JCM2019_e1","JCM2019_e1_1","Old65",2,91,0,3,1447,"Include"
"JCM2019_e1","JCM2019_e1_1","Old65",2,92,0,5,1580,"Include"
"JCM2019_e1","JCM2019_e1_1","Old65",2,93,1,5,1247,"Include"
"JCM2019_e1","JCM2019_e1_1","Old65",2,94,1,2,1400,"Include"
"JCM2019_e1","JCM2019_e1_1","Old65",2,95,1,6,1634,"Include"
"JCM2019_e1","JCM2019_e1_1","Old65",2,96,0,5,1168,"Include"
"JCM2019_e1","JCM2019_e1_1","Old65",2,97,1,5,1602,"Include"
"JCM2019_e1","JCM2019_e1_1","Old65",2,98,1,6,883,"Include"
"JCM2019_e1","JCM2019_e1_1","Old65",2,99,1,6,2482,"Include"
"JCM2019_e1","JCM2019_e1_1","Old65",2,100,1,6,784,"Include"
"JCM2019_e1","JCM2019_e1_1","Old50",3,1,0,2,1587,"Include"
"JCM2019_e1","JCM2019_e1_1","Old50",3,2,1,5,1191,"Include"
"JCM2019_e1","JCM2019_e1_1","Old50",3,3,1,5,1001,"Include"
"JCM2019_e1","JCM2019_e1_1","Old50",3,4,1,2,2196,"Include"
"JCM2019_e1","JCM2019_e1_1","Old50",3,5,0,2,1159,"Include"
"JCM2019_e1","JCM2019_e1_1","Old50",3,6,1,6,763,"Include"
"JCM2019_e1","JCM2019_e1_1","Old50",3,7,0,2,869,"Include"
"JCM2019_e1","JCM2019_e1_1","Old50",3,8,1,5,2045,"Include"
"JCM2019_e1","JCM2019_e1_1","Old50",3,9,0,2,944,"Include"
"JCM2019_e1","JCM2019_e1_1","Old50",3,10,1,6,813,"Include"
"JCM2019_e1","JCM2019_e1_1","Old50",3,11,0,6,974,"Include"
"JCM2019_e1","JCM2019_e1_1","Old50",3,12,0,2,906,"Include"
"JCM2019_e1","JCM2019_e1_1","Old50",3,13,1,5,1297,"Include"
"JCM2019_e1","JCM2019_e1_1","Old50",3,14,0,2,1567,"Include"
"JCM2019_e1","JCM2019_e1_1","Old50",3,15,0,2,1866,"Include"
"JCM2019_e1","JCM2019_e1_1","Old50",3,16,1,6,898,"Include"
"JCM2019_e1","JCM2019_e1_1","Old50",3,17,1,2,1934,"Include"
"JCM2019_e1","JCM2019_e1_1","Old50",3,18,0,2,884,"Include"
"JCM2019_e1","JCM2019_e1_1","Old50",3,19,1,6,788,"Include"
"JCM2019_e1","JCM2019_e1_1","Old50",3,20,1,6,787,"Include"
"JCM2019_e1","JCM2019_e1_1","Old50",3,21,1,2,1036,"Include"
"JCM2019_e1","JCM2019_e1_1","Old50",3,22,1,6,1173,"Include"
"JCM2019_e1","JCM2019_e1_1","Old50",3,23,1,6,649,"Include"
"JCM2019_e1","JCM2019_e1_1","Old50",3,24,1,6,1223,"Include"
"JCM2019_e1","JCM2019_e1_1","Old50",3,25,1,2,1193,"Include"
"JCM2019_e1","JCM2019_e1_1","Old50",3,26,1,2,1684,"Include"
"JCM2019_e1","JCM2019_e1_1","Old50",3,27,1,2,1005,"Include"
"JCM2019_e1","JCM2019_e1_1","Old50",3,28,0,2,743,"Include"
"JCM2019_e1","JCM2019_e1_1","Old50",3,29,1,6,845,"Include"
"JCM2019_e1","JCM2019_e1_1","Old50",3,30,1,6,629,"Include"
"JCM2019_e1","JCM2019_e1_1","Old50",3,31,0,6,774,"Include"
"JCM2019_e1","JCM2019_e1_1","Old50",3,32,1,5,1862,"Include"
"JCM2019_e1","JCM2019_e1_1","Old50",3,33,0,2,1133,"Include"
"JCM2019_e1","JCM2019_e1_1","Old50",3,34,0,1,729,"Include"
"JCM2019_e1","JCM2019_e1_1","Old50",3,35,1,6,917,"Include"
"JCM2019_e1","JCM2019_e1_1","Old50",3,36,1,6,714,"Include"
"JCM2019_e1","JCM2019_e1_1","Old50",3,37,1,5,1448,"Include"
"JCM2019_e1","JCM2019_e1_1","Old50",3,38,0,2,864,"Include"
"JCM2019_e1","JCM2019_e1_1","Old50",3,39,1,6,885,"Include"
"JCM2019_e1","JCM2019_e1_1","Old50",3,40,1,5,1411,"Include"
"JCM2019_e1","JCM2019_e1_1","Old50",3,41,0,1,830,"Include"
"JCM2019_e1","JCM2019_e1_1","Old50",3,42,0,1,886,"Include"
"JCM2019_e1","JCM2019_e1_1","Old50",3,43,1,6,786,"Include"
"JCM2019_e1","JCM2019_e1_1","Old50",3,44,0,6,1523,"Include"
"JCM2019_e1","JCM2019_e1_1","Old50",3,45,1,6,863,"Include"
"JCM2019_e1","JCM2019_e1_1","Old50",3,46,0,1,1304,"Include"
"JCM2019_e1","JCM2019_e1_1","Old50",3,47,0,2,1461,"Include"
"JCM2019_e1","JCM2019_e1_1","Old50",3,48,0,2,1124,"Include"
"JCM2019_e1","JCM2019_e1_1","Old50",3,49,1,5,1273,"Include"
"JCM2019_e1","JCM2019_e1_1","Old50",3,50,0,6,895,"Include"
"JCM2019_e1","JCM2019_e1_1","Old50",3,51,1,2,837,"Include"
"JCM2019_e1","JCM2019_e1_1","Old50",3,52,1,6,798,"Include"
"JCM2019_e1","JCM2019_e1_1","Old50",3,53,0,2,1384,"Include"
"JCM2019_e1","JCM2019_e1_1","Old50",3,54,0,2,658,"Include"
"JCM2019_e1","JCM2019_e1_1","Old50",3,55,0,2,787,"Include"
"JCM2019_e1","JCM2019_e1_1","Old50",3,56,0,2,676,"Include"
"JCM2019_e1","JCM2019_e1_1","Old50",3,57,1,2,619,"Include"
"JCM2019_e1","JCM2019_e1_1","Old50",3,58,1,2,869,"Include"
"JCM2019_e1","JCM2019_e1_1","Old50",3,59,0,2,854,"Include"
"JCM2019_e1","JCM2019_e1_1","Old50",3,60,0,1,1289,"Include"
"JCM2019_e1","JCM2019_e1_1","Old50",3,61,1,5,1274,"Include"
"JCM2019_e1","JCM2019_e1_1","Old50",3,62,0,2,866,"Include"
"JCM2019_e1","JCM2019_e1_1","Old50",3,63,0,2,956,"Include"
"JCM2019_e1","JCM2019_e1_1","Old50",3,64,1,3,740,"Include"
"JCM2019_e1","JCM2019_e1_1","Old50",3,65,1,2,2226,"Include"
"JCM2019_e1","JCM2019_e1_1","Old50",3,66,0,5,1083,"Include"
"JCM2019_e1","JCM2019_e1_1","Old50",3,67,0,2,857,"Include"
"JCM2019_e1","JCM2019_e1_1","Old50",3,68,0,2,739,"Include"
"JCM2019_e1","JCM2019_e1_1","Old50",3,69,0,1,801,"Include"
"JCM2019_e1","JCM2019_e1_1","Old50",3,70,1,5,1551,"Include"
"JCM2019_e1","JCM2019_e1_1","Old50",3,71,0,2,717,"Include"
"JCM2019_e1","JCM2019_e1_1","Old50",3,72,0,6,1094,"Include"
"JCM2019_e1","JCM2019_e1_1","Old50",3,73,1,6,1052,"Include"
"JCM2019_e1","JCM2019_e1_1","Old50",3,74,0,6,1029,"Include"
"JCM2019_e1","JCM2019_e1_1","Old50",3,75,0,2,840,"Include"
"JCM2019_e1","JCM2019_e1_1","Old50",3,76,1,2,1098,"Include"
"JCM2019_e1","JCM2019_e1_1","Old50",3,77,1,5,3096,"Include"
"JCM2019_e1","JCM2019_e1_1","Old50",3,78,1,5,1197,"Include"
"JCM2019_e1","JCM2019_e1_1","Old50",3,79,0,2,1588,"Include"
"JCM2019_e1","JCM2019_e1_1","Old50",3,80,1,2,1664,"Include"
"JCM2019_e1","JCM2019_e1_1","Old50",3,81,0,6,850,"Include"
"JCM2019_e1","JCM2019_e1_1","Old50",3,82,0,2,863,"Include"
"JCM2019_e1","JCM2019_e1_1","Old50",3,83,1,2,1088,"Include"
"JCM2019_e1","JCM2019_e1_1","Old50",3,84,1,2,648,"Include"
"JCM2019_e1","JCM2019_e1_1","Old50",3,85,0,5,1704,"Include"
"JCM2019_e1","JCM2019_e1_1","Old50",3,86,0,6,829,"Include"
"JCM2019_e1","JCM2019_e1_1","Old50",3,87,1,2,1867,"Include"
"JCM2019_e1","JCM2019_e1_1","Old50",3,88,0,2,769,"Include"
"JCM2019_e1","JCM2019_e1_1","Old50",3,89,0,5,1877,"Include"
"JCM2019_e1","JCM2019_e1_1","Old50",3,90,1,2,801,"Include"
"JCM2019_e1","JCM2019_e1_1","Old50",3,91,1,2,972,"Include"
"JCM2019_e1","JCM2019_e1_1","Old50",3,92,0,2,832,"Include"
"JCM2019_e1","JCM2019_e1_1","Old50",3,93,0,2,954,"Include"
"JCM2019_e1","JCM2019_e1_1","Old50",3,94,1,2,820,"Include"
"JCM2019_e1","JCM2019_e1_1","Old50",3,95,1,5,939,"Include"
"JCM2019_e1","JCM2019_e1_1","Old50",3,96,0,4,966,"Include"
"JCM2019_e1","JCM2019_e1_1","Old50",3,97,1,3,763,"Include"
"JCM2019_e1","JCM2019_e1_1","Old50",3,98,0,3,1194,"Include"
"JCM2019_e1","JCM2019_e1_1","Old50",3,99,0,5,1240,"Include"
"JCM2019_e1","JCM2019_e1_1","Old50",3,100,0,5,1837,"Include"
"JCM2019_e1","JCM2019_e1_1","Old35",4,1,1,6,1054,"Include"
"JCM2019_e1","JCM2019_e1_1","Old35",4,2,0,5,1466,"Include"
"JCM2019_e1","JCM2019_e1_1","Old35",4,3,1,5,2337,"Include"
"JCM2019_e1","JCM2019_e1_1","Old35",4,4,0,2,759,"Include"
"JCM2019_e1","JCM2019_e1_1","Old35",4,5,0,2,795,"Include"
"JCM2019_e1","JCM2019_e1_1","Old35",4,6,1,5,1330,"Include"
"JCM2019_e1","JCM2019_e1_1","Old35",4,7,0,2,720,"Include"
"JCM2019_e1","JCM2019_e1_1","Old35",4,8,1,5,1366,"Include"
"JCM2019_e1","JCM2019_e1_1","Old35",4,9,1,5,1137,"Include"
"JCM2019_e1","JCM2019_e1_1","Old35",4,10,1,2,886,"Include"
"JCM2019_e1","JCM2019_e1_1","Old35",4,11,0,6,750,"Include"
"JCM2019_e1","JCM2019_e1_1","Old35",4,12,0,2,822,"Include"
"JCM2019_e1","JCM2019_e1_1","Old35",4,13,0,2,928,"Include"
"JCM2019_e1","JCM2019_e1_1","Old35",4,14,1,5,1206,"Include"
"JCM2019_e1","JCM2019_e1_1","Old35",4,15,1,2,894,"Include"
"JCM2019_e1","JCM2019_e1_1","Old35",4,16,1,6,959,"Include"
"JCM2019_e1","JCM2019_e1_1","Old35",4,17,0,2,683,"Include"
"JCM2019_e1","JCM2019_e1_1","Old35",4,18,0,2,1085,"Include"
"JCM2019_e1","JCM2019_e1_1","Old35",4,19,0,1,1479,"Include"
"JCM2019_e1","JCM2019_e1_1","Old35",4,20,0,2,1467,"Include"
"JCM2019_e1","JCM2019_e1_1","Old35",4,21,0,5,1728,"Include"
"JCM2019_e1","JCM2019_e1_1","Old35",4,22,0,2,670,"Include"
"JCM2019_e1","JCM2019_e1_1","Old35",4,23,0,2,744,"Include"
"JCM2019_e1","JCM2019_e1_1","Old35",4,24,0,3,743,"Include"
"JCM2019_e1","JCM2019_e1_1","Old35",4,25,1,2,843,"Include"
"JCM2019_e1","JCM2019_e1_1","Old35",4,26,1,5,1604,"Include"
"JCM2019_e1","JCM2019_e1_1","Old35",4,27,0,5,1771,"Include"
"JCM2019_e1","JCM2019_e1_1","Old35",4,28,0,2,792,"Include"
"JCM2019_e1","JCM2019_e1_1","Old35",4,29,0,2,2409,"Include"
"JCM2019_e1","JCM2019_e1_1","Old35",4,30,0,6,1365,"Include"
"JCM2019_e1","JCM2019_e1_1","Old35",4,31,0,2,942,"Include"
"JCM2019_e1","JCM2019_e1_1","Old35",4,32,0,1,1411,"Include"
"JCM2019_e1","JCM2019_e1_1","Old35",4,33,0,5,1688,"Include"
"JCM2019_e1","JCM2019_e1_1","Old35",4,34,0,5,949,"Include"
"JCM2019_e1","JCM2019_e1_1","Old35",4,35,0,1,705,"Include"
"JCM2019_e1","JCM2019_e1_1","Old35",4,36,0,5,1158,"Include"
"JCM2019_e1","JCM2019_e1_1","Old35",4,37,0,2,613,"Include"
"JCM2019_e1","JCM2019_e1_1","Old35",4,38,0,3,1550,"Include"
"JCM2019_e1","JCM2019_e1_1","Old35",4,39,0,2,849,"Include"
"JCM2019_e1","JCM2019_e1_1","Old35",4,40,0,2,1107,"Include"
"JCM2019_e1","JCM2019_e1_1","Old35",4,41,0,2,2656,"Include"
"JCM2019_e1","JCM2019_e1_1","Old35",4,42,0,5,1786,"Include"
"JCM2019_e1","JCM2019_e1_1","Old35",4,43,0,2,1269,"Include"
"JCM2019_e1","JCM2019_e1_1","Old35",4,44,0,2,1666,"Include"
"JCM2019_e1","JCM2019_e1_1","Old35",4,45,0,2,697,"Include"
"JCM2019_e1","JCM2019_e1_1","Old35",4,46,0,1,1407,"Include"
"JCM2019_e1","JCM2019_e1_1","Old35",4,47,0,3,2312,"Include"
"JCM2019_e1","JCM2019_e1_1","Old35",4,48,1,2,670,"Include"
"JCM2019_e1","JCM2019_e1_1","Old35",4,49,1,2,1182,"Include"
"JCM2019_e1","JCM2019_e1_1","Old35",4,50,0,2,1348,"Include"
"JCM2019_e1","JCM2019_e1_1","Old35",4,51,0,2,699,"Include"
"JCM2019_e1","JCM2019_e1_1","Old35",4,52,0,2,716,"Include"
"JCM2019_e1","JCM2019_e1_1","Old35",4,53,0,2,779,"Include"
"JCM2019_e1","JCM2019_e1_1","Old35",4,54,1,5,960,"Include"
"JCM2019_e1","JCM2019_e1_1","Old35",4,55,0,5,2212,"Include"
"JCM2019_e1","JCM2019_e1_1","Old35",4,56,1,2,729,"Include"
"JCM2019_e1","JCM2019_e1_1","Old35",4,57,1,5,938,"Include"
"JCM2019_e1","JCM2019_e1_1","Old35",4,58,0,2,1274,"Include"
"JCM2019_e1","JCM2019_e1_1","Old35",4,59,1,2,1185,"Include"
"JCM2019_e1","JCM2019_e1_1","Old35",4,60,1,5,1014,"Include"
"JCM2019_e1","JCM2019_e1_1","Old35",4,61,0,5,905,"Include"
"JCM2019_e1","JCM2019_e1_1","Old35",4,62,0,2,737,"Include"
"JCM2019_e1","JCM2019_e1_1","Old35",4,63,1,2,872,"Include"
"JCM2019_e1","JCM2019_e1_1","Old35",4,64,0,5,1386,"Include"
"JCM2019_e1","JCM2019_e1_1","Old35",4,65,1,2,792,"Include"
"JCM2019_e1","JCM2019_e1_1","Old35",4,66,0,5,1365,"Include"
"JCM2019_e1","JCM2019_e1_1","Old35",4,67,1,2,2000,"Include"
"JCM2019_e1","JCM2019_e1_1","Old35",4,68,0,2,1164,"Include"
"JCM2019_e1","JCM2019_e1_1","Old35",4,69,1,4,2058,"Include"
"JCM2019_e1","JCM2019_e1_1","Old35",4,70,1,6,947,"Include"
"JCM2019_e1","JCM2019_e1_1","Old35",4,71,0,2,1080,"Include"
"JCM2019_e1","JCM2019_e1_1","Old35",4,72,1,6,865,"Include"
"JCM2019_e1","JCM2019_e1_1","Old35",4,73,0,1,913,"Include"
"JCM2019_e1","JCM2019_e1_1","Old35",4,74,0,5,1270,"Include"
"JCM2019_e1","JCM2019_e1_1","Old35",4,75,0,2,1071,"Include"
"JCM2019_e1","JCM2019_e1_1","Old35",4,76,1,6,822,"Include"
"JCM2019_e1","JCM2019_e1_1","Old35",4,77,0,6,863,"Include"
"JCM2019_e1","JCM2019_e1_1","Old35",4,78,1,6,943,"Include"
"JCM2019_e1","JCM2019_e1_1","Old35",4,79,0,1,798,"Include"
"JCM2019_e1","JCM2019_e1_1","Old35",4,80,0,2,892,"Include"
"JCM2019_e1","JCM2019_e1_1","Old35",4,81,0,2,1036,"Include"
"JCM2019_e1","JCM2019_e1_1","Old35",4,82,0,1,792,"Include"
"JCM2019_e1","JCM2019_e1_1","Old35",4,83,1,5,1774,"Include"
"JCM2019_e1","JCM2019_e1_1","Old35",4,84,0,5,1146,"Include"
"JCM2019_e1","JCM2019_e1_1","Old35",4,85,0,1,1037,"Include"
"JCM2019_e1","JCM2019_e1_1","Old35",4,86,0,5,1328,"Include"
"JCM2019_e1","JCM2019_e1_1","Old35",4,87,0,2,870,"Include"
"JCM2019_e1","JCM2019_e1_1","Old35",4,88,0,2,988,"Include"
"JCM2019_e1","JCM2019_e1_1","Old35",4,89,1,2,1448,"Include"
"JCM2019_e1","JCM2019_e1_1","Old35",4,90,1,6,927,"Include"
"JCM2019_e1","JCM2019_e1_1","Old35",4,91,1,6,917,"Include"
"JCM2019_e1","JCM2019_e1_1","Old35",4,92,1,6,682,"Include"
"JCM2019_e1","JCM2019_e1_1","Old35",4,93,1,2,929,"Include"
"JCM2019_e1","JCM2019_e1_1","Old35",4,94,1,2,750,"Include"
"JCM2019_e1","JCM2019_e1_1","Old35",4,95,0,5,1449,"Include"
"JCM2019_e1","JCM2019_e1_1","Old35",4,96,0,5,1655,"Include"
"JCM2019_e1","JCM2019_e1_1","Old35",4,97,1,5,1054,"Include"
"JCM2019_e1","JCM2019_e1_1","Old35",4,98,0,2,1280,"Include"
"JCM2019_e1","JCM2019_e1_1","Old35",4,99,1,2,800,"Include"
"JCM2019_e1","JCM2019_e1_1","Old35",4,100,0,5,877,"Include"
"JCM2019_e1","JCM2019_e1_1","Old15",5,1,0,5,1591,"Include"
"JCM2019_e1","JCM2019_e1_1","Old15",5,2,0,5,1065,"Include"
"JCM2019_e1","JCM2019_e1_1","Old15",5,3,0,2,1034,"Include"
"JCM2019_e1","JCM2019_e1_1","Old15",5,4,0,2,781,"Include"
"JCM2019_e1","JCM2019_e1_1","Old15",5,5,0,6,1163,"Include"
"JCM2019_e1","JCM2019_e1_1","Old15",5,6,0,1,1088,"Include"
"JCM2019_e1","JCM2019_e1_1","Old15",5,7,0,2,1231,"Include"
"JCM2019_e1","JCM2019_e1_1","Old15",5,8,0,2,906,"Include"
"JCM2019_e1","JCM2019_e1_1","Old15",5,9,0,2,1379,"Include"
"JCM2019_e1","JCM2019_e1_1","Old15",5,10,0,2,1110,"Include"
"JCM2019_e1","JCM2019_e1_1","Old15",5,11,0,1,860,"Include"
"JCM2019_e1","JCM2019_e1_1","Old15",5,12,0,1,4486,"Include"
"JCM2019_e1","JCM2019_e1_1","Old15",5,13,0,2,2374,"Include"
"JCM2019_e1","JCM2019_e1_1","Old15",5,14,0,1,994,"Include"
"JCM2019_e1","JCM2019_e1_1","Old15",5,15,0,5,1238,"Include"
"JCM2019_e1","JCM2019_e1_1","Old15",5,16,0,2,1004,"Include"
"JCM2019_e1","JCM2019_e1_1","Old15",5,17,1,2,898,"Include"
"JCM2019_e1","JCM2019_e1_1","Old15",5,18,0,2,842,"Include"
"JCM2019_e1","JCM2019_e1_1","Old15",5,19,0,1,1129,"Include"
"JCM2019_e1","JCM2019_e1_1","Old15",5,20,0,2,1635,"Include"
"JCM2019_e1","JCM2019_e1_1","Old15",5,21,0,2,750,"Include"
"JCM2019_e1","JCM2019_e1_1","Old15",5,22,0,2,771,"Include"
"JCM2019_e1","JCM2019_e1_1","Old15",5,23,0,2,871,"Include"
"JCM2019_e1","JCM2019_e1_1","Old15",5,24,0,2,1517,"Include"
"JCM2019_e1","JCM2019_e1_1","Old15",5,25,0,5,1250,"Include"
"JCM2019_e1","JCM2019_e1_1","Old15",5,26,0,2,666,"Include"
"JCM2019_e1","JCM2019_e1_1","Old15",5,27,0,2,741,"Include"
"JCM2019_e1","JCM2019_e1_1","Old15",5,28,0,2,734,"Include"
"JCM2019_e1","JCM2019_e1_1","Old15",5,29,0,5,1238,"Include"
"JCM2019_e1","JCM2019_e1_1","Old15",5,30,0,2,735,"Include"
"JCM2019_e1","JCM2019_e1_1","Old15",5,31,0,2,656,"Include"
"JCM2019_e1","JCM2019_e1_1","Old15",5,32,0,2,932,"Include"
"JCM2019_e1","JCM2019_e1_1","Old15",5,33,1,6,1235,"Include"
"JCM2019_e1","JCM2019_e1_1","Old15",5,34,0,2,1698,"Include"
"JCM2019_e1","JCM2019_e1_1","Old15",5,35,0,2,875,"Include"
"JCM2019_e1","JCM2019_e1_1","Old15",5,36,0,2,1037,"Include"
"JCM2019_e1","JCM2019_e1_1","Old15",5,37,1,2,713,"Include"
"JCM2019_e1","JCM2019_e1_1","Old15",5,38,0,2,729,"Include"
"JCM2019_e1","JCM2019_e1_1","Old15",5,39,0,2,714,"Include"
"JCM2019_e1","JCM2019_e1_1","Old15",5,40,0,1,1169,"Include"
"JCM2019_e1","JCM2019_e1_1","Old15",5,41,0,1,648,"Include"
"JCM2019_e1","JCM2019_e1_1","Old15",5,42,1,5,1108,"Include"
"JCM2019_e1","JCM2019_e1_1","Old15",5,43,0,2,833,"Include"
"JCM2019_e1","JCM2019_e1_1","Old15",5,44,0,2,641,"Include"
"JCM2019_e1","JCM2019_e1_1","Old15",5,45,0,2,3556,"Include"
"JCM2019_e1","JCM2019_e1_1","Old15",5,46,0,2,1720,"Include"
"JCM2019_e1","JCM2019_e1_1","Old15",5,47,0,2,657,"Include"
"JCM2019_e1","JCM2019_e1_1","Old15",5,48,0,2,687,"Include"
"JCM2019_e1","JCM2019_e1_1","Old15",5,49,0,5,826,"Include"
"JCM2019_e1","JCM2019_e1_1","Old15",5,50,0,1,1274,"Include"
"JCM2019_e1","JCM2019_e1_1","Old15",5,51,0,1,963,"Include"
"JCM2019_e1","JCM2019_e1_1","Old15",5,52,0,5,1239,"Include"
"JCM2019_e1","JCM2019_e1_1","Old15",5,53,1,6,696,"Include"
"JCM2019_e1","JCM2019_e1_1","Old15",5,54,1,6,759,"Include"
"JCM2019_e1","JCM2019_e1_1","Old15",5,55,0,2,916,"Include"
"JCM2019_e1","JCM2019_e1_1","Old15",5,56,0,2,716,"Include"
"JCM2019_e1","JCM2019_e1_1","Old15",5,57,1,2,636,"Include"
"JCM2019_e1","JCM2019_e1_1","Old15",5,58,0,2,1375,"Include"
"JCM2019_e1","JCM2019_e1_1","Old15",5,59,0,2,884,"Include"
"JCM2019_e1","JCM2019_e1_1","Old15",5,60,1,5,1038,"Include"
"JCM2019_e1","JCM2019_e1_1","Old15",5,61,0,2,882,"Include"
"JCM2019_e1","JCM2019_e1_1","Old15",5,62,0,2,997,"Include"
"JCM2019_e1","JCM2019_e1_1","Old15",5,63,0,1,2180,"Include"
"JCM2019_e1","JCM2019_e1_1","Old15",5,64,1,2,1358,"Include"
"JCM2019_e1","JCM2019_e1_1","Old15",5,65,0,5,1253,"Include"
"JCM2019_e1","JCM2019_e1_1","Old15",5,66,0,2,806,"Include"
"JCM2019_e1","JCM2019_e1_1","Old15",5,67,0,6,985,"Include"
"JCM2019_e1","JCM2019_e1_1","Old15",5,68,0,2,757,"Include"
"JCM2019_e1","JCM2019_e1_1","Old15",5,69,0,1,1396,"Include"
"JCM2019_e1","JCM2019_e1_1","Old15",5,70,0,5,1129,"Include"
"JCM2019_e1","JCM2019_e1_1","Old15",5,71,0,1,663,"Include"
"JCM2019_e1","JCM2019_e1_1","Old15",5,72,0,1,1147,"Include"
"JCM2019_e1","JCM2019_e1_1","Old15",5,73,1,6,942,"Include"
"JCM2019_e1","JCM2019_e1_1","Old15",5,74,0,2,1005,"Include"
"JCM2019_e1","JCM2019_e1_1","Old15",5,75,0,1,1121,"Include"
"JCM2019_e1","JCM2019_e1_1","Old15",5,76,0,2,808,"Include"
"JCM2019_e1","JCM2019_e1_1","Old15",5,77,0,2,843,"Include"
"JCM2019_e1","JCM2019_e1_1","Old15",5,78,0,2,1257,"Include"
"JCM2019_e1","JCM2019_e1_1","Old15",5,79,0,2,884,"Include"
"JCM2019_e1","JCM2019_e1_1","Old15",5,80,0,1,1214,"Include"
"JCM2019_e1","JCM2019_e1_1","Old15",5,81,1,5,1292,"Include"
"JCM2019_e1","JCM2019_e1_1","Old15",5,82,0,2,963,"Include"
"JCM2019_e1","JCM2019_e1_1","Old15",5,83,0,2,881,"Include"
"JCM2019_e1","JCM2019_e1_1","Old15",5,84,0,2,741,"Include"
"JCM2019_e1","JCM2019_e1_1","Old15",5,85,0,5,1470,"Include"
"JCM2019_e1","JCM2019_e1_1","Old15",5,86,0,2,904,"Include"
"JCM2019_e1","JCM2019_e1_1","Old15",5,87,0,2,762,"Include"
"JCM2019_e1","JCM2019_e1_1","Old15",5,88,1,5,834,"Include"
"JCM2019_e1","JCM2019_e1_1","Old15",5,89,1,6,740,"Include"
"JCM2019_e1","JCM2019_e1_1","Old15",5,90,1,2,803,"Include"
"JCM2019_e1","JCM2019_e1_1","Old15",5,91,0,2,718,"Include"
"JCM2019_e1","JCM2019_e1_1","Old15",5,92,0,2,672,"Include"
"JCM2019_e1","JCM2019_e1_1","Old15",5,93,0,5,998,"Include"
"JCM2019_e1","JCM2019_e1_1","Old15",5,94,0,2,1044,"Include"
"JCM2019_e1","JCM2019_e1_1","Old15",5,95,0,2,823,"Include"
"JCM2019_e1","JCM2019_e1_1","Old15",5,96,0,2,933,"Include"
"JCM2019_e1","JCM2019_e1_1","Old15",5,97,1,6,903,"Include"
"JCM2019_e1","JCM2019_e1_1","Old15",5,98,0,3,992,"Include"
"JCM2019_e1","JCM2019_e1_1","Old15",5,99,0,5,1060,"Include"
"JCM2019_e1","JCM2019_e1_1","Old15",5,100,0,5,1021,"Include"
"JCM2019_e1","JCM2019_e1_2","Old85",1,1,1,6,95698,"Include"
"JCM2019_e1","JCM2019_e1_2","Old85",1,2,1,5,3831,"Include"
"JCM2019_e1","JCM2019_e1_2","Old85",1,3,1,6,1433,"Include"
"JCM2019_e1","JCM2019_e1_2","Old85",1,4,1,5,3406,"Include"
"JCM2019_e1","JCM2019_e1_2","Old85",1,5,0,3,1852,"Include"
"JCM2019_e1","JCM2019_e1_2","Old85",1,6,0,2,1777,"Include"
"JCM2019_e1","JCM2019_e1_2","Old85",1,7,1,6,1297,"Include"
"JCM2019_e1","JCM2019_e1_2","Old85",1,8,1,6,974,"Include"
"JCM2019_e1","JCM2019_e1_2","Old85",1,9,1,6,1268,"Include"
"JCM2019_e1","JCM2019_e1_2","Old85",1,10,0,5,4098,"Include"
"JCM2019_e1","JCM2019_e1_2","Old85",1,11,0,5,3496,"Include"
"JCM2019_e1","JCM2019_e1_2","Old85",1,12,1,6,1663,"Include"
"JCM2019_e1","JCM2019_e1_2","Old85",1,13,1,6,888,"Include"
"JCM2019_e1","JCM2019_e1_2","Old85",1,14,1,6,677,"Include"
"JCM2019_e1","JCM2019_e1_2","Old85",1,15,0,1,5444,"Include"
"JCM2019_e1","JCM2019_e1_2","Old85",1,16,1,6,1323,"Include"
"JCM2019_e1","JCM2019_e1_2","Old85",1,17,1,5,3730,"Include"
"JCM2019_e1","JCM2019_e1_2","Old85",1,18,0,2,2031,"Include"
"JCM2019_e1","JCM2019_e1_2","Old85",1,19,1,3,2296,"Include"
"JCM2019_e1","JCM2019_e1_2","Old85",1,20,1,6,1462,"Include"
"JCM2019_e1","JCM2019_e1_2","Old85",1,21,1,6,796,"Include"
"JCM2019_e1","JCM2019_e1_2","Old85",1,22,0,1,2966,"Include"
"JCM2019_e1","JCM2019_e1_2","Old85",1,23,1,6,1500,"Include"
"JCM2019_e1","JCM2019_e1_2","Old85",1,24,1,6,907,"Include"
"JCM2019_e1","JCM2019_e1_2","Old85",1,25,1,6,816,"Include"
"JCM2019_e1","JCM2019_e1_2","Old85",1,26,1,6,1887,"Include"
"JCM2019_e1","JCM2019_e1_2","Old85",1,27,1,6,734,"Include"
"JCM2019_e1","JCM2019_e1_2","Old85",1,28,1,6,926,"Include"
"JCM2019_e1","JCM2019_e1_2","Old85",1,29,1,6,1675,"Include"
"JCM2019_e1","JCM2019_e1_2","Old85",1,30,1,6,698,"Include"
"JCM2019_e1","JCM2019_e1_2","Old85",1,31,1,6,670,"Include"
"JCM2019_e1","JCM2019_e1_2","Old85",1,32,1,6,808,"Include"
"JCM2019_e1","JCM2019_e1_2","Old85",1,33,0,5,658,"Include"
"JCM2019_e1","JCM2019_e1_2","Old85",1,34,1,6,2571,"Include"
"JCM2019_e1","JCM2019_e1_2","Old85",1,35,1,6,709,"Include"
"JCM2019_e1","JCM2019_e1_2","Old85",1,36,1,6,633,"Include"
"JCM2019_e1","JCM2019_e1_2","Old85",1,37,1,6,690,"Include"
"JCM2019_e1","JCM2019_e1_2","Old85",1,38,1,6,848,"Include"
"JCM2019_e1","JCM2019_e1_2","Old85",1,39,1,6,801,"Include"
"JCM2019_e1","JCM2019_e1_2","Old85",1,40,1,6,647,"Include"
"JCM2019_e1","JCM2019_e1_2","Old85",1,41,1,6,1377,"Include"
"JCM2019_e1","JCM2019_e1_2","Old85",1,42,1,2,3592,"Include"
"JCM2019_e1","JCM2019_e1_2","Old85",1,43,1,6,1770,"Include"
"JCM2019_e1","JCM2019_e1_2","Old85",1,44,0,2,4143,"Include"
"JCM2019_e1","JCM2019_e1_2","Old85",1,45,1,6,1674,"Include"
"JCM2019_e1","JCM2019_e1_2","Old85",1,46,1,6,1718,"Include"
"JCM2019_e1","JCM2019_e1_2","Old85",1,47,1,5,3896,"Include"
"JCM2019_e1","JCM2019_e1_2","Old85",1,48,1,6,1299,"Include"
"JCM2019_e1","JCM2019_e1_2","Old85",1,49,1,2,2845,"Include"
"JCM2019_e1","JCM2019_e1_2","Old85",1,50,1,6,1371,"Include"
"JCM2019_e1","JCM2019_e1_2","Old85",1,51,1,6,909,"Include"
"JCM2019_e1","JCM2019_e1_2","Old85",1,52,0,2,4181,"Include"
"JCM2019_e1","JCM2019_e1_2","Old85",1,53,1,6,1645,"Include"
"JCM2019_e1","JCM2019_e1_2","Old85",1,54,1,6,905,"Include"
"JCM2019_e1","JCM2019_e1_2","Old85",1,55,1,6,599,"Include"
"JCM2019_e1","JCM2019_e1_2","Old85",1,56,1,6,745,"Include"
"JCM2019_e1","JCM2019_e1_2","Old85",1,57,1,6,644,"Include"
"JCM2019_e1","JCM2019_e1_2","Old85",1,58,1,5,2506,"Include"
"JCM2019_e1","JCM2019_e1_2","Old85",1,59,0,2,3032,"Include"
"JCM2019_e1","JCM2019_e1_2","Old85",1,60,1,6,1179,"Include"
"JCM2019_e1","JCM2019_e1_2","Old85",1,61,0,1,2217,"Include"
"JCM2019_e1","JCM2019_e1_2","Old85",1,62,1,6,1130,"Include"
"JCM2019_e1","JCM2019_e1_2","Old85",1,63,1,2,2760,"Include"
"JCM2019_e1","JCM2019_e1_2","Old85",1,64,1,6,2653,"Include"
"JCM2019_e1","JCM2019_e1_2","Old85",1,65,1,6,780,"Include"
"JCM2019_e1","JCM2019_e1_2","Old85",1,66,1,6,720,"Include"
"JCM2019_e1","JCM2019_e1_2","Old85",1,67,1,6,839,"Include"
"JCM2019_e1","JCM2019_e1_2","Old85",1,68,1,6,681,"Include"
"JCM2019_e1","JCM2019_e1_2","Old85",1,69,1,6,699,"Include"
"JCM2019_e1","JCM2019_e1_2","Old85",1,70,1,6,781,"Include"
"JCM2019_e1","JCM2019_e1_2","Old85",1,71,1,6,1160,"Include"
"JCM2019_e1","JCM2019_e1_2","Old85",1,72,1,6,806,"Include"
"JCM2019_e1","JCM2019_e1_2","Old85",1,73,1,6,1363,"Include"
"JCM2019_e1","JCM2019_e1_2","Old85",1,74,1,6,920,"Include"
"JCM2019_e1","JCM2019_e1_2","Old85",1,75,1,6,590,"Include"
"JCM2019_e1","JCM2019_e1_2","Old85",1,76,0,1,1510,"Include"
"JCM2019_e1","JCM2019_e1_2","Old85",1,77,1,6,939,"Include"
"JCM2019_e1","JCM2019_e1_2","Old85",1,78,1,6,714,"Include"
"JCM2019_e1","JCM2019_e1_2","Old85",1,79,1,6,726,"Include"
"JCM2019_e1","JCM2019_e1_2","Old85",1,80,1,1,1611,"Include"
"JCM2019_e1","JCM2019_e1_2","Old85",1,81,1,6,799,"Include"
"JCM2019_e1","JCM2019_e1_2","Old85",1,82,1,6,835,"Include"
"JCM2019_e1","JCM2019_e1_2","Old85",1,83,1,5,1817,"Include"
"JCM2019_e1","JCM2019_e1_2","Old85",1,84,1,6,912,"Include"
"JCM2019_e1","JCM2019_e1_2","Old85",1,85,1,6,1410,"Include"
"JCM2019_e1","JCM2019_e1_2","Old85",1,86,1,6,649,"Include"
"JCM2019_e1","JCM2019_e1_2","Old85",1,87,1,1,2559,"Include"
"JCM2019_e1","JCM2019_e1_2","Old85",1,88,0,2,3125,"Include"
"JCM2019_e1","JCM2019_e1_2","Old85",1,89,1,6,1314,"Include"
"JCM2019_e1","JCM2019_e1_2","Old85",1,90,1,5,2705,"Include"
"JCM2019_e1","JCM2019_e1_2","Old85",1,91,1,6,1108,"Include"
"JCM2019_e1","JCM2019_e1_2","Old85",1,92,1,6,699,"Include"
"JCM2019_e1","JCM2019_e1_2","Old85",1,93,0,5,750,"Include"
"JCM2019_e1","JCM2019_e1_2","Old85",1,94,1,6,1561,"Include"
"JCM2019_e1","JCM2019_e1_2","Old85",1,95,1,6,605,"Include"
"JCM2019_e1","JCM2019_e1_2","Old85",1,96,1,6,722,"Include"
"JCM2019_e1","JCM2019_e1_2","Old85",1,97,1,6,645,"Include"
"JCM2019_e1","JCM2019_e1_2","Old85",1,98,1,6,820,"Include"
"JCM2019_e1","JCM2019_e1_2","Old85",1,99,1,6,660,"Include"
"JCM2019_e1","JCM2019_e1_2","Old85",1,100,1,6,855,"Include"
"JCM2019_e1","JCM2019_e1_2","Old65",2,1,1,6,1546,"Include"
"JCM2019_e1","JCM2019_e1_2","Old65",2,2,1,6,716,"Include"
"JCM2019_e1","JCM2019_e1_2","Old65",2,3,1,6,863,"Include"
"JCM2019_e1","JCM2019_e1_2","Old65",2,4,0,2,3716,"Include"
"JCM2019_e1","JCM2019_e1_2","Old65",2,5,1,6,1158,"Include"
"JCM2019_e1","JCM2019_e1_2","Old65",2,6,1,1,3392,"Include"
"JCM2019_e1","JCM2019_e1_2","Old65",2,7,1,5,2417,"Include"
"JCM2019_e1","JCM2019_e1_2","Old65",2,8,1,6,683,"Include"
"JCM2019_e1","JCM2019_e1_2","Old65",2,9,0,2,2274,"Include"
"JCM2019_e1","JCM2019_e1_2","Old65",2,10,1,6,657,"Include"
"JCM2019_e1","JCM2019_e1_2","Old65",2,11,1,6,626,"Include"
"JCM2019_e1","JCM2019_e1_2","Old65",2,12,1,6,746,"Include"
"JCM2019_e1","JCM2019_e1_2","Old65",2,13,1,6,681,"Include"
"JCM2019_e1","JCM2019_e1_2","Old65",2,14,0,2,2768,"Include"
"JCM2019_e1","JCM2019_e1_2","Old65",2,15,1,6,2672,"Include"
"JCM2019_e1","JCM2019_e1_2","Old65",2,16,0,1,1956,"Include"
"JCM2019_e1","JCM2019_e1_2","Old65",2,17,0,1,1793,"Include"
"JCM2019_e1","JCM2019_e1_2","Old65",2,18,1,6,845,"Include"
"JCM2019_e1","JCM2019_e1_2","Old65",2,19,0,2,2375,"Include"
"JCM2019_e1","JCM2019_e1_2","Old65",2,20,1,6,1411,"Include"
"JCM2019_e1","JCM2019_e1_2","Old65",2,21,0,5,695,"Include"
"JCM2019_e1","JCM2019_e1_2","Old65",2,22,1,6,843,"Include"
"JCM2019_e1","JCM2019_e1_2","Old65",2,23,1,6,929,"Include"
"JCM2019_e1","JCM2019_e1_2","Old65",2,24,1,5,1024,"Include"
"JCM2019_e1","JCM2019_e1_2","Old65",2,25,1,6,1367,"Include"
"JCM2019_e1","JCM2019_e1_2","Old65",2,26,1,6,1690,"Include"
"JCM2019_e1","JCM2019_e1_2","Old65",2,27,1,6,1092,"Include"
"JCM2019_e1","JCM2019_e1_2","Old65",2,28,1,5,2405,"Include"
"JCM2019_e1","JCM2019_e1_2","Old65",2,29,1,5,1997,"Include"
"JCM2019_e1","JCM2019_e1_2","Old65",2,30,1,5,3007,"Include"
"JCM2019_e1","JCM2019_e1_2","Old65",2,31,1,1,4330,"Include"
"JCM2019_e1","JCM2019_e1_2","Old65",2,32,1,6,1376,"Include"
"JCM2019_e1","JCM2019_e1_2","Old65",2,33,0,2,2819,"Include"
"JCM2019_e1","JCM2019_e1_2","Old65",2,34,1,6,925,"Include"
"JCM2019_e1","JCM2019_e1_2","Old65",2,35,1,6,738,"Include"
"JCM2019_e1","JCM2019_e1_2","Old65",2,36,1,6,921,"Include"
"JCM2019_e1","JCM2019_e1_2","Old65",2,37,1,6,869,"Include"
"JCM2019_e1","JCM2019_e1_2","Old65",2,38,1,6,1006,"Include"
"JCM2019_e1","JCM2019_e1_2","Old65",2,39,0,1,1870,"Include"
"JCM2019_e1","JCM2019_e1_2","Old65",2,40,0,1,1428,"Include"
"JCM2019_e1","JCM2019_e1_2","Old65",2,41,0,2,3087,"Include"
"JCM2019_e1","JCM2019_e1_2","Old65",2,42,1,2,3589,"Include"
"JCM2019_e1","JCM2019_e1_2","Old65",2,43,1,6,1693,"Include"
"JCM2019_e1","JCM2019_e1_2","Old65",2,44,1,6,2013,"Include"
"JCM2019_e1","JCM2019_e1_2","Old65",2,45,0,2,2398,"Include"
"JCM2019_e1","JCM2019_e1_2","Old65",2,46,0,1,2404,"Include"
"JCM2019_e1","JCM2019_e1_2","Old65",2,47,1,6,995,"Include"
"JCM2019_e1","JCM2019_e1_2","Old65",2,48,1,6,700,"Include"
"JCM2019_e1","JCM2019_e1_2","Old65",2,49,1,6,1231,"Include"
"JCM2019_e1","JCM2019_e1_2","Old65",2,50,1,6,642,"Include"
"JCM2019_e1","JCM2019_e1_2","Old65",2,51,1,6,951,"Include"
"JCM2019_e1","JCM2019_e1_2","Old65",2,52,1,6,662,"Include"
"JCM2019_e1","JCM2019_e1_2","Old65",2,53,0,1,2137,"Include"
"JCM2019_e1","JCM2019_e1_2","Old65",2,54,1,2,1433,"Include"
"JCM2019_e1","JCM2019_e1_2","Old65",2,55,1,5,5489,"Include"
"JCM2019_e1","JCM2019_e1_2","Old65",2,56,1,6,1295,"Include"
"JCM2019_e1","JCM2019_e1_2","Old65",2,57,0,1,3678,"Include"
"JCM2019_e1","JCM2019_e1_2","Old65",2,58,1,5,2759,"Include"
"JCM2019_e1","JCM2019_e1_2","Old65",2,59,0,6,927,"Include"
"JCM2019_e1","JCM2019_e1_2","Old65",2,60,0,5,931,"Include"
"JCM2019_e1","JCM2019_e1_2","Old65",2,61,1,6,2732,"Include"
"JCM2019_e1","JCM2019_e1_2","Old65",2,62,0,6,1257,"Include"
"JCM2019_e1","JCM2019_e1_2","Old65",2,63,0,5,888,"Include"
"JCM2019_e1","JCM2019_e1_2","Old65",2,64,0,2,1025,"Include"
"JCM2019_e1","JCM2019_e1_2","Old65",2,65,1,6,1205,"Include"
"JCM2019_e1","JCM2019_e1_2","Old65",2,66,1,6,1169,"Include"
"JCM2019_e1","JCM2019_e1_2","Old65",2,67,0,2,3676,"Include"
"JCM2019_e1","JCM2019_e1_2","Old65",2,68,0,3,1762,"Include"
"JCM2019_e1","JCM2019_e1_2","Old65",2,69,1,6,1159,"Include"
"JCM2019_e1","JCM2019_e1_2","Old65",2,70,1,6,772,"Include"
"JCM2019_e1","JCM2019_e1_2","Old65",2,71,1,5,2590,"Include"
"JCM2019_e1","JCM2019_e1_2","Old65",2,72,1,6,927,"Include"
"JCM2019_e1","JCM2019_e1_2","Old65",2,73,1,6,774,"Include"
"JCM2019_e1","JCM2019_e1_2","Old65",2,74,0,2,4447,"Include"
"JCM2019_e1","JCM2019_e1_2","Old65",2,75,1,6,1536,"Include"
"JCM2019_e1","JCM2019_e1_2","Old65",2,76,1,6,964,"Include"
"JCM2019_e1","JCM2019_e1_2","Old65",2,77,0,1,2607,"Include"
"JCM2019_e1","JCM2019_e1_2","Old65",2,78,1,6,1085,"Include"
"JCM2019_e1","JCM2019_e1_2","Old65",2,79,0,4,634,"Include"
"JCM2019_e1","JCM2019_e1_2","Old65",2,80,1,6,2200,"Include"
"JCM2019_e1","JCM2019_e1_2","Old65",2,81,1,6,1146,"Include"
"JCM2019_e1","JCM2019_e1_2","Old65",2,82,0,1,2066,"Include"
"JCM2019_e1","JCM2019_e1_2","Old65",2,83,0,2,2308,"Include"
"JCM2019_e1","JCM2019_e1_2","Old65",2,84,0,6,1209,"Include"
"JCM2019_e1","JCM2019_e1_2","Old65",2,85,1,6,878,"Include"
"JCM2019_e1","JCM2019_e1_2","Old65",2,86,0,3,1638,"Include"
"JCM2019_e1","JCM2019_e1_2","Old65",2,87,1,6,1598,"Include"
"JCM2019_e1","JCM2019_e1_2","Old65",2,88,0,1,1711,"Include"
"JCM2019_e1","JCM2019_e1_2","Old65",2,89,0,1,3216,"Include"
"JCM2019_e1","JCM2019_e1_2","Old65",2,90,1,1,1452,"Include"
"JCM2019_e1","JCM2019_e1_2","Old65",2,91,1,2,3010,"Include"
"JCM2019_e1","JCM2019_e1_2","Old65",2,92,0,1,3902,"Include"
"JCM2019_e1","JCM2019_e1_2","Old65",2,93,1,6,1167,"Include"
"JCM2019_e1","JCM2019_e1_2","Old65",2,94,0,2,3392,"Include"
"JCM2019_e1","JCM2019_e1_2","Old65",2,95,0,2,2331,"Include"
"JCM2019_e1","JCM2019_e1_2","Old65",2,96,0,2,1545,"Include"
"JCM2019_e1","JCM2019_e1_2","Old65",2,97,1,2,1428,"Include"
"JCM2019_e1","JCM2019_e1_2","Old65",2,98,1,5,4217,"Include"
"JCM2019_e1","JCM2019_e1_2","Old65",2,99,1,2,5139,"Include"
"JCM2019_e1","JCM2019_e1_2","Old65",2,100,1,1,3864,"Include"
"JCM2019_e1","JCM2019_e1_2","Old50",3,1,0,3,4353,"Include"
"JCM2019_e1","JCM2019_e1_2","Old50",3,2,1,5,2971,"Include"
"JCM2019_e1","JCM2019_e1_2","Old50",3,3,1,6,942,"Include"
"JCM2019_e1","JCM2019_e1_2","Old50",3,4,1,6,1137,"Include"
"JCM2019_e1","JCM2019_e1_2","Old50",3,5,1,6,2846,"Include"
"JCM2019_e1","JCM2019_e1_2","Old50",3,6,1,6,814,"Include"
"JCM2019_e1","JCM2019_e1_2","Old50",3,7,0,5,2104,"Include"
"JCM2019_e1","JCM2019_e1_2","Old50",3,8,0,3,1933,"Include"
"JCM2019_e1","JCM2019_e1_2","Old50",3,9,1,1,1585,"Include"
"JCM2019_e1","JCM2019_e1_2","Old50",3,10,1,6,1499,"Include"
"JCM2019_e1","JCM2019_e1_2","Old50",3,11,0,2,1723,"Include"
"JCM2019_e1","JCM2019_e1_2","Old50",3,12,1,6,1987,"Include"
"JCM2019_e1","JCM2019_e1_2","Old50",3,13,1,6,767,"Include"
"JCM2019_e1","JCM2019_e1_2","Old50",3,14,0,2,2378,"Include"
"JCM2019_e1","JCM2019_e1_2","Old50",3,15,1,6,1268,"Include"
"JCM2019_e1","JCM2019_e1_2","Old50",3,16,0,6,621,"Include"
"JCM2019_e1","JCM2019_e1_2","Old50",3,17,1,1,2187,"Include"
"JCM2019_e1","JCM2019_e1_2","Old50",3,18,0,3,2968,"Include"
"JCM2019_e1","JCM2019_e1_2","Old50",3,19,0,1,2588,"Include"
"JCM2019_e1","JCM2019_e1_2","Old50",3,20,1,6,1274,"Include"
"JCM2019_e1","JCM2019_e1_2","Old50",3,21,1,6,854,"Include"
"JCM2019_e1","JCM2019_e1_2","Old50",3,22,1,6,966,"Include"
"JCM2019_e1","JCM2019_e1_2","Old50",3,23,1,6,827,"Include"
"JCM2019_e1","JCM2019_e1_2","Old50",3,24,0,1,1851,"Include"
"JCM2019_e1","JCM2019_e1_2","Old50",3,25,0,2,1912,"Include"
"JCM2019_e1","JCM2019_e1_2","Old50",3,26,1,6,1264,"Include"
"JCM2019_e1","JCM2019_e1_2","Old50",3,27,1,6,793,"Include"
"JCM2019_e1","JCM2019_e1_2","Old50",3,28,1,5,2202,"Include"
"JCM2019_e1","JCM2019_e1_2","Old50",3,29,1,6,851,"Include"
"JCM2019_e1","JCM2019_e1_2","Old50",3,30,1,6,783,"Include"
"JCM2019_e1","JCM2019_e1_2","Old50",3,31,1,6,745,"Include"
"JCM2019_e1","JCM2019_e1_2","Old50",3,32,1,6,5505,"Include"
"JCM2019_e1","JCM2019_e1_2","Old50",3,33,1,6,729,"Include"
"JCM2019_e1","JCM2019_e1_2","Old50",3,34,1,6,693,"Include"
"JCM2019_e1","JCM2019_e1_2","Old50",3,35,1,6,746,"Include"
"JCM2019_e1","JCM2019_e1_2","Old50",3,36,0,1,2045,"Include"
"JCM2019_e1","JCM2019_e1_2","Old50",3,37,1,6,1214,"Include"
"JCM2019_e1","JCM2019_e1_2","Old50",3,38,0,1,1884,"Include"
"JCM2019_e1","JCM2019_e1_2","Old50",3,39,0,1,1116,"Include"
"JCM2019_e1","JCM2019_e1_2","Old50",3,40,0,2,2057,"Include"
"JCM2019_e1","JCM2019_e1_2","Old50",3,41,1,6,1163,"Include"
"JCM2019_e1","JCM2019_e1_2","Old50",3,42,0,5,2517,"Include"
"JCM2019_e1","JCM2019_e1_2","Old50",3,43,0,2,2724,"Include"
"JCM2019_e1","JCM2019_e1_2","Old50",3,44,1,6,1233,"Include"
"JCM2019_e1","JCM2019_e1_2","Old50",3,45,0,2,4105,"Include"
"JCM2019_e1","JCM2019_e1_2","Old50",3,46,0,2,3089,"Include"
"JCM2019_e1","JCM2019_e1_2","Old50",3,47,0,1,1593,"Include"
"JCM2019_e1","JCM2019_e1_2","Old50",3,48,0,1,2103,"Include"
"JCM2019_e1","JCM2019_e1_2","Old50",3,49,0,1,1792,"Include"
"JCM2019_e1","JCM2019_e1_2","Old50",3,50,1,6,1187,"Include"
"JCM2019_e1","JCM2019_e1_2","Old50",3,51,0,2,2413,"Include"
"JCM2019_e1","JCM2019_e1_2","Old50",3,52,1,6,1279,"Include"
"JCM2019_e1","JCM2019_e1_2","Old50",3,53,0,2,2475,"Include"
"JCM2019_e1","JCM2019_e1_2","Old50",3,54,1,6,4163,"Include"
"JCM2019_e1","JCM2019_e1_2","Old50",3,55,1,5,3016,"Include"
"JCM2019_e1","JCM2019_e1_2","Old50",3,56,0,2,1791,"Include"
"JCM2019_e1","JCM2019_e1_2","Old50",3,57,1,6,1290,"Include"
"JCM2019_e1","JCM2019_e1_2","Old50",3,58,0,3,3092,"Include"
"JCM2019_e1","JCM2019_e1_2","Old50",3,59,1,5,1379,"Include"
"JCM2019_e1","JCM2019_e1_2","Old50",3,60,1,6,1732,"Include"
"JCM2019_e1","JCM2019_e1_2","Old50",3,61,1,6,755,"Include"
"JCM2019_e1","JCM2019_e1_2","Old50",3,62,0,1,1472,"Include"
"JCM2019_e1","JCM2019_e1_2","Old50",3,63,0,1,886,"Include"
"JCM2019_e1","JCM2019_e1_2","Old50",3,64,1,3,3655,"Include"
"JCM2019_e1","JCM2019_e1_2","Old50",3,65,0,1,3080,"Include"
"JCM2019_e1","JCM2019_e1_2","Old50",3,66,0,6,1246,"Include"
"JCM2019_e1","JCM2019_e1_2","Old50",3,67,0,2,2708,"Include"
"JCM2019_e1","JCM2019_e1_2","Old50",3,68,0,2,2740,"Include"
"JCM2019_e1","JCM2019_e1_2","Old50",3,69,0,6,1466,"Include"
"JCM2019_e1","JCM2019_e1_2","Old50",3,70,1,6,773,"Include"
"JCM2019_e1","JCM2019_e1_2","Old50",3,71,1,6,672,"Include"
"JCM2019_e1","JCM2019_e1_2","Old50",3,72,1,6,892,"Include"
"JCM2019_e1","JCM2019_e1_2","Old50",3,73,1,5,1369,"Include"
"JCM2019_e1","JCM2019_e1_2","Old50",3,74,0,2,6837,"Include"
"JCM2019_e1","JCM2019_e1_2","Old50",3,75,1,5,1134,"Include"
"JCM2019_e1","JCM2019_e1_2","Old50",3,76,0,2,1893,"Include"
"JCM2019_e1","JCM2019_e1_2","Old50",3,77,0,1,1418,"Include"
"JCM2019_e1","JCM2019_e1_2","Old50",3,78,0,1,1371,"Include"
"JCM2019_e1","JCM2019_e1_2","Old50",3,79,1,6,1193,"Include"
"JCM2019_e1","JCM2019_e1_2","Old50",3,80,1,6,1930,"Include"
"JCM2019_e1","JCM2019_e1_2","Old50",3,81,0,6,906,"Include"
"JCM2019_e1","JCM2019_e1_2","Old50",3,82,0,1,2064,"Include"
"JCM2019_e1","JCM2019_e1_2","Old50",3,83,1,6,1168,"Include"
"JCM2019_e1","JCM2019_e1_2","Old50",3,84,0,6,1121,"Include"
"JCM2019_e1","JCM2019_e1_2","Old50",3,85,1,6,784,"Include"
"JCM2019_e1","JCM2019_e1_2","Old50",3,86,0,2,1463,"Include"
"JCM2019_e1","JCM2019_e1_2","Old50",3,87,0,5,2679,"Include"
"JCM2019_e1","JCM2019_e1_2","Old50",3,88,0,5,2359,"Include"
"JCM2019_e1","JCM2019_e1_2","Old50",3,89,0,2,2174,"Include"
"JCM2019_e1","JCM2019_e1_2","Old50",3,90,0,2,1081,"Include"
"JCM2019_e1","JCM2019_e1_2","Old50",3,91,1,6,1528,"Include"
"JCM2019_e1","JCM2019_e1_2","Old50",3,92,0,4,2810,"Include"
"JCM2019_e1","JCM2019_e1_2","Old50",3,93,0,2,3366,"Include"
"JCM2019_e1","JCM2019_e1_2","Old50",3,94,1,6,2691,"Include"
"JCM2019_e1","JCM2019_e1_2","Old50",3,95,0,1,2230,"Include"
"JCM2019_e1","JCM2019_e1_2","Old50",3,96,0,1,3177,"Include"
"JCM2019_e1","JCM2019_e1_2","Old50",3,97,0,1,937,"Include"
"JCM2019_e1","JCM2019_e1_2","Old50",3,98,1,6,1259,"Include"
"JCM2019_e1","JCM2019_e1_2","Old50",3,99,0,5,700,"Include"
"JCM2019_e1","JCM2019_e1_2","Old50",3,100,1,6,1345,"Include"
"JCM2019_e1","JCM2019_e1_2","Old35",4,1,0,6,1739,"Include"
"JCM2019_e1","JCM2019_e1_2","Old35",4,2,0,2,1885,"Include"
"JCM2019_e1","JCM2019_e1_2","Old35",4,3,0,6,1314,"Include"
"JCM2019_e1","JCM2019_e1_2","Old35",4,4,1,6,1312,"Include"
"JCM2019_e1","JCM2019_e1_2","Old35",4,5,1,4,2285,"Include"
"JCM2019_e1","JCM2019_e1_2","Old35",4,6,0,5,1682,"Include"
"JCM2019_e1","JCM2019_e1_2","Old35",4,7,0,1,1949,"Include"
"JCM2019_e1","JCM2019_e1_2","Old35",4,8,0,1,3589,"Include"
"JCM2019_e1","JCM2019_e1_2","Old35",4,9,0,6,1879,"Include"
"JCM2019_e1","JCM2019_e1_2","Old35",4,10,0,5,767,"Include"
"JCM2019_e1","JCM2019_e1_2","Old35",4,11,1,6,987,"Include"
"JCM2019_e1","JCM2019_e1_2","Old35",4,12,0,2,2471,"Include"
"JCM2019_e1","JCM2019_e1_2","Old35",4,13,1,6,2734,"Include"
"JCM2019_e1","JCM2019_e1_2","Old35",4,14,1,6,749,"Include"
"JCM2019_e1","JCM2019_e1_2","Old35",4,15,1,6,788,"Include"
"JCM2019_e1","JCM2019_e1_2","Old35",4,16,1,6,732,"Include"
"JCM2019_e1","JCM2019_e1_2","Old35",4,17,0,1,1534,"Include"
"JCM2019_e1","JCM2019_e1_2","Old35",4,18,1,6,917,"Include"
"JCM2019_e1","JCM2019_e1_2","Old35",4,19,1,5,2226,"Include"
"JCM2019_e1","JCM2019_e1_2","Old35",4,20,1,6,857,"Include"
"JCM2019_e1","JCM2019_e1_2","Old35",4,21,1,6,841,"Include"
"JCM2019_e1","JCM2019_e1_2","Old35",4,22,0,2,1399,"Include"
"JCM2019_e1","JCM2019_e1_2","Old35",4,23,0,2,1564,"Include"
"JCM2019_e1","JCM2019_e1_2","Old35",4,24,1,6,3685,"Include"
"JCM2019_e1","JCM2019_e1_2","Old35",4,25,0,2,1311,"Include"
"JCM2019_e1","JCM2019_e1_2","Old35",4,26,0,2,3073,"Include"
"JCM2019_e1","JCM2019_e1_2","Old35",4,27,0,3,3177,"Include"
"JCM2019_e1","JCM2019_e1_2","Old35",4,28,0,2,2154,"Include"
"JCM2019_e1","JCM2019_e1_2","Old35",4,29,0,2,3852,"Include"
"JCM2019_e1","JCM2019_e1_2","Old35",4,30,0,5,3853,"Include"
"JCM2019_e1","JCM2019_e1_2","Old35",4,31,0,5,4886,"Include"
"JCM2019_e1","JCM2019_e1_2","Old35",4,32,0,2,1381,"Include"
"JCM2019_e1","JCM2019_e1_2","Old35",4,33,1,6,948,"Include"
"JCM2019_e1","JCM2019_e1_2","Old35",4,34,0,5,3738,"Include"
"JCM2019_e1","JCM2019_e1_2","Old35",4,35,0,2,3454,"Include"
"JCM2019_e1","JCM2019_e1_2","Old35",4,36,0,1,1924,"Include"
"JCM2019_e1","JCM2019_e1_2","Old35",4,37,1,6,1348,"Include"
"JCM2019_e1","JCM2019_e1_2","Old35",4,38,0,2,4315,"Include"
"JCM2019_e1","JCM2019_e1_2","Old35",4,39,0,2,1313,"Include"
"JCM2019_e1","JCM2019_e1_2","Old35",4,40,1,6,1126,"Include"
"JCM2019_e1","JCM2019_e1_2","Old35",4,41,1,6,720,"Include"
"JCM2019_e1","JCM2019_e1_2","Old35",4,42,1,6,807,"Include"
"JCM2019_e1","JCM2019_e1_2","Old35",4,43,1,6,808,"Include"
"JCM2019_e1","JCM2019_e1_2","Old35",4,44,1,6,1912,"Include"
"JCM2019_e1","JCM2019_e1_2","Old35",4,45,0,2,1512,"Include"
"JCM2019_e1","JCM2019_e1_2","Old35",4,46,1,6,1101,"Include"
"JCM2019_e1","JCM2019_e1_2","Old35",4,47,0,4,736,"Include"
"JCM2019_e1","JCM2019_e1_2","Old35",4,48,0,2,2375,"Include"
"JCM2019_e1","JCM2019_e1_2","Old35",4,49,1,6,4427,"Include"
"JCM2019_e1","JCM2019_e1_2","Old35",4,50,0,6,712,"Include"
"JCM2019_e1","JCM2019_e1_2","Old35",4,51,1,6,1139,"Include"
"JCM2019_e1","JCM2019_e1_2","Old35",4,52,0,2,2658,"Include"
"JCM2019_e1","JCM2019_e1_2","Old35",4,53,0,5,3073,"Include"
"JCM2019_e1","JCM2019_e1_2","Old35",4,54,0,1,1688,"Include"
"JCM2019_e1","JCM2019_e1_2","Old35",4,55,0,5,1937,"Include"
"JCM2019_e1","JCM2019_e1_2","Old35",4,56,0,1,1579,"Include"
"JCM2019_e1","JCM2019_e1_2","Old35",4,57,1,5,2794,"Include"
"JCM2019_e1","JCM2019_e1_2","Old35",4,58,1,6,1934,"Include"
"JCM2019_e1","JCM2019_e1_2","Old35",4,59,0,6,932,"Include"
"JCM2019_e1","JCM2019_e1_2","Old35",4,60,0,6,786,"Include"
"JCM2019_e1","JCM2019_e1_2","Old35",4,61,0,2,2922,"Include"
"JCM2019_e1","JCM2019_e1_2","Old35",4,62,0,2,1528,"Include"
"JCM2019_e1","JCM2019_e1_2","Old35",4,63,0,2,4608,"Include"
"JCM2019_e1","JCM2019_e1_2","Old35",4,64,0,5,3648,"Include"
"JCM2019_e1","JCM2019_e1_2","Old35",4,65,1,5,774,"Include"
"JCM2019_e1","JCM2019_e1_2","Old35",4,66,0,2,1238,"Include"
"JCM2019_e1","JCM2019_e1_2","Old35",4,67,0,6,2097,"Include"
"JCM2019_e1","JCM2019_e1_2","Old35",4,68,0,1,1521,"Include"
"JCM2019_e1","JCM2019_e1_2","Old35",4,69,0,6,1224,"Include"
"JCM2019_e1","JCM2019_e1_2","Old35",4,70,0,2,1438,"Include"
"JCM2019_e1","JCM2019_e1_2","Old35",4,71,1,6,3366,"Include"
"JCM2019_e1","JCM2019_e1_2","Old35",4,72,0,5,1635,"Include"
"JCM2019_e1","JCM2019_e1_2","Old35",4,73,0,4,2202,"Include"
"JCM2019_e1","JCM2019_e1_2","Old35",4,74,0,2,2176,"Include"
"JCM2019_e1","JCM2019_e1_2","Old35",4,75,1,6,1186,"Include"
"JCM2019_e1","JCM2019_e1_2","Old35",4,76,1,2,2171,"Include"
"JCM2019_e1","JCM2019_e1_2","Old35",4,77,0,2,2887,"Include"
"JCM2019_e1","JCM2019_e1_2","Old35",4,78,1,6,1376,"Include"
"JCM2019_e1","JCM2019_e1_2","Old35",4,79,0,6,565,"Include"
"JCM2019_e1","JCM2019_e1_2","Old35",4,80,0,5,1120,"Include"
"JCM2019_e1","JCM2019_e1_2","Old35",4,81,0,6,1136,"Include"
"JCM2019_e1","JCM2019_e1_2","Old35",4,82,1,6,1161,"Include"
"JCM2019_e1","JCM2019_e1_2","Old35",4,83,0,2,1102,"Include"
"JCM2019_e1","JCM2019_e1_2","Old35",4,84,0,1,1077,"Include"
"JCM2019_e1","JCM2019_e1_2","Old35",4,85,1,6,960,"Include"
"JCM2019_e1","JCM2019_e1_2","Old35",4,86,0,2,1467,"Include"
"JCM2019_e1","JCM2019_e1_2","Old35",4,87,0,6,970,"Include"
"JCM2019_e1","JCM2019_e1_2","Old35",4,88,1,5,2254,"Include"
"JCM2019_e1","JCM2019_e1_2","Old35",4,89,1,4,2563,"Include"
"JCM2019_e1","JCM2019_e1_2","Old35",4,90,0,2,1850,"Include"
"JCM2019_e1","JCM2019_e1_2","Old35",4,91,0,1,1017,"Include"
"JCM2019_e1","JCM2019_e1_2","Old35",4,92,0,1,1001,"Include"
"JCM2019_e1","JCM2019_e1_2","Old35",4,93,0,6,6093,"Include"
"JCM2019_e1","JCM2019_e1_2","Old35",4,94,0,6,944,"Include"
"JCM2019_e1","JCM2019_e1_2","Old35",4,95,1,6,927,"Include"
"JCM2019_e1","JCM2019_e1_2","Old35",4,96,1,6,678,"Include"
"JCM2019_e1","JCM2019_e1_2","Old35",4,97,0,4,980,"Include"
"JCM2019_e1","JCM2019_e1_2","Old35",4,98,0,2,1902,"Include"
"JCM2019_e1","JCM2019_e1_2","Old35",4,99,0,1,1617,"Include"
"JCM2019_e1","JCM2019_e1_2","Old35",4,100,0,1,1020,"Include"
"JCM2019_e1","JCM2019_e1_2","Old15",5,1,0,5,3469,"Include"
"JCM2019_e1","JCM2019_e1_2","Old15",5,2,0,5,1223,"Include"
"JCM2019_e1","JCM2019_e1_2","Old15",5,3,0,2,1736,"Include"
"JCM2019_e1","JCM2019_e1_2","Old15",5,4,0,6,1231,"Include"
"JCM2019_e1","JCM2019_e1_2","Old15",5,5,1,6,1115,"Include"
"JCM2019_e1","JCM2019_e1_2","Old15",5,6,1,2,6307,"Include"
"JCM2019_e1","JCM2019_e1_2","Old15",5,7,0,1,1479,"Include"
"JCM2019_e1","JCM2019_e1_2","Old15",5,8,0,1,986,"Include"
"JCM2019_e1","JCM2019_e1_2","Old15",5,9,1,6,1153,"Include"
"JCM2019_e1","JCM2019_e1_2","Old15",5,10,1,6,768,"Include"
"JCM2019_e1","JCM2019_e1_2","Old15",5,11,0,1,1672,"Include"
"JCM2019_e1","JCM2019_e1_2","Old15",5,12,0,2,1257,"Include"
"JCM2019_e1","JCM2019_e1_2","Old15",5,13,0,1,1903,"Include"
"JCM2019_e1","JCM2019_e1_2","Old15",5,14,0,1,1431,"Include"
"JCM2019_e1","JCM2019_e1_2","Old15",5,15,0,6,3432,"Include"
"JCM2019_e1","JCM2019_e1_2","Old15",5,16,0,2,2536,"Include"
"JCM2019_e1","JCM2019_e1_2","Old15",5,17,0,1,1544,"Include"
"JCM2019_e1","JCM2019_e1_2","Old15",5,18,0,1,1687,"Include"
"JCM2019_e1","JCM2019_e1_2","Old15",5,19,0,5,3344,"Include"
"JCM2019_e1","JCM2019_e1_2","Old15",5,20,0,6,1680,"Include"
"JCM2019_e1","JCM2019_e1_2","Old15",5,21,0,2,2638,"Include"
"JCM2019_e1","JCM2019_e1_2","Old15",5,22,0,1,1335,"Include"
"JCM2019_e1","JCM2019_e1_2","Old15",5,23,0,5,1389,"Include"
"JCM2019_e1","JCM2019_e1_2","Old15",5,24,0,2,1158,"Include"
"JCM2019_e1","JCM2019_e1_2","Old15",5,25,0,2,673,"Include"
"JCM2019_e1","JCM2019_e1_2","Old15",5,26,0,5,1585,"Include"
"JCM2019_e1","JCM2019_e1_2","Old15",5,27,0,2,1988,"Include"
"JCM2019_e1","JCM2019_e1_2","Old15",5,28,0,2,1102,"Include"
"JCM2019_e1","JCM2019_e1_2","Old15",5,29,0,2,1035,"Include"
"JCM2019_e1","JCM2019_e1_2","Old15",5,30,0,2,1391,"Include"
"JCM2019_e1","JCM2019_e1_2","Old15",5,31,0,5,2763,"Include"
"JCM2019_e1","JCM2019_e1_2","Old15",5,32,0,2,2917,"Include"
"JCM2019_e1","JCM2019_e1_2","Old15",5,33,0,5,1215,"Include"
"JCM2019_e1","JCM2019_e1_2","Old15",5,34,0,2,1226,"Include"
"JCM2019_e1","JCM2019_e1_2","Old15",5,35,0,6,1121,"Include"
"JCM2019_e1","JCM2019_e1_2","Old15",5,36,0,5,2956,"Include"
"JCM2019_e1","JCM2019_e1_2","Old15",5,37,0,5,2311,"Include"
"JCM2019_e1","JCM2019_e1_2","Old15",5,38,0,5,928,"Include"
"JCM2019_e1","JCM2019_e1_2","Old15",5,39,0,4,304,"Include"
"JCM2019_e1","JCM2019_e1_2","Old15",5,40,0,2,4585,"Include"
"JCM2019_e1","JCM2019_e1_2","Old15",5,41,0,1,2164,"Include"
"JCM2019_e1","JCM2019_e1_2","Old15",5,42,0,1,1402,"Include"
"JCM2019_e1","JCM2019_e1_2","Old15",5,43,0,1,776,"Include"
"JCM2019_e1","JCM2019_e1_2","Old15",5,44,0,1,1035,"Include"
"JCM2019_e1","JCM2019_e1_2","Old15",5,45,0,1,1147,"Include"
"JCM2019_e1","JCM2019_e1_2","Old15",5,46,0,5,2797,"Include"
"JCM2019_e1","JCM2019_e1_2","Old15",5,47,0,2,1601,"Include"
"JCM2019_e1","JCM2019_e1_2","Old15",5,48,0,1,909,"Include"
"JCM2019_e1","JCM2019_e1_2","Old15",5,49,0,1,927,"Include"
"JCM2019_e1","JCM2019_e1_2","Old15",5,50,0,1,1407,"Include"
"JCM2019_e1","JCM2019_e1_2","Old15",5,51,0,2,3363,"Include"
"JCM2019_e1","JCM2019_e1_2","Old15",5,52,0,1,1377,"Include"
"JCM2019_e1","JCM2019_e1_2","Old15",5,53,0,1,822,"Include"
"JCM2019_e1","JCM2019_e1_2","Old15",5,54,1,6,1331,"Include"
"JCM2019_e1","JCM2019_e1_2","Old15",5,55,1,6,1014,"Include"
"JCM2019_e1","JCM2019_e1_2","Old15",5,56,0,6,614,"Include"
"JCM2019_e1","JCM2019_e1_2","Old15",5,57,0,4,1330,"Include"
"JCM2019_e1","JCM2019_e1_2","Old15",5,58,0,1,1314,"Include"
"JCM2019_e1","JCM2019_e1_2","Old15",5,59,0,2,2004,"Include"
"JCM2019_e1","JCM2019_e1_2","Old15",5,60,0,2,2676,"Include"
"JCM2019_e1","JCM2019_e1_2","Old15",5,61,0,1,2134,"Include"
"JCM2019_e1","JCM2019_e1_2","Old15",5,62,0,1,1669,"Include"
"JCM2019_e1","JCM2019_e1_2","Old15",5,63,0,1,699,"Include"
"JCM2019_e1","JCM2019_e1_2","Old15",5,64,0,1,607,"Include"
"JCM2019_e1","JCM2019_e1_2","Old15",5,65,1,1,551,"Include"
"JCM2019_e1","JCM2019_e1_2","Old15",5,66,0,5,1525,"Include"
"JCM2019_e1","JCM2019_e1_2","Old15",5,67,0,2,2320,"Include"
"JCM2019_e1","JCM2019_e1_2","Old15",5,68,0,1,937,"Include"
"JCM2019_e1","JCM2019_e1_2","Old15",5,69,0,1,2562,"Include"
"JCM2019_e1","JCM2019_e1_2","Old15",5,70,0,2,2171,"Include"
"JCM2019_e1","JCM2019_e1_2","Old15",5,71,1,2,1043,"Include"
"JCM2019_e1","JCM2019_e1_2","Old15",5,72,0,1,2062,"Include"
"JCM2019_e1","JCM2019_e1_2","Old15",5,73,0,4,3742,"Include"
"JCM2019_e1","JCM2019_e1_2","Old15",5,74,0,1,2001,"Include"
"JCM2019_e1","JCM2019_e1_2","Old15",5,75,0,5,2010,"Include"
"JCM2019_e1","JCM2019_e1_2","Old15",5,76,0,2,1331,"Include"
"JCM2019_e1","JCM2019_e1_2","Old15",5,77,0,6,1672,"Include"
"JCM2019_e1","JCM2019_e1_2","Old15",5,78,0,5,992,"Include"
"JCM2019_e1","JCM2019_e1_2","Old15",5,79,1,6,1238,"Include"
"JCM2019_e1","JCM2019_e1_2","Old15",5,80,0,2,2359,"Include"
"JCM2019_e1","JCM2019_e1_2","Old15",5,81,0,5,2403,"Include"
"JCM2019_e1","JCM2019_e1_2","Old15",5,82,1,6,909,"Include"
"JCM2019_e1","JCM2019_e1_2","Old15",5,83,0,2,2155,"Include"
"JCM2019_e1","JCM2019_e1_2","Old15",5,84,1,6,1672,"Include"
"JCM2019_e1","JCM2019_e1_2","Old15",5,85,0,6,881,"Include"
"JCM2019_e1","JCM2019_e1_2","Old15",5,86,0,2,2407,"Include"
"JCM2019_e1","JCM2019_e1_2","Old15",5,87,1,6,5070,"Include"
"JCM2019_e1","JCM2019_e1_2","Old15",5,88,0,2,1737,"Include"
"JCM2019_e1","JCM2019_e1_2","Old15",5,89,0,5,1887,"Include"
"JCM2019_e1","JCM2019_e1_2","Old15",5,90,0,2,3753,"Include"
"JCM2019_e1","JCM2019_e1_2","Old15",5,91,1,4,3861,"Include"
"JCM2019_e1","JCM2019_e1_2","Old15",5,92,0,6,2609,"Include"
"JCM2019_e1","JCM2019_e1_2","Old15",5,93,1,5,1169,"Include"
"JCM2019_e1","JCM2019_e1_2","Old15",5,94,0,5,2228,"Include"
"JCM2019_e1","JCM2019_e1_2","Old15",5,95,0,2,5077,"Include"
"JCM2019_e1","JCM2019_e1_2","Old15",5,96,0,2,1770,"Include"
"JCM2019_e1","JCM2019_e1_2","Old15",5,97,0,1,622,"Include"
"JCM2019_e1","JCM2019_e1_2","Old15",5,98,1,6,1205,"Include"
"JCM2019_e1","JCM2019_e1_2","Old15",5,99,0,5,1786,"Include"
"JCM2019_e1","JCM2019_e1_2","Old15",5,100,0,6,968,"Include"
"JCM2019_e1","JCM2019_e1_3","Old15",1,1,1,6,1776,"Include"
"JCM2019_e1","JCM2019_e1_3","Old15",1,2,0,2,3831,"Include"
"JCM2019_e1","JCM2019_e1_3","Old15",1,3,0,1,1148,"Include"
"JCM2019_e1","JCM2019_e1_3","Old15",1,4,0,1,1232,"Include"
"JCM2019_e1","JCM2019_e1_3","Old15",1,5,0,5,1798,"Include"
"JCM2019_e1","JCM2019_e1_3","Old15",1,6,0,3,2164,"Include"
"JCM2019_e1","JCM2019_e1_3","Old15",1,7,1,6,1301,"Include"
"JCM2019_e1","JCM2019_e1_3","Old15",1,8,1,6,1660,"Include"
"JCM2019_e1","JCM2019_e1_3","Old15",1,9,0,1,1355,"Include"
"JCM2019_e1","JCM2019_e1_3","Old15",1,10,1,6,1301,"Include"
"JCM2019_e1","JCM2019_e1_3","Old15",1,11,0,3,2073,"Include"
"JCM2019_e1","JCM2019_e1_3","Old15",1,12,0,1,1966,"Include"
"JCM2019_e1","JCM2019_e1_3","Old15",1,13,0,1,1224,"Include"
"JCM2019_e1","JCM2019_e1_3","Old15",1,14,0,2,1565,"Include"
"JCM2019_e1","JCM2019_e1_3","Old15",1,15,0,6,3236,"Include"
"JCM2019_e1","JCM2019_e1_3","Old15",1,16,0,1,2960,"Include"
"JCM2019_e1","JCM2019_e1_3","Old15",1,17,0,1,1287,"Include"
"JCM2019_e1","JCM2019_e1_3","Old15",1,18,0,2,2347,"Include"
"JCM2019_e1","JCM2019_e1_3","Old15",1,19,0,1,1562,"Include"
"JCM2019_e1","JCM2019_e1_3","Old15",1,20,0,1,1538,"Include"
"JCM2019_e1","JCM2019_e1_3","Old15",1,21,0,1,1134,"Include"
"JCM2019_e1","JCM2019_e1_3","Old15",1,22,0,6,1329,"Include"
"JCM2019_e1","JCM2019_e1_3","Old15",1,23,0,1,1473,"Include"
"JCM2019_e1","JCM2019_e1_3","Old15",1,24,0,1,955,"Include"
"JCM2019_e1","JCM2019_e1_3","Old15",1,25,1,6,1140,"Include"
"JCM2019_e1","JCM2019_e1_3","Old15",1,26,0,1,1238,"Include"
"JCM2019_e1","JCM2019_e1_3","Old15",1,27,0,1,854,"Include"
"JCM2019_e1","JCM2019_e1_3","Old15",1,28,1,5,1505,"Include"
"JCM2019_e1","JCM2019_e1_3","Old15",1,29,0,2,1767,"Include"
"JCM2019_e1","JCM2019_e1_3","Old15",1,30,0,2,1182,"Include"
"JCM2019_e1","JCM2019_e1_3","Old15",1,31,0,3,1287,"Include"
"JCM2019_e1","JCM2019_e1_3","Old15",1,32,0,1,2956,"Include"
"JCM2019_e1","JCM2019_e1_3","Old15",1,33,1,6,1456,"Include"
"JCM2019_e1","JCM2019_e1_3","Old15",1,34,0,5,2095,"Include"
"JCM2019_e1","JCM2019_e1_3","Old15",1,35,0,1,1737,"Include"
"JCM2019_e1","JCM2019_e1_3","Old15",1,36,0,1,928,"Include"
"JCM2019_e1","JCM2019_e1_3","Old15",1,37,0,1,1286,"Include"
"JCM2019_e1","JCM2019_e1_3","Old15",1,38,0,1,1082,"Include"
"JCM2019_e1","JCM2019_e1_3","Old15",1,39,0,1,942,"Include"
"JCM2019_e1","JCM2019_e1_3","Old15",1,40,0,2,1023,"Include"
"JCM2019_e1","JCM2019_e1_3","Old15",1,41,0,1,916,"Include"
"JCM2019_e1","JCM2019_e1_3","Old15",1,42,0,6,1152,"Include"
"JCM2019_e1","JCM2019_e1_3","Old15",1,43,0,1,2246,"Include"
"JCM2019_e1","JCM2019_e1_3","Old15",1,44,0,1,1021,"Include"
"JCM2019_e1","JCM2019_e1_3","Old15",1,45,0,1,811,"Include"
"JCM2019_e1","JCM2019_e1_3","Old15",1,46,0,1,856,"Include"
"JCM2019_e1","JCM2019_e1_3","Old15",1,47,0,1,1318,"Include"
"JCM2019_e1","JCM2019_e1_3","Old15",1,48,0,5,1388,"Include"
"JCM2019_e1","JCM2019_e1_3","Old15",1,49,0,1,1020,"Include"
"JCM2019_e1","JCM2019_e1_3","Old15",1,50,0,1,868,"Include"
"JCM2019_e1","JCM2019_e1_3","Old15",1,51,0,1,801,"Include"
"JCM2019_e1","JCM2019_e1_3","Old15",1,52,0,5,1383,"Include"
"JCM2019_e1","JCM2019_e1_3","Old15",1,53,0,1,1759,"Include"
"JCM2019_e1","JCM2019_e1_3","Old15",1,54,0,1,737,"Include"
"JCM2019_e1","JCM2019_e1_3","Old15",1,55,0,1,982,"Include"
"JCM2019_e1","JCM2019_e1_3","Old15",1,56,0,1,952,"Include"
"JCM2019_e1","JCM2019_e1_3","Old15",1,57,0,1,843,"Include"
"JCM2019_e1","JCM2019_e1_3","Old15",1,58,0,1,934,"Include"
"JCM2019_e1","JCM2019_e1_3","Old15",1,59,0,1,794,"Include"
"JCM2019_e1","JCM2019_e1_3","Old15",1,60,1,1,699,"Include"
"JCM2019_e1","JCM2019_e1_3","Old15",1,61,0,1,1491,"Include"
"JCM2019_e1","JCM2019_e1_3","Old15",1,62,0,5,2593,"Include"
"JCM2019_e1","JCM2019_e1_3","Old15",1,63,1,1,829,"Include"
"JCM2019_e1","JCM2019_e1_3","Old15",1,64,0,1,2360,"Include"
"JCM2019_e1","JCM2019_e1_3","Old15",1,65,1,6,1953,"Include"
"JCM2019_e1","JCM2019_e1_3","Old15",1,66,1,6,1446,"Include"
"JCM2019_e1","JCM2019_e1_3","Old15",1,67,1,6,839,"Include"
"JCM2019_e1","JCM2019_e1_3","Old15",1,68,0,2,2641,"Include"
"JCM2019_e1","JCM2019_e1_3","Old15",1,69,0,2,1079,"Include"
"JCM2019_e1","JCM2019_e1_3","Old15",1,70,0,2,1092,"Include"
"JCM2019_e1","JCM2019_e1_3","Old15",1,71,0,1,897,"Include"
"JCM2019_e1","JCM2019_e1_3","Old15",1,72,0,1,972,"Include"
"JCM2019_e1","JCM2019_e1_3","Old15",1,73,0,2,2486,"Include"
"JCM2019_e1","JCM2019_e1_3","Old15",1,74,0,1,1043,"Include"
"JCM2019_e1","JCM2019_e1_3","Old15",1,75,0,1,1210,"Include"
"JCM2019_e1","JCM2019_e1_3","Old15",1,76,0,1,1136,"Include"
"JCM2019_e1","JCM2019_e1_3","Old15",1,77,0,1,1300,"Include"
"JCM2019_e1","JCM2019_e1_3","Old15",1,78,0,2,931,"Include"
"JCM2019_e1","JCM2019_e1_3","Old15",1,79,0,2,1004,"Include"
"JCM2019_e1","JCM2019_e1_3","Old15",1,80,0,1,1526,"Include"
"JCM2019_e1","JCM2019_e1_3","Old15",1,81,0,1,938,"Include"
"JCM2019_e1","JCM2019_e1_3","Old15",1,82,0,1,890,"Include"
"JCM2019_e1","JCM2019_e1_3","Old15",1,83,1,5,1267,"Include"
"JCM2019_e1","JCM2019_e1_3","Old15",1,84,0,1,1325,"Include"
"JCM2019_e1","JCM2019_e1_3","Old15",1,85,0,1,829,"Include"
"JCM2019_e1","JCM2019_e1_3","Old15",1,86,0,1,693,"Include"
"JCM2019_e1","JCM2019_e1_3","Old15",1,87,0,1,767,"Include"
"JCM2019_e1","JCM2019_e1_3","Old15",1,88,0,1,664,"Include"
"JCM2019_e1","JCM2019_e1_3","Old15",1,89,0,1,738,"Include"
"JCM2019_e1","JCM2019_e1_3","Old15",1,90,0,1,1034,"Include"
"JCM2019_e1","JCM2019_e1_3","Old15",1,91,0,1,2203,"Include"
"JCM2019_e1","JCM2019_e1_3","Old15",1,92,0,1,670,"Include"
"JCM2019_e1","JCM2019_e1_3","Old15",1,93,0,1,1583,"Include"
"JCM2019_e1","JCM2019_e1_3","Old15",1,94,1,6,1441,"Include"
"JCM2019_e1","JCM2019_e1_3","Old15",1,95,0,1,1178,"Include"
"JCM2019_e1","JCM2019_e1_3","Old15",1,96,0,1,797,"Include"
"JCM2019_e1","JCM2019_e1_3","Old15",1,97,0,5,1391,"Include"
"JCM2019_e1","JCM2019_e1_3","Old15",1,98,0,1,987,"Include"
"JCM2019_e1","JCM2019_e1_3","Old15",1,99,1,6,1236,"Include"
"JCM2019_e1","JCM2019_e1_3","Old15",1,100,0,2,1517,"Include"
"JCM2019_e1","JCM2019_e1_3","Old35",2,1,0,1,3778,"Include"
"JCM2019_e1","JCM2019_e1_3","Old35",2,2,0,5,2423,"Include"
"JCM2019_e1","JCM2019_e1_3","Old35",2,3,0,1,1288,"Include"
"JCM2019_e1","JCM2019_e1_3","Old35",2,4,0,1,809,"Include"
"JCM2019_e1","JCM2019_e1_3","Old35",2,5,1,2,1957,"Include"
"JCM2019_e1","JCM2019_e1_3","Old35",2,6,1,6,1081,"Include"
"JCM2019_e1","JCM2019_e1_3","Old35",2,7,1,5,2072,"Include"
"JCM2019_e1","JCM2019_e1_3","Old35",2,8,0,2,849,"Include"
"JCM2019_e1","JCM2019_e1_3","Old35",2,9,0,1,859,"Include"
"JCM2019_e1","JCM2019_e1_3","Old35",2,10,0,1,658,"Include"
"JCM2019_e1","JCM2019_e1_3","Old35",2,11,1,6,1014,"Include"
"JCM2019_e1","JCM2019_e1_3","Old35",2,12,0,1,744,"Include"
"JCM2019_e1","JCM2019_e1_3","Old35",2,13,1,2,1820,"Include"
"JCM2019_e1","JCM2019_e1_3","Old35",2,14,1,1,2921,"Include"
"JCM2019_e1","JCM2019_e1_3","Old35",2,15,0,1,1198,"Include"
"JCM2019_e1","JCM2019_e1_3","Old35",2,16,1,6,1231,"Include"
"JCM2019_e1","JCM2019_e1_3","Old35",2,17,1,5,1241,"Include"
"JCM2019_e1","JCM2019_e1_3","Old35",2,18,1,6,988,"Include"
"JCM2019_e1","JCM2019_e1_3","Old35",2,19,0,2,2087,"Include"
"JCM2019_e1","JCM2019_e1_3","Old35",2,20,0,5,2186,"Include"
"JCM2019_e1","JCM2019_e1_3","Old35",2,21,0,1,1690,"Include"
"JCM2019_e1","JCM2019_e1_3","Old35",2,22,0,1,1080,"Include"
"JCM2019_e1","JCM2019_e1_3","Old35",2,23,1,5,1359,"Include"
"JCM2019_e1","JCM2019_e1_3","Old35",2,24,0,1,1401,"Include"
"JCM2019_e1","JCM2019_e1_3","Old35",2,25,1,6,1130,"Include"
"JCM2019_e1","JCM2019_e1_3","Old35",2,26,1,2,1312,"Include"
"JCM2019_e1","JCM2019_e1_3","Old35",2,27,0,1,2555,"Include"
"JCM2019_e1","JCM2019_e1_3","Old35",2,28,0,6,1390,"Include"
"JCM2019_e1","JCM2019_e1_3","Old35",2,29,1,6,947,"Include"
"JCM2019_e1","JCM2019_e1_3","Old35",2,30,1,6,897,"Include"
"JCM2019_e1","JCM2019_e1_3","Old35",2,31,0,1,1000,"Include"
"JCM2019_e1","JCM2019_e1_3","Old35",2,32,1,2,2200,"Include"
"JCM2019_e1","JCM2019_e1_3","Old35",2,33,0,1,1605,"Include"
"JCM2019_e1","JCM2019_e1_3","Old35",2,34,1,3,856,"Include"
"JCM2019_e1","JCM2019_e1_3","Old35",2,35,0,2,1215,"Include"
"JCM2019_e1","JCM2019_e1_3","Old35",2,36,0,2,1447,"Include"
"JCM2019_e1","JCM2019_e1_3","Old35",2,37,1,2,1240,"Include"
"JCM2019_e1","JCM2019_e1_3","Old35",2,38,0,2,1502,"Include"
"JCM2019_e1","JCM2019_e1_3","Old35",2,39,0,1,927,"Include"
"JCM2019_e1","JCM2019_e1_3","Old35",2,40,1,1,944,"Include"
"JCM2019_e1","JCM2019_e1_3","Old35",2,41,0,1,899,"Include"
"JCM2019_e1","JCM2019_e1_3","Old35",2,42,0,1,1148,"Include"
"JCM2019_e1","JCM2019_e1_3","Old35",2,43,1,6,1689,"Include"
"JCM2019_e1","JCM2019_e1_3","Old35",2,44,0,1,1020,"Include"
"JCM2019_e1","JCM2019_e1_3","Old35",2,45,0,1,1087,"Include"
"JCM2019_e1","JCM2019_e1_3","Old35",2,46,0,1,1028,"Include"
"JCM2019_e1","JCM2019_e1_3","Old35",2,47,1,6,949,"Include"
"JCM2019_e1","JCM2019_e1_3","Old35",2,48,0,2,1716,"Include"
"JCM2019_e1","JCM2019_e1_3","Old35",2,49,0,2,1120,"Include"
"JCM2019_e1","JCM2019_e1_3","Old35",2,50,0,1,967,"Include"
"JCM2019_e1","JCM2019_e1_3","Old35",2,51,0,1,836,"Include"
"JCM2019_e1","JCM2019_e1_3","Old35",2,52,0,1,870,"Include"
"JCM2019_e1","JCM2019_e1_3","Old35",2,53,0,2,1230,"Include"
"JCM2019_e1","JCM2019_e1_3","Old35",2,54,0,2,830,"Include"
"JCM2019_e1","JCM2019_e1_3","Old35",2,55,0,2,823,"Include"
"JCM2019_e1","JCM2019_e1_3","Old35",2,56,0,2,747,"Include"
"JCM2019_e1","JCM2019_e1_3","Old35",2,57,0,1,2382,"Include"
"JCM2019_e1","JCM2019_e1_3","Old35",2,58,0,2,914,"Include"
"JCM2019_e1","JCM2019_e1_3","Old35",2,59,1,6,1134,"Include"
"JCM2019_e1","JCM2019_e1_3","Old35",2,60,0,1,1316,"Include"
"JCM2019_e1","JCM2019_e1_3","Old35",2,61,0,1,888,"Include"
"JCM2019_e1","JCM2019_e1_3","Old35",2,62,0,1,1174,"Include"
"JCM2019_e1","JCM2019_e1_3","Old35",2,63,0,6,1457,"Include"
"JCM2019_e1","JCM2019_e1_3","Old35",2,64,1,6,1443,"Include"
"JCM2019_e1","JCM2019_e1_3","Old35",2,65,0,5,1870,"Include"
"JCM2019_e1","JCM2019_e1_3","Old35",2,66,1,1,2058,"Include"
"JCM2019_e1","JCM2019_e1_3","Old35",2,67,1,2,2395,"Include"
"JCM2019_e1","JCM2019_e1_3","Old35",2,68,0,1,1189,"Include"
"JCM2019_e1","JCM2019_e1_3","Old35",2,69,1,6,1231,"Include"
"JCM2019_e1","JCM2019_e1_3","Old35",2,70,0,1,2609,"Include"
"JCM2019_e1","JCM2019_e1_3","Old35",2,71,0,1,980,"Include"
"JCM2019_e1","JCM2019_e1_3","Old35",2,72,1,1,1586,"Include"
"JCM2019_e1","JCM2019_e1_3","Old35",2,73,0,1,1131,"Include"
"JCM2019_e1","JCM2019_e1_3","Old35",2,74,1,6,1248,"Include"
"JCM2019_e1","JCM2019_e1_3","Old35",2,75,0,2,988,"Include"
"JCM2019_e1","JCM2019_e1_3","Old35",2,76,1,2,1376,"Include"
"JCM2019_e1","JCM2019_e1_3","Old35",2,77,0,1,1373,"Include"
"JCM2019_e1","JCM2019_e1_3","Old35",2,78,0,5,1633,"Include"
"JCM2019_e1","JCM2019_e1_3","Old35",2,79,0,1,2092,"Include"
"JCM2019_e1","JCM2019_e1_3","Old35",2,80,1,6,1523,"Include"
"JCM2019_e1","JCM2019_e1_3","Old35",2,81,1,1,891,"Include"
"JCM2019_e1","JCM2019_e1_3","Old35",2,82,0,2,1993,"Include"
"JCM2019_e1","JCM2019_e1_3","Old35",2,83,0,1,1350,"Include"
"JCM2019_e1","JCM2019_e1_3","Old35",2,84,0,1,1519,"Include"
"JCM2019_e1","JCM2019_e1_3","Old35",2,85,0,1,759,"Include"
"JCM2019_e1","JCM2019_e1_3","Old35",2,86,0,1,853,"Include"
"JCM2019_e1","JCM2019_e1_3","Old35",2,87,0,1,1697,"Include"
"JCM2019_e1","JCM2019_e1_3","Old35",2,88,0,1,784,"Include"
"JCM2019_e1","JCM2019_e1_3","Old35",2,89,0,1,796,"Include"
"JCM2019_e1","JCM2019_e1_3","Old35",2,90,0,1,777,"Include"
"JCM2019_e1","JCM2019_e1_3","Old35",2,91,0,1,846,"Include"
"JCM2019_e1","JCM2019_e1_3","Old35",2,92,1,2,1030,"Include"
"JCM2019_e1","JCM2019_e1_3","Old35",2,93,0,1,1095,"Include"
"JCM2019_e1","JCM2019_e1_3","Old35",2,94,1,6,1152,"Include"
"JCM2019_e1","JCM2019_e1_3","Old35",2,95,1,2,934,"Include"
"JCM2019_e1","JCM2019_e1_3","Old35",2,96,0,1,1148,"Include"
"JCM2019_e1","JCM2019_e1_3","Old35",2,97,0,5,1489,"Include"
"JCM2019_e1","JCM2019_e1_3","Old35",2,98,0,1,1028,"Include"
"JCM2019_e1","JCM2019_e1_3","Old35",2,99,1,6,1372,"Include"
"JCM2019_e1","JCM2019_e1_3","Old35",2,100,1,1,986,"Include"
"JCM2019_e1","JCM2019_e1_3","Old50",3,1,1,6,2952,"Include"
"JCM2019_e1","JCM2019_e1_3","Old50",3,2,0,1,1360,"Include"
"JCM2019_e1","JCM2019_e1_3","Old50",3,3,1,5,1781,"Include"
"JCM2019_e1","JCM2019_e1_3","Old50",3,4,0,2,1822,"Include"
"JCM2019_e1","JCM2019_e1_3","Old50",3,5,1,6,1192,"Include"
"JCM2019_e1","JCM2019_e1_3","Old50",3,6,0,5,2699,"Include"
"JCM2019_e1","JCM2019_e1_3","Old50",3,7,1,5,1181,"Include"
"JCM2019_e1","JCM2019_e1_3","Old50",3,8,0,2,1136,"Include"
"JCM2019_e1","JCM2019_e1_3","Old50",3,9,1,2,983,"Include"
"JCM2019_e1","JCM2019_e1_3","Old50",3,10,1,6,911,"Include"
"JCM2019_e1","JCM2019_e1_3","Old50",3,11,0,1,954,"Include"
"JCM2019_e1","JCM2019_e1_3","Old50",3,12,0,1,1100,"Include"
"JCM2019_e1","JCM2019_e1_3","Old50",3,13,0,1,1058,"Include"
"JCM2019_e1","JCM2019_e1_3","Old50",3,14,1,6,994,"Include"
"JCM2019_e1","JCM2019_e1_3","Old50",3,15,1,6,809,"Include"
"JCM2019_e1","JCM2019_e1_3","Old50",3,16,0,1,983,"Include"
"JCM2019_e1","JCM2019_e1_3","Old50",3,17,1,1,1067,"Include"
"JCM2019_e1","JCM2019_e1_3","Old50",3,18,0,2,1450,"Include"
"JCM2019_e1","JCM2019_e1_3","Old50",3,19,1,2,838,"Include"
"JCM2019_e1","JCM2019_e1_3","Old50",3,20,0,1,952,"Include"
"JCM2019_e1","JCM2019_e1_3","Old50",3,21,1,5,2830,"Include"
"JCM2019_e1","JCM2019_e1_3","Old50",3,22,0,1,1238,"Include"
"JCM2019_e1","JCM2019_e1_3","Old50",3,23,0,1,853,"Include"
"JCM2019_e1","JCM2019_e1_3","Old50",3,24,0,1,865,"Include"
"JCM2019_e1","JCM2019_e1_3","Old50",3,25,1,6,908,"Include"
"JCM2019_e1","JCM2019_e1_3","Old50",3,26,1,2,925,"Include"
"JCM2019_e1","JCM2019_e1_3","Old50",3,27,1,6,1285,"Include"
"JCM2019_e1","JCM2019_e1_3","Old50",3,28,0,2,1061,"Include"
"JCM2019_e1","JCM2019_e1_3","Old50",3,29,1,1,1406,"Include"
"JCM2019_e1","JCM2019_e1_3","Old50",3,30,0,2,1583,"Include"
"JCM2019_e1","JCM2019_e1_3","Old50",3,31,0,2,900,"Include"
"JCM2019_e1","JCM2019_e1_3","Old50",3,32,1,5,1879,"Include"
"JCM2019_e1","JCM2019_e1_3","Old50",3,33,0,5,2577,"Include"
"JCM2019_e1","JCM2019_e1_3","Old50",3,34,0,1,1320,"Include"
"JCM2019_e1","JCM2019_e1_3","Old50",3,35,0,1,682,"Include"
"JCM2019_e1","JCM2019_e1_3","Old50",3,36,0,2,982,"Include"
"JCM2019_e1","JCM2019_e1_3","Old50",3,37,1,5,2097,"Include"
"JCM2019_e1","JCM2019_e1_3","Old50",3,38,0,2,2819,"Include"
"JCM2019_e1","JCM2019_e1_3","Old50",3,39,1,6,1059,"Include"
"JCM2019_e1","JCM2019_e1_3","Old50",3,40,1,1,1043,"Include"
"JCM2019_e1","JCM2019_e1_3","Old50",3,41,0,5,1111,"Include"
"JCM2019_e1","JCM2019_e1_3","Old50",3,42,0,1,1446,"Include"
"JCM2019_e1","JCM2019_e1_3","Old50",3,43,0,1,1371,"Include"
"JCM2019_e1","JCM2019_e1_3","Old50",3,44,1,6,1457,"Include"
"JCM2019_e1","JCM2019_e1_3","Old50",3,45,0,5,1348,"Include"
"JCM2019_e1","JCM2019_e1_3","Old50",3,46,0,1,2103,"Include"
"JCM2019_e1","JCM2019_e1_3","Old50",3,47,0,1,585,"Include"
"JCM2019_e1","JCM2019_e1_3","Old50",3,48,0,1,915,"Include"
"JCM2019_e1","JCM2019_e1_3","Old50",3,49,1,1,681,"Include"
"JCM2019_e1","JCM2019_e1_3","Old50",3,50,1,6,977,"Include"
"JCM2019_e1","JCM2019_e1_3","Old50",3,51,1,6,1165,"Include"
"JCM2019_e1","JCM2019_e1_3","Old50",3,52,1,6,863,"Include"
"JCM2019_e1","JCM2019_e1_3","Old50",3,53,0,1,791,"Include"
"JCM2019_e1","JCM2019_e1_3","Old50",3,54,1,6,666,"Include"
"JCM2019_e1","JCM2019_e1_3","Old50",3,55,0,5,1780,"Include"
"JCM2019_e1","JCM2019_e1_3","Old50",3,56,0,1,796,"Include"
"JCM2019_e1","JCM2019_e1_3","Old50",3,57,0,1,769,"Include"
"JCM2019_e1","JCM2019_e1_3","Old50",3,58,0,1,672,"Include"
"JCM2019_e1","JCM2019_e1_3","Old50",3,59,1,5,1290,"Include"
"JCM2019_e1","JCM2019_e1_3","Old50",3,60,1,6,746,"Include"
"JCM2019_e1","JCM2019_e1_3","Old50",3,61,0,1,632,"Include"
"JCM2019_e1","JCM2019_e1_3","Old50",3,62,0,1,1852,"Include"
"JCM2019_e1","JCM2019_e1_3","Old50",3,63,0,1,3347,"Include"
"JCM2019_e1","JCM2019_e1_3","Old50",3,64,1,6,771,"Include"
"JCM2019_e1","JCM2019_e1_3","Old50",3,65,0,1,704,"Include"
"JCM2019_e1","JCM2019_e1_3","Old50",3,66,1,1,1448,"Include"
"JCM2019_e1","JCM2019_e1_3","Old50",3,67,1,1,1330,"Include"
"JCM2019_e1","JCM2019_e1_3","Old50",3,68,0,1,1284,"Include"
"JCM2019_e1","JCM2019_e1_3","Old50",3,69,0,1,717,"Include"
"JCM2019_e1","JCM2019_e1_3","Old50",3,70,1,6,1182,"Include"
"JCM2019_e1","JCM2019_e1_3","Old50",3,71,0,1,830,"Include"
"JCM2019_e1","JCM2019_e1_3","Old50",3,72,1,6,659,"Include"
"JCM2019_e1","JCM2019_e1_3","Old50",3,73,1,6,688,"Include"
"JCM2019_e1","JCM2019_e1_3","Old50",3,74,1,1,713,"Include"
"JCM2019_e1","JCM2019_e1_3","Old50",3,75,1,1,1315,"Include"
"JCM2019_e1","JCM2019_e1_3","Old50",3,76,0,1,1393,"Include"
"JCM2019_e1","JCM2019_e1_3","Old50",3,77,1,6,1044,"Include"
"JCM2019_e1","JCM2019_e1_3","Old50",3,78,1,2,1080,"Include"
"JCM2019_e1","JCM2019_e1_3","Old50",3,79,0,1,1105,"Include"
"JCM2019_e1","JCM2019_e1_3","Old50",3,80,1,6,818,"Include"
"JCM2019_e1","JCM2019_e1_3","Old50",3,81,1,6,864,"Include"
"JCM2019_e1","JCM2019_e1_3","Old50",3,82,1,6,1488,"Include"
"JCM2019_e1","JCM2019_e1_3","Old50",3,83,1,6,1514,"Include"
"JCM2019_e1","JCM2019_e1_3","Old50",3,84,0,2,1528,"Include"
"JCM2019_e1","JCM2019_e1_3","Old50",3,85,0,2,2159,"Include"
"JCM2019_e1","JCM2019_e1_3","Old50",3,86,0,6,1231,"Include"
"JCM2019_e1","JCM2019_e1_3","Old50",3,87,1,6,757,"Include"
"JCM2019_e1","JCM2019_e1_3","Old50",3,88,1,6,717,"Include"
"JCM2019_e1","JCM2019_e1_3","Old50",3,89,1,6,813,"Include"
"JCM2019_e1","JCM2019_e1_3","Old50",3,90,1,6,592,"Include"
"JCM2019_e1","JCM2019_e1_3","Old50",3,91,1,2,1100,"Include"
"JCM2019_e1","JCM2019_e1_3","Old50",3,92,0,2,923,"Include"
"JCM2019_e1","JCM2019_e1_3","Old50",3,93,1,6,755,"Include"
"JCM2019_e1","JCM2019_e1_3","Old50",3,94,0,2,724,"Include"
"JCM2019_e1","JCM2019_e1_3","Old50",3,95,0,1,827,"Include"
"JCM2019_e1","JCM2019_e1_3","Old50",3,96,1,2,984,"Include"
"JCM2019_e1","JCM2019_e1_3","Old50",3,97,0,1,891,"Include"
"JCM2019_e1","JCM2019_e1_3","Old50",3,98,0,1,1755,"Include"
"JCM2019_e1","JCM2019_e1_3","Old50",3,99,1,5,2080,"Include"
"JCM2019_e1","JCM2019_e1_3","Old50",3,100,1,5,2577,"Include"
"JCM2019_e1","JCM2019_e1_3","Old65",4,1,1,1,1362,"Include"
"JCM2019_e1","JCM2019_e1_3","Old65",4,2,0,1,797,"Include"
"JCM2019_e1","JCM2019_e1_3","Old65",4,3,1,6,1118,"Include"
"JCM2019_e1","JCM2019_e1_3","Old65",4,4,1,1,699,"Include"
"JCM2019_e1","JCM2019_e1_3","Old65",4,5,0,1,926,"Include"
"JCM2019_e1","JCM2019_e1_3","Old65",4,6,1,6,978,"Include"
"JCM2019_e1","JCM2019_e1_3","Old65",4,7,1,6,687,"Include"
"JCM2019_e1","JCM2019_e1_3","Old65",4,8,1,6,1330,"Include"
"JCM2019_e1","JCM2019_e1_3","Old65",4,9,0,2,2745,"Include"
"JCM2019_e1","JCM2019_e1_3","Old65",4,10,1,6,929,"Include"
"JCM2019_e1","JCM2019_e1_3","Old65",4,11,1,3,954,"Include"
"JCM2019_e1","JCM2019_e1_3","Old65",4,12,1,6,817,"Include"
"JCM2019_e1","JCM2019_e1_3","Old65",4,13,1,6,785,"Include"
"JCM2019_e1","JCM2019_e1_3","Old65",4,14,1,2,1404,"Include"
"JCM2019_e1","JCM2019_e1_3","Old65",4,15,1,5,1554,"Include"
"JCM2019_e1","JCM2019_e1_3","Old65",4,16,0,2,1309,"Include"
"JCM2019_e1","JCM2019_e1_3","Old65",4,17,1,1,1154,"Include"
"JCM2019_e1","JCM2019_e1_3","Old65",4,18,0,1,1054,"Include"
"JCM2019_e1","JCM2019_e1_3","Old65",4,19,0,1,910,"Include"
"JCM2019_e1","JCM2019_e1_3","Old65",4,20,1,6,1226,"Include"
"JCM2019_e1","JCM2019_e1_3","Old65",4,21,0,1,820,"Include"
"JCM2019_e1","JCM2019_e1_3","Old65",4,22,0,1,1067,"Include"
"JCM2019_e1","JCM2019_e1_3","Old65",4,23,1,6,1002,"Include"
"JCM2019_e1","JCM2019_e1_3","Old65",4,24,0,6,1155,"Include"
"JCM2019_e1","JCM2019_e1_3","Old65",4,25,0,1,1004,"Include"
"JCM2019_e1","JCM2019_e1_3","Old65",4,26,1,5,2168,"Include"
"JCM2019_e1","JCM2019_e1_3","Old65",4,27,0,1,998,"Include"
"JCM2019_e1","JCM2019_e1_3","Old65",4,28,1,1,1122,"Include"
"JCM2019_e1","JCM2019_e1_3","Old65",4,29,0,1,857,"Include"
"JCM2019_e1","JCM2019_e1_3","Old65",4,30,0,1,852,"Include"
"JCM2019_e1","JCM2019_e1_3","Old65",4,31,0,5,1337,"Include"
"JCM2019_e1","JCM2019_e1_3","Old65",4,32,0,6,826,"Include"
"JCM2019_e1","JCM2019_e1_3","Old65",4,33,1,6,843,"Include"
"JCM2019_e1","JCM2019_e1_3","Old65",4,34,0,2,1257,"Include"
"JCM2019_e1","JCM2019_e1_3","Old65",4,35,0,2,982,"Include"
"JCM2019_e1","JCM2019_e1_3","Old65",4,36,0,2,693,"Include"
"JCM2019_e1","JCM2019_e1_3","Old65",4,37,1,1,632,"Include"
"JCM2019_e1","JCM2019_e1_3","Old65",4,38,1,2,698,"Include"
"JCM2019_e1","JCM2019_e1_3","Old65",4,39,1,6,1458,"Include"
"JCM2019_e1","JCM2019_e1_3","Old65",4,40,0,2,1199,"Include"
"JCM2019_e1","JCM2019_e1_3","Old65",4,41,0,5,989,"Include"
"JCM2019_e1","JCM2019_e1_3","Old65",4,42,0,1,931,"Include"
"JCM2019_e1","JCM2019_e1_3","Old65",4,43,1,6,1065,"Include"
"JCM2019_e1","JCM2019_e1_3","Old65",4,44,1,6,1276,"Include"
"JCM2019_e1","JCM2019_e1_3","Old65",4,45,1,5,1510,"Include"
"JCM2019_e1","JCM2019_e1_3","Old65",4,46,1,6,886,"Include"
"JCM2019_e1","JCM2019_e1_3","Old65",4,47,1,5,768,"Include"
"JCM2019_e1","JCM2019_e1_3","Old65",4,48,0,1,985,"Include"
"JCM2019_e1","JCM2019_e1_3","Old65",4,49,1,1,1029,"Include"
"JCM2019_e1","JCM2019_e1_3","Old65",4,50,0,6,2184,"Include"
"JCM2019_e1","JCM2019_e1_3","Old65",4,51,1,6,991,"Include"
"JCM2019_e1","JCM2019_e1_3","Old65",4,52,1,6,805,"Include"
"JCM2019_e1","JCM2019_e1_3","Old65",4,53,0,1,825,"Include"
"JCM2019_e1","JCM2019_e1_3","Old65",4,54,1,2,1389,"Include"
"JCM2019_e1","JCM2019_e1_3","Old65",4,55,1,6,772,"Include"
"JCM2019_e1","JCM2019_e1_3","Old65",4,56,1,2,2914,"Include"
"JCM2019_e1","JCM2019_e1_3","Old65",4,57,1,6,845,"Include"
"JCM2019_e1","JCM2019_e1_3","Old65",4,58,0,1,1007,"Include"
"JCM2019_e1","JCM2019_e1_3","Old65",4,59,1,1,873,"Include"
"JCM2019_e1","JCM2019_e1_3","Old65",4,60,0,1,1419,"Include"
"JCM2019_e1","JCM2019_e1_3","Old65",4,61,1,6,935,"Include"
"JCM2019_e1","JCM2019_e1_3","Old65",4,62,0,1,954,"Include"
"JCM2019_e1","JCM2019_e1_3","Old65",4,63,1,6,868,"Include"
"JCM2019_e1","JCM2019_e1_3","Old65",4,64,1,1,884,"Include"
"JCM2019_e1","JCM2019_e1_3","Old65",4,65,1,6,770,"Include"
"JCM2019_e1","JCM2019_e1_3","Old65",4,66,1,5,1877,"Include"
"JCM2019_e1","JCM2019_e1_3","Old65",4,67,1,2,1489,"Include"
"JCM2019_e1","JCM2019_e1_3","Old65",4,68,1,6,1382,"Include"
"JCM2019_e1","JCM2019_e1_3","Old65",4,69,1,1,1019,"Include"
"JCM2019_e1","JCM2019_e1_3","Old65",4,70,0,2,2059,"Include"
"JCM2019_e1","JCM2019_e1_3","Old65",4,71,1,6,1076,"Include"
"JCM2019_e1","JCM2019_e1_3","Old65",4,72,1,5,1925,"Include"
"JCM2019_e1","JCM2019_e1_3","Old65",4,73,1,6,1182,"Include"
"JCM2019_e1","JCM2019_e1_3","Old65",4,74,0,1,1089,"Include"
"JCM2019_e1","JCM2019_e1_3","Old65",4,75,1,2,1605,"Include"
"JCM2019_e1","JCM2019_e1_3","Old65",4,76,0,1,1299,"Include"
"JCM2019_e1","JCM2019_e1_3","Old65",4,77,0,1,856,"Include"
"JCM2019_e1","JCM2019_e1_3","Old65",4,78,0,5,1357,"Include"
"JCM2019_e1","JCM2019_e1_3","Old65",4,79,1,1,2116,"Include"
"JCM2019_e1","JCM2019_e1_3","Old65",4,80,1,5,1195,"Include"
"JCM2019_e1","JCM2019_e1_3","Old65",4,81,1,6,1761,"Include"
"JCM2019_e1","JCM2019_e1_3","Old65",4,82,0,5,1104,"Include"
"JCM2019_e1","JCM2019_e1_3","Old65",4,83,1,2,1722,"Include"
"JCM2019_e1","JCM2019_e1_3","Old65",4,84,1,6,1001,"Include"
"JCM2019_e1","JCM2019_e1_3","Old65",4,85,1,5,891,"Include"
"JCM2019_e1","JCM2019_e1_3","Old65",4,86,0,2,1067,"Include"
"JCM2019_e1","JCM2019_e1_3","Old65",4,87,1,6,1077,"Include"
"JCM2019_e1","JCM2019_e1_3","Old65",4,88,1,1,1109,"Include"
"JCM2019_e1","JCM2019_e1_3","Old65",4,89,1,6,872,"Include"
"JCM2019_e1","JCM2019_e1_3","Old65",4,90,1,2,879,"Include"
"JCM2019_e1","JCM2019_e1_3","Old65",4,91,1,6,858,"Include"
"JCM2019_e1","JCM2019_e1_3","Old65",4,92,1,6,732,"Include"
"JCM2019_e1","JCM2019_e1_3","Old65",4,93,1,2,848,"Include"
"JCM2019_e1","JCM2019_e1_3","Old65",4,94,1,2,992,"Include"
"JCM2019_e1","JCM2019_e1_3","Old65",4,95,0,1,1012,"Include"
"JCM2019_e1","JCM2019_e1_3","Old65",4,96,1,6,1136,"Include"
"JCM2019_e1","JCM2019_e1_3","Old65",4,97,1,6,845,"Include"
"JCM2019_e1","JCM2019_e1_3","Old65",4,98,1,6,750,"Include"
"JCM2019_e1","JCM2019_e1_3","Old65",4,99,1,6,2192,"Include"
"JCM2019_e1","JCM2019_e1_3","Old65",4,100,1,2,1002,"Include"
"JCM2019_e1","JCM2019_e1_3","Old85",5,1,1,6,764,"Include"
"JCM2019_e1","JCM2019_e1_3","Old85",5,2,1,6,1256,"Include"
"JCM2019_e1","JCM2019_e1_3","Old85",5,3,1,2,1087,"Include"
"JCM2019_e1","JCM2019_e1_3","Old85",5,4,1,6,757,"Include"
"JCM2019_e1","JCM2019_e1_3","Old85",5,5,1,6,954,"Include"
"JCM2019_e1","JCM2019_e1_3","Old85",5,6,1,6,810,"Include"
"JCM2019_e1","JCM2019_e1_3","Old85",5,7,1,6,886,"Include"
"JCM2019_e1","JCM2019_e1_3","Old85",5,8,1,1,974,"Include"
"JCM2019_e1","JCM2019_e1_3","Old85",5,9,1,6,1427,"Include"
"JCM2019_e1","JCM2019_e1_3","Old85",5,10,1,5,1407,"Include"
"JCM2019_e1","JCM2019_e1_3","Old85",5,11,1,6,1263,"Include"
"JCM2019_e1","JCM2019_e1_3","Old85",5,12,1,2,1019,"Include"
"JCM2019_e1","JCM2019_e1_3","Old85",5,13,1,2,1140,"Include"
"JCM2019_e1","JCM2019_e1_3","Old85",5,14,1,5,1675,"Include"
"JCM2019_e1","JCM2019_e1_3","Old85",5,15,1,5,1089,"Include"
"JCM2019_e1","JCM2019_e1_3","Old85",5,16,1,6,817,"Include"
"JCM2019_e1","JCM2019_e1_3","Old85",5,17,1,6,1205,"Include"
"JCM2019_e1","JCM2019_e1_3","Old85",5,18,1,6,1076,"Include"
"JCM2019_e1","JCM2019_e1_3","Old85",5,19,1,6,905,"Include"
"JCM2019_e1","JCM2019_e1_3","Old85",5,20,1,6,1044,"Include"
"JCM2019_e1","JCM2019_e1_3","Old85",5,21,1,5,1272,"Include"
"JCM2019_e1","JCM2019_e1_3","Old85",5,22,1,6,930,"Include"
"JCM2019_e1","JCM2019_e1_3","Old85",5,23,1,6,983,"Include"
"JCM2019_e1","JCM2019_e1_3","Old85",5,24,1,6,756,"Include"
"JCM2019_e1","JCM2019_e1_3","Old85",5,25,1,5,1052,"Include"
"JCM2019_e1","JCM2019_e1_3","Old85",5,26,1,6,909,"Include"
"JCM2019_e1","JCM2019_e1_3","Old85",5,27,1,2,1494,"Include"
"JCM2019_e1","JCM2019_e1_3","Old85",5,28,1,2,1327,"Include"
"JCM2019_e1","JCM2019_e1_3","Old85",5,29,1,6,867,"Include"
"JCM2019_e1","JCM2019_e1_3","Old85",5,30,1,2,1221,"Include"
"JCM2019_e1","JCM2019_e1_3","Old85",5,31,1,5,1079,"Include"
"JCM2019_e1","JCM2019_e1_3","Old85",5,32,1,6,1195,"Include"
"JCM2019_e1","JCM2019_e1_3","Old85",5,33,1,6,1970,"Include"
"JCM2019_e1","JCM2019_e1_3","Old85",5,34,1,2,1835,"Include"
"JCM2019_e1","JCM2019_e1_3","Old85",5,35,1,6,823,"Include"
"JCM2019_e1","JCM2019_e1_3","Old85",5,36,0,2,1623,"Include"
"JCM2019_e1","JCM2019_e1_3","Old85",5,37,1,2,1282,"Include"
"JCM2019_e1","JCM2019_e1_3","Old85",5,38,0,1,1046,"Include"
"JCM2019_e1","JCM2019_e1_3","Old85",5,39,1,1,1182,"Include"
"JCM2019_e1","JCM2019_e1_3","Old85",5,40,1,6,1226,"Include"
"JCM2019_e1","JCM2019_e1_3","Old85",5,41,0,4,950,"Include"
"JCM2019_e1","JCM2019_e1_3","Old85",5,42,0,2,1381,"Include"
"JCM2019_e1","JCM2019_e1_3","Old85",5,43,0,1,1124,"Include"
"JCM2019_e1","JCM2019_e1_3","Old85",5,44,0,1,978,"Include"
"JCM2019_e1","JCM2019_e1_3","Old85",5,45,1,5,1157,"Include"
"JCM2019_e1","JCM2019_e1_3","Old85",5,46,1,6,885,"Include"
"JCM2019_e1","JCM2019_e1_3","Old85",5,47,1,2,1041,"Include"
"JCM2019_e1","JCM2019_e1_3","Old85",5,48,1,6,1010,"Include"
"JCM2019_e1","JCM2019_e1_3","Old85",5,49,1,2,2207,"Include"
"JCM2019_e1","JCM2019_e1_3","Old85",5,50,1,6,969,"Include"
"JCM2019_e1","JCM2019_e1_3","Old85",5,51,1,6,754,"Include"
"JCM2019_e1","JCM2019_e1_3","Old85",5,52,1,6,1243,"Include"
"JCM2019_e1","JCM2019_e1_3","Old85",5,53,1,6,913,"Include"
"JCM2019_e1","JCM2019_e1_3","Old85",5,54,0,2,1097,"Include"
"JCM2019_e1","JCM2019_e1_3","Old85",5,55,1,6,1057,"Include"
"JCM2019_e1","JCM2019_e1_3","Old85",5,56,1,6,933,"Include"
"JCM2019_e1","JCM2019_e1_3","Old85",5,57,1,6,808,"Include"
"JCM2019_e1","JCM2019_e1_3","Old85",5,58,1,2,984,"Include"
"JCM2019_e1","JCM2019_e1_3","Old85",5,59,1,1,967,"Include"
"JCM2019_e1","JCM2019_e1_3","Old85",5,60,1,1,948,"Include"
"JCM2019_e1","JCM2019_e1_3","Old85",5,61,1,6,920,"Include"
"JCM2019_e1","JCM2019_e1_3","Old85",5,62,1,1,1033,"Include"
"JCM2019_e1","JCM2019_e1_3","Old85",5,63,1,6,724,"Include"
"JCM2019_e1","JCM2019_e1_3","Old85",5,64,1,5,938,"Include"
"JCM2019_e1","JCM2019_e1_3","Old85",5,65,1,5,859,"Include"
"JCM2019_e1","JCM2019_e1_3","Old85",5,66,1,2,839,"Include"
"JCM2019_e1","JCM2019_e1_3","Old85",5,67,1,6,705,"Include"
"JCM2019_e1","JCM2019_e1_3","Old85",5,68,1,5,1051,"Include"
"JCM2019_e1","JCM2019_e1_3","Old85",5,69,1,2,1217,"Include"
"JCM2019_e1","JCM2019_e1_3","Old85",5,70,1,6,1750,"Include"
"JCM2019_e1","JCM2019_e1_3","Old85",5,71,1,6,3800,"Include"
"JCM2019_e1","JCM2019_e1_3","Old85",5,72,1,2,2184,"Include"
"JCM2019_e1","JCM2019_e1_3","Old85",5,73,1,6,937,"Include"
"JCM2019_e1","JCM2019_e1_3","Old85",5,74,1,6,1119,"Include"
"JCM2019_e1","JCM2019_e1_3","Old85",5,75,1,5,1598,"Include"
"JCM2019_e1","JCM2019_e1_3","Old85",5,76,0,2,1423,"Include"
"JCM2019_e1","JCM2019_e1_3","Old85",5,77,1,2,1631,"Include"
"JCM2019_e1","JCM2019_e1_3","Old85",5,78,1,5,985,"Include"
"JCM2019_e1","JCM2019_e1_3","Old85",5,79,1,6,1555,"Include"
"JCM2019_e1","JCM2019_e1_3","Old85",5,80,1,1,1269,"Include"
"JCM2019_e1","JCM2019_e1_3","Old85",5,81,0,1,1039,"Include"
"JCM2019_e1","JCM2019_e1_3","Old85",5,82,1,6,1638,"Include"
"JCM2019_e1","JCM2019_e1_3","Old85",5,83,1,5,1014,"Include"
"JCM2019_e1","JCM2019_e1_3","Old85",5,84,0,5,972,"Include"
"JCM2019_e1","JCM2019_e1_3","Old85",5,85,1,6,1831,"Include"
"JCM2019_e1","JCM2019_e1_3","Old85",5,86,0,2,1226,"Include"
"JCM2019_e1","JCM2019_e1_3","Old85",5,87,0,5,1195,"Include"
"JCM2019_e1","JCM2019_e1_3","Old85",5,88,0,2,1351,"Include"
"JCM2019_e1","JCM2019_e1_3","Old85",5,89,1,2,812,"Include"
"JCM2019_e1","JCM2019_e1_3","Old85",5,90,0,1,917,"Include"
"JCM2019_e1","JCM2019_e1_3","Old85",5,91,1,5,938,"Include"
"JCM2019_e1","JCM2019_e1_3","Old85",5,92,1,5,929,"Include"
"JCM2019_e1","JCM2019_e1_3","Old85",5,93,1,6,1121,"Include"
"JCM2019_e1","JCM2019_e1_3","Old85",5,94,0,2,969,"Include"
"JCM2019_e1","JCM2019_e1_3","Old85",5,95,1,2,1102,"Include"
"JCM2019_e1","JCM2019_e1_3","Old85",5,96,1,2,909,"Include"
"JCM2019_e1","JCM2019_e1_3","Old85",5,97,1,1,877,"Include"
"JCM2019_e1","JCM2019_e1_3","Old85",5,98,1,5,2364,"Include"
"JCM2019_e1","JCM2019_e1_3","Old85",5,99,1,6,1088,"Include"
"JCM2019_e1","JCM2019_e1_3","Old85",5,100,1,6,936,"Include"
"JCM2019_e1","JCM2019_e1_4","Old15",1,1,0,5,1397,"Include"
"JCM2019_e1","JCM2019_e1_4","Old15",1,2,0,1,1425,"Include"
"JCM2019_e1","JCM2019_e1_4","Old15",1,3,0,1,1785,"Include"
"JCM2019_e1","JCM2019_e1_4","Old15",1,4,0,6,1551,"Include"
"JCM2019_e1","JCM2019_e1_4","Old15",1,5,0,1,1544,"Include"
"JCM2019_e1","JCM2019_e1_4","Old15",1,6,0,2,3636,"Include"
"JCM2019_e1","JCM2019_e1_4","Old15",1,7,0,2,1967,"Include"
"JCM2019_e1","JCM2019_e1_4","Old15",1,8,0,1,2044,"Include"
"JCM2019_e1","JCM2019_e1_4","Old15",1,9,0,6,1591,"Include"
"JCM2019_e1","JCM2019_e1_4","Old15",1,10,0,1,1249,"Include"
"JCM2019_e1","JCM2019_e1_4","Old15",1,11,0,2,4449,"Include"
"JCM2019_e1","JCM2019_e1_4","Old15",1,12,0,1,1437,"Include"
"JCM2019_e1","JCM2019_e1_4","Old15",1,13,1,6,962,"Include"
"JCM2019_e1","JCM2019_e1_4","Old15",1,14,0,1,3235,"Include"
"JCM2019_e1","JCM2019_e1_4","Old15",1,15,0,2,1521,"Include"
"JCM2019_e1","JCM2019_e1_4","Old15",1,16,1,6,2441,"Include"
"JCM2019_e1","JCM2019_e1_4","Old15",1,17,0,1,1068,"Include"
"JCM2019_e1","JCM2019_e1_4","Old15",1,18,0,2,3025,"Include"
"JCM2019_e1","JCM2019_e1_4","Old15",1,19,0,1,1199,"Include"
"JCM2019_e1","JCM2019_e1_4","Old15",1,20,0,1,897,"Include"
"JCM2019_e1","JCM2019_e1_4","Old15",1,21,0,1,1535,"Include"
"JCM2019_e1","JCM2019_e1_4","Old15",1,22,1,6,1260,"Include"
"JCM2019_e1","JCM2019_e1_4","Old15",1,23,0,2,2234,"Include"
"JCM2019_e1","JCM2019_e1_4","Old15",1,24,0,6,1521,"Include"
"JCM2019_e1","JCM2019_e1_4","Old15",1,25,0,1,2497,"Include"
"JCM2019_e1","JCM2019_e1_4","Old15",1,26,0,1,840,"Include"
"JCM2019_e1","JCM2019_e1_4","Old15",1,27,0,1,1658,"Include"
"JCM2019_e1","JCM2019_e1_4","Old15",1,28,0,2,3328,"Include"
"JCM2019_e1","JCM2019_e1_4","Old15",1,29,0,1,1298,"Include"
"JCM2019_e1","JCM2019_e1_4","Old15",1,30,1,6,904,"Include"
"JCM2019_e1","JCM2019_e1_4","Old15",1,31,0,1,1130,"Include"
"JCM2019_e1","JCM2019_e1_4","Old15",1,32,1,2,1373,"Include"
"JCM2019_e1","JCM2019_e1_4","Old15",1,33,0,6,1080,"Include"
"JCM2019_e1","JCM2019_e1_4","Old15",1,34,0,2,2750,"Include"
"JCM2019_e1","JCM2019_e1_4","Old15",1,35,0,2,2328,"Include"
"JCM2019_e1","JCM2019_e1_4","Old15",1,36,0,2,3003,"Include"
"JCM2019_e1","JCM2019_e1_4","Old15",1,37,0,2,1451,"Include"
"JCM2019_e1","JCM2019_e1_4","Old15",1,38,0,2,829,"Include"
"JCM2019_e1","JCM2019_e1_4","Old15",1,39,0,1,979,"Include"
"JCM2019_e1","JCM2019_e1_4","Old15",1,40,0,1,755,"Include"
"JCM2019_e1","JCM2019_e1_4","Old15",1,41,0,1,1605,"Include"
"JCM2019_e1","JCM2019_e1_4","Old15",1,42,0,1,1438,"Include"
"JCM2019_e1","JCM2019_e1_4","Old15",1,43,1,6,771,"Include"
"JCM2019_e1","JCM2019_e1_4","Old15",1,44,0,1,768,"Include"
"JCM2019_e1","JCM2019_e1_4","Old15",1,45,0,1,1904,"Include"
"JCM2019_e1","JCM2019_e1_4","Old15",1,46,0,1,987,"Include"
"JCM2019_e1","JCM2019_e1_4","Old15",1,47,1,1,2945,"Include"
"JCM2019_e1","JCM2019_e1_4","Old15",1,48,0,2,1385,"Include"
"JCM2019_e1","JCM2019_e1_4","Old15",1,49,0,1,842,"Include"
"JCM2019_e1","JCM2019_e1_4","Old15",1,50,0,6,1352,"Include"
"JCM2019_e1","JCM2019_e1_4","Old15",1,51,1,6,1688,"Include"
"JCM2019_e1","JCM2019_e1_4","Old15",1,52,0,1,1299,"Include"
"JCM2019_e1","JCM2019_e1_4","Old15",1,53,0,2,2692,"Include"
"JCM2019_e1","JCM2019_e1_4","Old15",1,54,0,1,1436,"Include"
"JCM2019_e1","JCM2019_e1_4","Old15",1,55,0,1,949,"Include"
"JCM2019_e1","JCM2019_e1_4","Old15",1,56,0,1,772,"Include"
"JCM2019_e1","JCM2019_e1_4","Old15",1,57,0,6,1620,"Include"
"JCM2019_e1","JCM2019_e1_4","Old15",1,58,0,1,876,"Include"
"JCM2019_e1","JCM2019_e1_4","Old15",1,59,0,1,719,"Include"
"JCM2019_e1","JCM2019_e1_4","Old15",1,60,0,1,816,"Include"
"JCM2019_e1","JCM2019_e1_4","Old15",1,61,0,1,926,"Include"
"JCM2019_e1","JCM2019_e1_4","Old15",1,62,0,1,942,"Include"
"JCM2019_e1","JCM2019_e1_4","Old15",1,63,0,1,807,"Include"
"JCM2019_e1","JCM2019_e1_4","Old15",1,64,0,1,756,"Include"
"JCM2019_e1","JCM2019_e1_4","Old15",1,65,0,1,691,"Include"
"JCM2019_e1","JCM2019_e1_4","Old15",1,66,0,2,775,"Include"
"JCM2019_e1","JCM2019_e1_4","Old15",1,67,0,4,1621,"Include"
"JCM2019_e1","JCM2019_e1_4","Old15",1,68,0,1,2411,"Include"
"JCM2019_e1","JCM2019_e1_4","Old15",1,69,1,6,1056,"Include"
"JCM2019_e1","JCM2019_e1_4","Old15",1,70,0,1,898,"Include"
"JCM2019_e1","JCM2019_e1_4","Old15",1,71,0,1,3227,"Include"
"JCM2019_e1","JCM2019_e1_4","Old15",1,72,0,1,617,"Include"
"JCM2019_e1","JCM2019_e1_4","Old15",1,73,0,1,664,"Include"
"JCM2019_e1","JCM2019_e1_4","Old15",1,74,0,1,1047,"Include"
"JCM2019_e1","JCM2019_e1_4","Old15",1,75,0,1,1071,"Include"
"JCM2019_e1","JCM2019_e1_4","Old15",1,76,0,1,1020,"Include"
"JCM2019_e1","JCM2019_e1_4","Old15",1,77,1,5,989,"Include"
"JCM2019_e1","JCM2019_e1_4","Old15",1,78,0,1,920,"Include"
"JCM2019_e1","JCM2019_e1_4","Old15",1,79,0,1,876,"Include"
"JCM2019_e1","JCM2019_e1_4","Old15",1,80,0,1,673,"Include"
"JCM2019_e1","JCM2019_e1_4","Old15",1,81,0,1,1007,"Include"
"JCM2019_e1","JCM2019_e1_4","Old15",1,82,0,1,814,"Include"
"JCM2019_e1","JCM2019_e1_4","Old15",1,83,1,6,1087,"Include"
"JCM2019_e1","JCM2019_e1_4","Old15",1,84,0,1,849,"Include"
"JCM2019_e1","JCM2019_e1_4","Old15",1,85,0,1,1188,"Include"
"JCM2019_e1","JCM2019_e1_4","Old15",1,86,1,6,1346,"Include"
"JCM2019_e1","JCM2019_e1_4","Old15",1,87,0,1,899,"Include"
"JCM2019_e1","JCM2019_e1_4","Old15",1,88,1,6,1646,"Include"
"JCM2019_e1","JCM2019_e1_4","Old15",1,89,0,1,691,"Include"
"JCM2019_e1","JCM2019_e1_4","Old15",1,90,0,1,718,"Include"
"JCM2019_e1","JCM2019_e1_4","Old15",1,91,0,1,609,"Include"
"JCM2019_e1","JCM2019_e1_4","Old15",1,92,0,1,653,"Include"
"JCM2019_e1","JCM2019_e1_4","Old15",1,93,0,1,786,"Include"
"JCM2019_e1","JCM2019_e1_4","Old15",1,94,1,6,1978,"Include"
"JCM2019_e1","JCM2019_e1_4","Old15",1,95,0,1,913,"Include"
"JCM2019_e1","JCM2019_e1_4","Old15",1,96,1,6,1748,"Include"
"JCM2019_e1","JCM2019_e1_4","Old15",1,97,0,1,810,"Include"
"JCM2019_e1","JCM2019_e1_4","Old15",1,98,0,2,2296,"Include"
"JCM2019_e1","JCM2019_e1_4","Old15",1,99,0,1,1657,"Include"
"JCM2019_e1","JCM2019_e1_4","Old15",1,100,0,1,761,"Include"
"JCM2019_e1","JCM2019_e1_4","Old35",2,1,0,1,904,"Include"
"JCM2019_e1","JCM2019_e1_4","Old35",2,2,1,6,1030,"Include"
"JCM2019_e1","JCM2019_e1_4","Old35",2,3,0,1,1068,"Include"
"JCM2019_e1","JCM2019_e1_4","Old35",2,4,1,6,883,"Include"
"JCM2019_e1","JCM2019_e1_4","Old35",2,5,1,6,832,"Include"
"JCM2019_e1","JCM2019_e1_4","Old35",2,6,1,6,1361,"Include"
"JCM2019_e1","JCM2019_e1_4","Old35",2,7,1,1,875,"Include"
"JCM2019_e1","JCM2019_e1_4","Old35",2,8,0,1,1390,"Include"
"JCM2019_e1","JCM2019_e1_4","Old35",2,9,0,1,746,"Include"
"JCM2019_e1","JCM2019_e1_4","Old35",2,10,1,1,612,"Include"
"JCM2019_e1","JCM2019_e1_4","Old35",2,11,1,6,850,"Include"
"JCM2019_e1","JCM2019_e1_4","Old35",2,12,0,5,3302,"Include"
"JCM2019_e1","JCM2019_e1_4","Old35",2,13,0,2,1760,"Include"
"JCM2019_e1","JCM2019_e1_4","Old35",2,14,0,1,1033,"Include"
"JCM2019_e1","JCM2019_e1_4","Old35",2,15,0,6,2746,"Include"
"JCM2019_e1","JCM2019_e1_4","Old35",2,16,0,1,1323,"Include"
"JCM2019_e1","JCM2019_e1_4","Old35",2,17,0,1,866,"Include"
"JCM2019_e1","JCM2019_e1_4","Old35",2,18,1,6,1024,"Include"
"JCM2019_e1","JCM2019_e1_4","Old35",2,19,1,6,789,"Include"
"JCM2019_e1","JCM2019_e1_4","Old35",2,20,0,1,735,"Include"
"JCM2019_e1","JCM2019_e1_4","Old35",2,21,0,1,1088,"Include"
"JCM2019_e1","JCM2019_e1_4","Old35",2,22,1,6,909,"Include"
"JCM2019_e1","JCM2019_e1_4","Old35",2,23,0,1,785,"Include"
"JCM2019_e1","JCM2019_e1_4","Old35",2,24,0,1,754,"Include"
"JCM2019_e1","JCM2019_e1_4","Old35",2,25,1,6,757,"Include"
"JCM2019_e1","JCM2019_e1_4","Old35",2,26,0,1,750,"Include"
"JCM2019_e1","JCM2019_e1_4","Old35",2,27,0,1,608,"Include"
"JCM2019_e1","JCM2019_e1_4","Old35",2,28,1,6,1488,"Include"
"JCM2019_e1","JCM2019_e1_4","Old35",2,29,0,1,799,"Include"
"JCM2019_e1","JCM2019_e1_4","Old35",2,30,1,6,943,"Include"
"JCM2019_e1","JCM2019_e1_4","Old35",2,31,0,1,1308,"Include"
"JCM2019_e1","JCM2019_e1_4","Old35",2,32,0,1,865,"Include"
"JCM2019_e1","JCM2019_e1_4","Old35",2,33,0,1,688,"Include"
"JCM2019_e1","JCM2019_e1_4","Old35",2,34,0,1,1838,"Include"
"JCM2019_e1","JCM2019_e1_4","Old35",2,35,0,1,799,"Include"
"JCM2019_e1","JCM2019_e1_4","Old35",2,36,1,1,1529,"Include"
"JCM2019_e1","JCM2019_e1_4","Old35",2,37,0,1,796,"Include"
"JCM2019_e1","JCM2019_e1_4","Old35",2,38,1,1,612,"Include"
"JCM2019_e1","JCM2019_e1_4","Old35",2,39,0,3,1072,"Include"
"JCM2019_e1","JCM2019_e1_4","Old35",2,40,0,1,3541,"Include"
"JCM2019_e1","JCM2019_e1_4","Old35",2,41,0,2,740,"Include"
"JCM2019_e1","JCM2019_e1_4","Old35",2,42,1,6,1223,"Include"
"JCM2019_e1","JCM2019_e1_4","Old35",2,43,1,6,616,"Include"
"JCM2019_e1","JCM2019_e1_4","Old35",2,44,1,6,641,"Include"
"JCM2019_e1","JCM2019_e1_4","Old35",2,45,0,1,818,"Include"
"JCM2019_e1","JCM2019_e1_4","Old35",2,46,0,1,721,"Include"
"JCM2019_e1","JCM2019_e1_4","Old35",2,47,1,6,732,"Include"
"JCM2019_e1","JCM2019_e1_4","Old35",2,48,1,6,881,"Include"
"JCM2019_e1","JCM2019_e1_4","Old35",2,49,0,1,1137,"Include"
"JCM2019_e1","JCM2019_e1_4","Old35",2,50,1,6,771,"Include"
"JCM2019_e1","JCM2019_e1_4","Old35",2,51,0,2,2307,"Include"
"JCM2019_e1","JCM2019_e1_4","Old35",2,52,1,6,957,"Include"
"JCM2019_e1","JCM2019_e1_4","Old35",2,53,1,6,648,"Include"
"JCM2019_e1","JCM2019_e1_4","Old35",2,54,0,1,1424,"Include"
"JCM2019_e1","JCM2019_e1_4","Old35",2,55,0,1,1239,"Include"
"JCM2019_e1","JCM2019_e1_4","Old35",2,56,1,6,1020,"Include"
"JCM2019_e1","JCM2019_e1_4","Old35",2,57,1,6,1499,"Include"
"JCM2019_e1","JCM2019_e1_4","Old35",2,58,0,2,1922,"Include"
"JCM2019_e1","JCM2019_e1_4","Old35",2,59,0,1,1107,"Include"
"JCM2019_e1","JCM2019_e1_4","Old35",2,60,0,1,1452,"Include"
"JCM2019_e1","JCM2019_e1_4","Old35",2,61,0,1,1063,"Include"
"JCM2019_e1","JCM2019_e1_4","Old35",2,62,0,6,875,"Include"
"JCM2019_e1","JCM2019_e1_4","Old35",2,63,0,1,1906,"Include"
"JCM2019_e1","JCM2019_e1_4","Old35",2,64,0,1,882,"Include"
"JCM2019_e1","JCM2019_e1_4","Old35",2,65,0,2,1444,"Include"
"JCM2019_e1","JCM2019_e1_4","Old35",2,66,1,6,762,"Include"
"JCM2019_e1","JCM2019_e1_4","Old35",2,67,1,6,845,"Include"
"JCM2019_e1","JCM2019_e1_4","Old35",2,68,0,1,935,"Include"
"JCM2019_e1","JCM2019_e1_4","Old35",2,69,0,1,990,"Include"
"JCM2019_e1","JCM2019_e1_4","Old35",2,70,1,6,787,"Include"
"JCM2019_e1","JCM2019_e1_4","Old35",2,71,0,1,1076,"Include"
"JCM2019_e1","JCM2019_e1_4","Old35",2,72,1,6,857,"Include"
"JCM2019_e1","JCM2019_e1_4","Old35",2,73,0,1,1257,"Include"
"JCM2019_e1","JCM2019_e1_4","Old35",2,74,0,1,918,"Include"
"JCM2019_e1","JCM2019_e1_4","Old35",2,75,0,1,790,"Include"
"JCM2019_e1","JCM2019_e1_4","Old35",2,76,0,1,1151,"Include"
"JCM2019_e1","JCM2019_e1_4","Old35",2,77,0,1,602,"Include"
"JCM2019_e1","JCM2019_e1_4","Old35",2,78,0,1,601,"Include"
