"exp","id","isold","condition1","rating","RT_ON","RT_CONF","excluding","trial"
"JKD2013_e1","JKD2013_e1_1",0,"CueLikelyOld",99,1301.692,3285.827,"Exclude",1
"JKD2013_e1","JKD2013_e1_1",1,"CueLikelyOld",8,1687.394,2287.809,"Include",2
"JKD2013_e1","JKD2013_e1_1",0,"CueLikelyNew",2,2303.327,3191.042,"Include",3
"JKD2013_e1","JKD2013_e1_1",0,"CueLikelyNew",3,1509.954,2589.604,"Include",4
"JKD2013_e1","JKD2013_e1_1",1,"Uncued",8,1052.14,1372.527,"Include",5
"JKD2013_e1","JKD2013_e1_1",1,"CueLikelyOld",8,1317.993,1646.006,"Include",6
"JKD2013_e1","JKD2013_e1_1",1,"CueLikelyNew",8,1047.884,1343.657,"Include",7
"JKD2013_e1","JKD2013_e1_1",0,"CueLikelyNew",1,1767.083,2806.663,"Include",8
"JKD2013_e1","JKD2013_e1_1",0,"CueLikelyNew",1,1504.295,2352.743,"Include",9
"JKD2013_e1","JKD2013_e1_1",1,"CueLikelyOld",8,1446.895,3278.906,"Include",10
"JKD2013_e1","JKD2013_e1_1",1,"CueLikelyOld",8,1275.495,1643.894,"Include",11
"JKD2013_e1","JKD2013_e1_1",0,"CueLikelyNew",99,2621.59,3290.71,"Exclude",12
"JKD2013_e1","JKD2013_e1_1",0,"CueLikelyNew",1,1438.893,2062.678,"Include",13
"JKD2013_e1","JKD2013_e1_1",1,"CueLikelyOld",8,1303.816,1631.506,"Include",14
"JKD2013_e1","JKD2013_e1_1",1,"CueLikelyNew",1,2366.54,3290.991,"Exclude",15
"JKD2013_e1","JKD2013_e1_1",0,"CueLikelyNew",1,1515.517,2275.164,"Include",16
"JKD2013_e1","JKD2013_e1_1",1,"CueLikelyOld",1,2839.709,3284.003,"Exclude",17
"JKD2013_e1","JKD2013_e1_1",0,"CueLikelyNew",2,1496.178,3080.536,"Include",18
"JKD2013_e1","JKD2013_e1_1",0,"CueLikelyOld",2,1540.36,3204.554,"Include",19
"JKD2013_e1","JKD2013_e1_1",1,"CueLikelyOld",8,1656.864,2385.293,"Include",20
"JKD2013_e1","JKD2013_e1_1",1,"CueLikelyNew",1,2957.793,3289.042,"Exclude",21
"JKD2013_e1","JKD2013_e1_1",1,"Uncued",8,1308.529,1644.854,"Include",22
"JKD2013_e1","JKD2013_e1_1",0,"CueLikelyNew",1,1155.328,1474.959,"Include",23
"JKD2013_e1","JKD2013_e1_1",0,"CueLikelyNew",99,3224.664,3283.265,"Exclude",24
"JKD2013_e1","JKD2013_e1_1",0,"CueLikelyNew",4,2114.479,2834.239,"Include",25
"JKD2013_e1","JKD2013_e1_1",0,"Uncued",1,1692.212,2931.776,"Include",26
"JKD2013_e1","JKD2013_e1_1",0,"CueLikelyOld",99,1886.893,3289.069,"Exclude",27
"JKD2013_e1","JKD2013_e1_1",1,"CueLikelyOld",8,1704.66,2673.051,"Include",28
"JKD2013_e1","JKD2013_e1_1",1,"CueLikelyOld",8,1279.235,1791.168,"Include",29
"JKD2013_e1","JKD2013_e1_1",1,"CueLikelyOld",6,1668.327,2308.34,"Include",30
"JKD2013_e1","JKD2013_e1_1",0,"CueLikelyOld",99,2489.418,3298.178,"Exclude",31
"JKD2013_e1","JKD2013_e1_1",1,"CueLikelyNew",8,1659.143,1947.494,"Include",32
"JKD2013_e1","JKD2013_e1_1",1,"CueLikelyOld",7,2356.779,3277.199,"Include",33
"JKD2013_e1","JKD2013_e1_1",0,"CueLikelyNew",1,1790.373,2582.834,"Include",34
"JKD2013_e1","JKD2013_e1_1",0,"CueLikelyOld",2,185.4786,849.5284,"Include",35
"JKD2013_e1","JKD2013_e1_1",1,"CueLikelyOld",8,1087.12,1375.025,"Include",36
"JKD2013_e1","JKD2013_e1_1",0,"CueLikelyNew",99,2877.581,3285.2,"Exclude",37
"JKD2013_e1","JKD2013_e1_1",1,"CueLikelyOld",8,1481.261,1793.214,"Include",38
"JKD2013_e1","JKD2013_e1_1",0,"Uncued",4,2036.126,3260.147,"Include",39
"JKD2013_e1","JKD2013_e1_1",1,"Uncued",8,1701.72,2141.643,"Include",40
"JKD2013_e1","JKD2013_e1_1",0,"CueLikelyNew",2,208.7863,2256.82,"Include",41
"JKD2013_e1","JKD2013_e1_1",0,"CueLikelyNew",3,1377.78,2545.877,"Include",42
"JKD2013_e1","JKD2013_e1_1",0,"CueLikelyNew",2,1344.82,2504.847,"Include",43
"JKD2013_e1","JKD2013_e1_1",1,"CueLikelyNew",8,1838.983,2630.997,"Include",44
"JKD2013_e1","JKD2013_e1_1",0,"CueLikelyNew",2,1711.323,2927.345,"Include",45
"JKD2013_e1","JKD2013_e1_1",0,"Uncued",99,2280.866,3294.674,"Exclude",46
"JKD2013_e1","JKD2013_e1_1",1,"CueLikelyNew",1,2455.114,3283.603,"Exclude",47
"JKD2013_e1","JKD2013_e1_1",0,"CueLikelyNew",1,1232.23,1616.267,"Include",48
"JKD2013_e1","JKD2013_e1_1",1,"CueLikelyOld",5,1601.878,2217.796,"Include",49
"JKD2013_e1","JKD2013_e1_1",1,"Uncued",5,2489.859,3106.3,"Include",50
"JKD2013_e1","JKD2013_e1_1",1,"CueLikelyOld",8,2065.825,2665.931,"Include",51
"JKD2013_e1","JKD2013_e1_1",1,"CueLikelyOld",8,1050.694,1562.794,"Include",52
"JKD2013_e1","JKD2013_e1_1",0,"Uncued",1,1289.27,2001.005,"Include",53
"JKD2013_e1","JKD2013_e1_1",0,"CueLikelyNew",1,751.878,1319.445,"Include",54
"JKD2013_e1","JKD2013_e1_1",1,"CueLikelyNew",8,870.1265,1238.408,"Include",55
"JKD2013_e1","JKD2013_e1_1",0,"CueLikelyNew",4,1257.108,1825.173,"Include",56
"JKD2013_e1","JKD2013_e1_1",0,"Uncued",1,1409.703,2138.121,"Include",57
"JKD2013_e1","JKD2013_e1_1",1,"CueLikelyOld",5,1766.429,2294.034,"Include",58
"JKD2013_e1","JKD2013_e1_1",0,"CueLikelyOld",4,1143.528,1655.596,"Include",59
"JKD2013_e1","JKD2013_e1_1",0,"CueLikelyNew",99,2785.628,3291.464,"Exclude",60
"JKD2013_e1","JKD2013_e1_1",1,"CueLikelyOld",8,1682.834,2122.861,"Include",61
"JKD2013_e1","JKD2013_e1_1",0,"CueLikelyOld",4,1250.667,2170.671,"Include",62
"JKD2013_e1","JKD2013_e1_1",0,"Uncued",99,2737.232,3290.544,"Exclude",63
"JKD2013_e1","JKD2013_e1_1",0,"Uncued",2,2039.366,2951.797,"Include",64
"JKD2013_e1","JKD2013_e1_1",1,"CueLikelyOld",8,1522.506,2114.155,"Include",65
"JKD2013_e1","JKD2013_e1_1",0,"CueLikelyNew",1,1322.981,1955.007,"Include",66
"JKD2013_e1","JKD2013_e1_1",1,"CueLikelyOld",7,1269.287,1973.36,"Include",67
"JKD2013_e1","JKD2013_e1_1",1,"CueLikelyOld",8,1495.44,1902.977,"Include",68
"JKD2013_e1","JKD2013_e1_1",1,"Uncued",8,1043.584,1355.809,"Include",69
"JKD2013_e1","JKD2013_e1_1",1,"CueLikelyOld",7,1335.219,1831.581,"Include",70
"JKD2013_e1","JKD2013_e1_1",0,"CueLikelyOld",2,1173.742,2053.787,"Include",71
"JKD2013_e1","JKD2013_e1_1",0,"CueLikelyNew",4,1694.306,3142.4,"Include",72
"JKD2013_e1","JKD2013_e1_1",1,"CueLikelyOld",7,1177.99,1785.852,"Include",73
"JKD2013_e1","JKD2013_e1_1",0,"CueLikelyNew",2,1312.862,1832.545,"Include",74
"JKD2013_e1","JKD2013_e1_1",0,"CueLikelyNew",2,1667.476,2211.394,"Include",75
"JKD2013_e1","JKD2013_e1_1",1,"CueLikelyOld",7,1404.487,2788.549,"Include",76
"JKD2013_e1","JKD2013_e1_1",1,"CueLikelyNew",8,1186.78,2034.813,"Include",77
"JKD2013_e1","JKD2013_e1_1",1,"CueLikelyOld",8,1748.087,2588.016,"Include",78
"JKD2013_e1","JKD2013_e1_1",0,"CueLikelyNew",1,947.7297,1355.744,"Include",79
"JKD2013_e1","JKD2013_e1_1",1,"CueLikelyOld",7,1010.033,2089.916,"Include",80
"JKD2013_e1","JKD2013_e1_1",1,"Uncued",1,2272.687,3284.746,"Exclude",81
"JKD2013_e1","JKD2013_e1_1",0,"CueLikelyNew",3,1474.727,2442.606,"Include",82
"JKD2013_e1","JKD2013_e1_1",1,"Uncued",7,1715.994,2636.008,"Include",83
"JKD2013_e1","JKD2013_e1_1",1,"CueLikelyOld",8,960.5592,1248.168,"Include",84
"JKD2013_e1","JKD2013_e1_1",1,"CueLikelyOld",7,1284.504,1676.687,"Include",85
"JKD2013_e1","JKD2013_e1_1",1,"CueLikelyNew",7,1339.559,1891.567,"Include",86
"JKD2013_e1","JKD2013_e1_1",0,"CueLikelyNew",2,2611.532,2867.392,"Include",87
"JKD2013_e1","JKD2013_e1_1",0,"CueLikelyNew",3,1109.234,2221.062,"Include",88
"JKD2013_e1","JKD2013_e1_1",0,"Uncued",1,1620.216,2163.825,"Include",89
"JKD2013_e1","JKD2013_e1_1",1,"CueLikelyOld",6,1593.278,2689.261,"Include",90
"JKD2013_e1","JKD2013_e1_1",1,"CueLikelyOld",1,1964.714,3285.876,"Exclude",91
"JKD2013_e1","JKD2013_e1_1",1,"Uncued",8,1996.786,2444.243,"Include",92
"JKD2013_e1","JKD2013_e1_1",0,"Uncued",2,1925.417,3101.072,"Include",93
"JKD2013_e1","JKD2013_e1_1",1,"CueLikelyOld",8,1115.63,2292.154,"Include",94
"JKD2013_e1","JKD2013_e1_1",0,"CueLikelyOld",99,1706.5,3290.456,"Exclude",95
"JKD2013_e1","JKD2013_e1_1",1,"Uncued",8,1349.978,2054.059,"Include",96
"JKD2013_e1","JKD2013_e1_1",1,"CueLikelyNew",7,1580.533,2260.874,"Include",97
"JKD2013_e1","JKD2013_e1_1",0,"CueLikelyOld",3,1354.917,2563.419,"Include",98
"JKD2013_e1","JKD2013_e1_1",0,"CueLikelyNew",1,2110.736,2790.686,"Include",99
"JKD2013_e1","JKD2013_e1_1",0,"CueLikelyNew",99,2472.629,3287.414,"Exclude",100
"JKD2013_e1","JKD2013_e1_1",1,"CueLikelyOld",8,1922.255,2370.398,"Include",101
"JKD2013_e1","JKD2013_e1_1",0,"Uncued",99,2603.741,3290.249,"Exclude",102
"JKD2013_e1","JKD2013_e1_1",1,"CueLikelyNew",8,2528.77,3025.188,"Include",103
"JKD2013_e1","JKD2013_e1_1",1,"CueLikelyOld",8,2071.667,2567.68,"Include",104
"JKD2013_e1","JKD2013_e1_1",1,"CueLikelyOld",8,1149.766,1693.958,"Include",105
"JKD2013_e1","JKD2013_e1_1",1,"CueLikelyOld",6,1603.521,2572.011,"Include",106
"JKD2013_e1","JKD2013_e1_1",0,"CueLikelyNew",2,1138.734,1930.907,"Include",107
"JKD2013_e1","JKD2013_e1_1",0,"Uncued",2,1799.627,2879.643,"Include",108
"JKD2013_e1","JKD2013_e1_1",1,"CueLikelyOld",7,2137.326,3089.256,"Include",109
"JKD2013_e1","JKD2013_e1_1",0,"Uncued",3,1259.503,2876.023,"Include",110
"JKD2013_e1","JKD2013_e1_1",0,"CueLikelyNew",4,2082.084,2762.348,"Include",111
"JKD2013_e1","JKD2013_e1_1",1,"CueLikelyOld",5,1456.948,2056.798,"Include",112
"JKD2013_e1","JKD2013_e1_1",0,"Uncued",1,1348.117,2076.751,"Include",113
"JKD2013_e1","JKD2013_e1_1",1,"Uncued",8,1233.262,1697.604,"Include",114
"JKD2013_e1","JKD2013_e1_1",0,"CueLikelyNew",1,2512.629,2816.953,"Include",115
"JKD2013_e1","JKD2013_e1_1",0,"CueLikelyNew",3,1402.139,2106.215,"Include",116
"JKD2013_e1","JKD2013_e1_1",1,"CueLikelyNew",8,1483.383,2267.794,"Include",117
"JKD2013_e1","JKD2013_e1_1",0,"Uncued",4,1698.12,2442.203,"Include",118
"JKD2013_e1","JKD2013_e1_1",1,"CueLikelyOld",5,1995.794,2708.214,"Include",119
"JKD2013_e1","JKD2013_e1_1",0,"CueLikelyNew",3,1858.611,3075.005,"Include",120
"JKD2013_e1","JKD2013_e1_1",1,"CueLikelyOld",6,1697.441,2833.577,"Include",121
"JKD2013_e1","JKD2013_e1_1",1,"CueLikelyOld",1,3051.202,3284.832,"Exclude",122
"JKD2013_e1","JKD2013_e1_1",0,"CueLikelyNew",1,1212.631,2653.147,"Include",123
"JKD2013_e1","JKD2013_e1_1",1,"CueLikelyOld",5,1779.225,2595.286,"Include",124
"JKD2013_e1","JKD2013_e1_1",0,"CueLikelyNew",1,1239.9,1871.771,"Include",125
"JKD2013_e1","JKD2013_e1_1",0,"CueLikelyNew",3,1492.743,2780.82,"Include",126
"JKD2013_e1","JKD2013_e1_1",0,"Uncued",2,1507.959,2412.009,"Include",127
"JKD2013_e1","JKD2013_e1_1",1,"CueLikelyNew",5,1319.823,1887.908,"Include",128
"JKD2013_e1","JKD2013_e1_1",0,"CueLikelyNew",1,1004.004,1572.077,"Include",129
"JKD2013_e1","JKD2013_e1_1",1,"Uncued",6,1407.14,2791.297,"Include",130
"JKD2013_e1","JKD2013_e1_1",1,"CueLikelyOld",8,1040.828,1473.201,"Include",131
"JKD2013_e1","JKD2013_e1_1",0,"CueLikelyOld",1,1172.277,2156.355,"Include",132
"JKD2013_e1","JKD2013_e1_1",0,"CueLikelyOld",1,1266.668,1874.177,"Include",133
"JKD2013_e1","JKD2013_e1_1",1,"CueLikelyOld",8,1176.69,1897.264,"Include",134
"JKD2013_e1","JKD2013_e1_1",1,"Uncued",8,1111.211,1727.399,"Include",135
"JKD2013_e1","JKD2013_e1_1",1,"Uncued",1,1478.643,3284.614,"Exclude",136
"JKD2013_e1","JKD2013_e1_1",1,"Uncued",1,2704.265,3286.008,"Exclude",137
"JKD2013_e1","JKD2013_e1_1",1,"CueLikelyNew",8,1441.996,1721.883,"Include",138
"JKD2013_e1","JKD2013_e1_1",0,"CueLikelyNew",1,1091.381,1675.355,"Include",139
"JKD2013_e1","JKD2013_e1_1",1,"CueLikelyOld",8,1083.979,1700.027,"Include",140
"JKD2013_e1","JKD2013_e1_1",0,"Uncued",2,1280.609,1913.108,"Include",141
"JKD2013_e1","JKD2013_e1_1",0,"Uncued",1,1567.154,2207.126,"Include",142
"JKD2013_e1","JKD2013_e1_1",1,"CueLikelyNew",8,1509.823,2157.628,"Include",143
"JKD2013_e1","JKD2013_e1_1",1,"CueLikelyOld",1,2266.771,3286.642,"Exclude",144
"JKD2013_e1","JKD2013_e1_1",1,"CueLikelyOld",7,1133.325,2781.042,"Include",145
"JKD2013_e1","JKD2013_e1_1",1,"CueLikelyNew",8,140.9408,1492.739,"Include",146
"JKD2013_e1","JKD2013_e1_1",1,"CueLikelyOld",5,2166.081,2878.288,"Include",147
"JKD2013_e1","JKD2013_e1_1",1,"CueLikelyOld",8,2373.825,3046.041,"Include",148
"JKD2013_e1","JKD2013_e1_1",0,"CueLikelyNew",99,2820.225,3294.57,"Exclude",149
"JKD2013_e1","JKD2013_e1_1",0,"CueLikelyNew",4,1938.38,2498.163,"Include",150
"JKD2013_e1","JKD2013_e1_1",0,"CueLikelyNew",2,1485.694,2661.273,"Include",151
"JKD2013_e1","JKD2013_e1_1",1,"CueLikelyOld",7,1982.271,2950.281,"Include",152
"JKD2013_e1","JKD2013_e1_1",0,"CueLikelyNew",2,1054.947,2063.136,"Include",153
"JKD2013_e1","JKD2013_e1_1",1,"CueLikelyOld",8,1077.876,2205.885,"Include",154
"JKD2013_e1","JKD2013_e1_1",1,"CueLikelyOld",8,1332.02,1668.047,"Include",155
"JKD2013_e1","JKD2013_e1_1",0,"CueLikelyNew",4,1587.017,2083.378,"Include",156
"JKD2013_e1","JKD2013_e1_1",0,"CueLikelyNew",3,1940.632,2444.798,"Include",157
"JKD2013_e1","JKD2013_e1_1",0,"CueLikelyNew",2,1438.54,2326.103,"Include",158
"JKD2013_e1","JKD2013_e1_1",1,"CueLikelyOld",6,1548.672,2557.025,"Include",159
"JKD2013_e1","JKD2013_e1_1",1,"CueLikelyOld",5,2142.719,2990.695,"Include",160
"JKD2013_e1","JKD2013_e1_1",0,"CueLikelyNew",3,2527.14,3255.169,"Include",161
"JKD2013_e1","JKD2013_e1_1",0,"CueLikelyNew",4,1477.719,1989.402,"Include",162
"JKD2013_e1","JKD2013_e1_1",0,"CueLikelyOld",4,1339.891,2883.95,"Include",163
"JKD2013_e1","JKD2013_e1_1",1,"CueLikelyOld",8,1237.675,1965.852,"Include",164
"JKD2013_e1","JKD2013_e1_1",0,"CueLikelyNew",1,1610.409,2506.502,"Include",165
"JKD2013_e1","JKD2013_e1_1",0,"CueLikelyOld",1,1060.22,1819.98,"Include",166
"JKD2013_e1","JKD2013_e1_1",0,"CueLikelyNew",1,1078.656,1855.044,"Include",167
"JKD2013_e1","JKD2013_e1_1",1,"CueLikelyOld",8,1493.253,2029.291,"Include",168
"JKD2013_e1","JKD2013_e1_1",0,"CueLikelyOld",1,1887.443,2911.884,"Include",169
"JKD2013_e1","JKD2013_e1_1",0,"Uncued",1,1241.675,1905.702,"Include",170
"JKD2013_e1","JKD2013_e1_1",0,"Uncued",99,2483.43,3287.597,"Exclude",171
"JKD2013_e1","JKD2013_e1_1",1,"CueLikelyOld",6,334.4847,1990.83,"Include",172
"JKD2013_e1","JKD2013_e1_1",1,"CueLikelyOld",8,1440.044,2215.996,"Include",173
"JKD2013_e1","JKD2013_e1_1",1,"CueLikelyOld",5,1926.995,2374.828,"Include",174
"JKD2013_e1","JKD2013_e1_1",0,"Uncued",4,1165.014,1661.045,"Include",175
"JKD2013_e1","JKD2013_e1_1",0,"CueLikelyNew",4,1043.654,2451.647,"Include",176
"JKD2013_e1","JKD2013_e1_1",0,"CueLikelyOld",1,1712.253,2472.591,"Include",177
"JKD2013_e1","JKD2013_e1_1",1,"CueLikelyNew",6,1289.082,2577.164,"Include",178
"JKD2013_e1","JKD2013_e1_1",0,"CueLikelyOld",1,1098.683,2787.346,"Include",179
"JKD2013_e1","JKD2013_e1_1",0,"CueLikelyNew",99,3164.438,3286.881,"Exclude",180
"JKD2013_e1","JKD2013_e1_1",0,"CueLikelyNew",3,1095.946,1631.565,"Include",181
"JKD2013_e1","JKD2013_e1_1",0,"CueLikelyNew",99,2727.949,3289.85,"Exclude",182
"JKD2013_e1","JKD2013_e1_1",0,"CueLikelyNew",2,1925.081,2613.272,"Include",183
"JKD2013_e1","JKD2013_e1_1",1,"Uncued",6,1659.852,3267.837,"Include",184
"JKD2013_e1","JKD2013_e1_1",0,"CueLikelyNew",3,2203.718,2891.725,"Include",185
"JKD2013_e1","JKD2013_e1_1",1,"CueLikelyOld",1,2229.805,3286.064,"Exclude",186
"JKD2013_e1","JKD2013_e1_1",0,"CueLikelyNew",99,2334.851,3287.357,"Exclude",187
"JKD2013_e1","JKD2013_e1_1",0,"CueLikelyNew",4,1688.413,2712.552,"Include",188
"JKD2013_e1","JKD2013_e1_1",1,"Uncued",6,2143.828,3120.215,"Include",189
"JKD2013_e1","JKD2013_e1_1",0,"CueLikelyOld",1,1686.286,2998.276,"Include",190
"JKD2013_e1","JKD2013_e1_1",1,"CueLikelyOld",8,1174.292,1862.37,"Include",191
"JKD2013_e1","JKD2013_e1_1",1,"CueLikelyOld",7,1063.467,1983.465,"Include",192
"JKD2013_e1","JKD2013_e1_1",0,"CueLikelyOld",1,1302.878,2102.922,"Include",193
"JKD2013_e1","JKD2013_e1_1",0,"CueLikelyNew",1,1068.986,1813.184,"Include",194
"JKD2013_e1","JKD2013_e1_1",0,"CueLikelyNew",99,2755.557,3290.846,"Exclude",195
"JKD2013_e1","JKD2013_e1_1",0,"CueLikelyNew",4,1333.142,1797.195,"Include",196
"JKD2013_e1","JKD2013_e1_1",1,"Uncued",8,1855.157,2231.48,"Include",197
"JKD2013_e1","JKD2013_e1_1",0,"CueLikelyNew",2,1205.645,2582.058,"Include",198
"JKD2013_e1","JKD2013_e1_1",0,"Uncued",1,2037.22,2557.165,"Include",199
"JKD2013_e1","JKD2013_e1_1",1,"CueLikelyOld",1,1647.848,3293.726,"Exclude",200
"JKD2013_e1","JKD2013_e1_1",0,"CueLikelyOld",3,1366.158,2502.703,"Include",201
"JKD2013_e1","JKD2013_e1_1",1,"CueLikelyOld",8,1373.353,2116.822,"Include",202
"JKD2013_e1","JKD2013_e1_1",1,"CueLikelyOld",8,2179.659,2683.657,"Include",203
"JKD2013_e1","JKD2013_e1_1",1,"CueLikelyOld",6,1678.136,2494.179,"Include",204
"JKD2013_e1","JKD2013_e1_1",0,"CueLikelyNew",4,1775.737,2903.701,"Include",205
"JKD2013_e1","JKD2013_e1_1",0,"CueLikelyOld",99,3142.973,3284.022,"Exclude",206
"JKD2013_e1","JKD2013_e1_1",1,"CueLikelyOld",8,1396.922,1972.945,"Include",207
"JKD2013_e1","JKD2013_e1_1",0,"CueLikelyNew",2,1167.811,1919.801,"Include",208
"JKD2013_e1","JKD2013_e1_1",0,"CueLikelyNew",99,3036.706,3288.647,"Exclude",209
"JKD2013_e1","JKD2013_e1_1",1,"CueLikelyOld",6,1219.64,2011.591,"Include",210
"JKD2013_e1","JKD2013_e1_1",1,"Uncued",5,1250.142,2186.143,"Include",211
"JKD2013_e1","JKD2013_e1_1",1,"CueLikelyNew",8,1272.554,2001.064,"Include",212
"JKD2013_e1","JKD2013_e1_1",1,"CueLikelyOld",8,1746.328,2154.669,"Include",213
"JKD2013_e1","JKD2013_e1_1",0,"CueLikelyOld",1,1173.485,2318.021,"Include",214
"JKD2013_e1","JKD2013_e1_1",0,"CueLikelyNew",1,1857.103,2176.774,"Include",215
"JKD2013_e1","JKD2013_e1_1",0,"CueLikelyOld",4,1983.829,2383.521,"Include",216
"JKD2013_e1","JKD2013_e1_1",1,"CueLikelyOld",5,2182.413,2598.09,"Include",217
"JKD2013_e1","JKD2013_e1_1",0,"CueLikelyOld",3,1300.634,2748.557,"Include",218
"JKD2013_e1","JKD2013_e1_1",1,"CueLikelyOld",1,2137.129,3298.531,"Exclude",219
"JKD2013_e1","JKD2013_e1_1",1,"CueLikelyOld",7,2574.85,3030.521,"Include",220
"JKD2013_e1","JKD2013_e1_1",1,"Uncued",5,1936.107,2288.176,"Include",221
"JKD2013_e1","JKD2013_e1_1",0,"CueLikelyOld",1,976.8423,1761.232,"Include",222
"JKD2013_e1","JKD2013_e1_1",1,"CueLikelyOld",8,1455.745,1895.738,"Include",223
"JKD2013_e1","JKD2013_e1_1",1,"CueLikelyOld",1,1917.911,3286.383,"Exclude",224
"JKD2013_e1","JKD2013_e1_1",1,"Uncued",5,2040.446,2448.095,"Include",225
"JKD2013_e1","JKD2013_e1_1",0,"CueLikelyOld",1,1017.763,1561.506,"Include",226
"JKD2013_e1","JKD2013_e1_1",0,"CueLikelyOld",4,2101.724,2957.618,"Include",227
"JKD2013_e1","JKD2013_e1_1",1,"CueLikelyOld",6,1199.317,2079.449,"Include",228
"JKD2013_e1","JKD2013_e1_1",0,"Uncued",1,1009.277,1417.366,"Include",229
"JKD2013_e1","JKD2013_e1_1",0,"CueLikelyNew",1,1823.278,2447.317,"Include",230
"JKD2013_e1","JKD2013_e1_1",1,"CueLikelyOld",6,1221.788,2462.035,"Include",231
"JKD2013_e1","JKD2013_e1_1",1,"CueLikelyOld",7,1161.648,1617.394,"Include",232
"JKD2013_e1","JKD2013_e1_1",1,"CueLikelyOld",6,1791.879,2695.957,"Include",233
"JKD2013_e1","JKD2013_e1_1",1,"CueLikelyOld",5,2046.762,2598.827,"Include",234
"JKD2013_e1","JKD2013_e1_1",0,"Uncued",99,2208.733,3285.891,"Exclude",235
"JKD2013_e1","JKD2013_e1_1",1,"CueLikelyOld",5,1217.853,1841.956,"Include",236
"JKD2013_e1","JKD2013_e1_1",1,"CueLikelyNew",5,1369.96,2314.265,"Include",237
"JKD2013_e1","JKD2013_e1_1",1,"CueLikelyOld",5,1880.189,2895.817,"Include",238
"JKD2013_e1","JKD2013_e1_1",0,"Uncued",4,1216.006,2375.731,"Include",239
"JKD2013_e1","JKD2013_e1_1",1,"Uncued",8,106.5038,2321.771,"Include",240
"JKD2013_e1","JKD2013_e1_1",0,"CueLikelyNew",1,1294.007,2502.519,"Include",241
"JKD2013_e1","JKD2013_e1_1",1,"CueLikelyOld",5,1494.192,2790.137,"Include",242
"JKD2013_e1","JKD2013_e1_1",1,"CueLikelyOld",6,1557.388,2645.458,"Include",243
"JKD2013_e1","JKD2013_e1_1",1,"CueLikelyOld",1,1722.248,3291.501,"Exclude",244
"JKD2013_e1","JKD2013_e1_1",1,"CueLikelyNew",7,1000.885,1504.922,"Include",245
"JKD2013_e1","JKD2013_e1_1",1,"CueLikelyNew",8,1141.979,1750.048,"Include",246
"JKD2013_e1","JKD2013_e1_1",0,"Uncued",99,1444.933,3284.968,"Exclude",247
"JKD2013_e1","JKD2013_e1_1",0,"CueLikelyNew",1,875.1797,1235.219,"Include",248
"JKD2013_e1","JKD2013_e1_1",0,"CueLikelyNew",2,1148.971,2164.834,"Include",249
"JKD2013_e1","JKD2013_e1_1",1,"CueLikelyNew",7,1070.251,2046.738,"Include",250
"JKD2013_e1","JKD2013_e1_1",0,"CueLikelyNew",4,2048.368,2591.866,"Include",251
"JKD2013_e1","JKD2013_e1_1",0,"CueLikelyNew",3,2009.929,3113.625,"Include",252
"JKD2013_e1","JKD2013_e1_1",0,"CueLikelyNew",1,1445.864,2654.404,"Include",253
"JKD2013_e1","JKD2013_e1_1",0,"CueLikelyNew",99,2034.936,3297.331,"Exclude",254
"JKD2013_e1","JKD2013_e1_1",1,"CueLikelyNew",7,1159.297,1495.598,"Include",255
"JKD2013_e1","JKD2013_e1_1",1,"CueLikelyOld",5,1255.525,2839.212,"Include",256
"JKD2013_e1","JKD2013_e1_1",1,"CueLikelyNew",5,1676.223,2492.575,"Include",257
"JKD2013_e1","JKD2013_e1_1",1,"CueLikelyOld",8,1486.998,2599.113,"Include",258
"JKD2013_e1","JKD2013_e1_1",0,"CueLikelyNew",1,696.3041,1592.649,"Include",259
"JKD2013_e1","JKD2013_e1_1",1,"CueLikelyOld",8,1058.251,1618.284,"Include",260
"JKD2013_e1","JKD2013_e1_1",0,"CueLikelyNew",1,963.428,1507.742,"Include",261
"JKD2013_e1","JKD2013_e1_1",1,"CueLikelyNew",5,1539.519,2339.502,"Include",262
"JKD2013_e1","JKD2013_e1_1",0,"CueLikelyOld",1,1801.008,2616.592,"Include",263
"JKD2013_e1","JKD2013_e1_1",1,"CueLikelyOld",1,1929.922,3293.327,"Exclude",264
"JKD2013_e1","JKD2013_e1_1",0,"CueLikelyNew",1,1619.451,2523.493,"Include",265
"JKD2013_e1","JKD2013_e1_1",1,"CueLikelyOld",8,1044.063,1788.2,"Include",266
"JKD2013_e1","JKD2013_e1_1",0,"CueLikelyNew",4,2065.249,3201.199,"Include",267
"JKD2013_e1","JKD2013_e1_1",1,"Uncued",6,1899.184,3243.289,"Include",268
"JKD2013_e1","JKD2013_e1_1",0,"CueLikelyNew",4,1059.395,1995.298,"Include",269
"JKD2013_e1","JKD2013_e1_1",0,"CueLikelyNew",1,1065.083,1665.224,"Include",270
"JKD2013_e1","JKD2013_e1_1",1,"CueLikelyOld",8,931.2991,2746.961,"Include",271
"JKD2013_e1","JKD2013_e1_1",0,"Uncued",1,1052.437,1476.739,"Include",272
"JKD2013_e1","JKD2013_e1_1",1,"Uncued",1,1540.289,3293.141,"Exclude",273
"JKD2013_e1","JKD2013_e1_1",1,"Uncued",8,1260.13,1596.154,"Include",274
"JKD2013_e1","JKD2013_e1_1",0,"Uncued",3,1599.052,2231.071,"Include",275
"JKD2013_e1","JKD2013_e1_1",1,"CueLikelyOld",1,2080.995,3288.674,"Exclude",276
"JKD2013_e1","JKD2013_e1_1",0,"CueLikelyOld",2,1145.525,2329.083,"Include",277
"JKD2013_e1","JKD2013_e1_1",0,"CueLikelyOld",3,1207.551,2703.969,"Include",278
"JKD2013_e1","JKD2013_e1_1",1,"CueLikelyOld",7,1470.354,2310.148,"Include",279
"JKD2013_e1","JKD2013_e1_1",0,"CueLikelyNew",1,1220.638,2036.882,"Include",280
"JKD2013_e1","JKD2013_e1_1",0,"CueLikelyNew",1,1362.037,2042.442,"Include",281
"JKD2013_e1","JKD2013_e1_1",1,"CueLikelyOld",8,1292.845,2052.576,"Include",282
"JKD2013_e1","JKD2013_e1_1",1,"CueLikelyNew",7,1118.213,3118.47,"Include",283
"JKD2013_e1","JKD2013_e1_1",0,"CueLikelyNew",2,1448.933,2400.963,"Include",284
"JKD2013_e1","JKD2013_e1_1",0,"CueLikelyNew",99,2391.429,3285.385,"Exclude",285
"JKD2013_e1","JKD2013_e1_1",1,"CueLikelyOld",8,1152.221,1679.779,"Include",286
"JKD2013_e1","JKD2013_e1_1",0,"CueLikelyNew",2,1769.325,2833.311,"Include",287
"JKD2013_e1","JKD2013_e1_1",1,"CueLikelyOld",7,1593.872,2449.681,"Include",288
"JKD2013_e1","JKD2013_e1_1",1,"CueLikelyOld",8,1960.407,2904.079,"Include",289
"JKD2013_e1","JKD2013_e1_1",0,"CueLikelyNew",3,1176.958,2673.072,"Include",290
"JKD2013_e1","JKD2013_e1_1",0,"CueLikelyOld",1,1410.626,2514.683,"Include",291
"JKD2013_e1","JKD2013_e1_1",0,"CueLikelyNew",4,1138.165,2074.131,"Include",292
"JKD2013_e1","JKD2013_e1_1",0,"Uncued",99,2711.502,3291.118,"Exclude",293
"JKD2013_e1","JKD2013_e1_1",0,"CueLikelyNew",4,1432.701,2352.729,"Include",294
"JKD2013_e1","JKD2013_e1_1",1,"Uncued",5,1986.32,2610.696,"Include",295
"JKD2013_e1","JKD2013_e1_1",0,"CueLikelyNew",4,1682.916,2459.129,"Include",296
"JKD2013_e1","JKD2013_e1_1",1,"CueLikelyNew",7,1096.414,2704.376,"Include",297
"JKD2013_e1","JKD2013_e1_1",0,"CueLikelyNew",1,1031.99,1672.223,"Include",298
"JKD2013_e1","JKD2013_e1_1",1,"CueLikelyNew",1,1425.629,3284.673,"Exclude",299
"JKD2013_e1","JKD2013_e1_1",1,"CueLikelyOld",1,2464.136,3290.399,"Exclude",300
"JKD2013_e1","JKD2013_e1_1",1,"CueLikelyOld",5,1201.664,2193.87,"Include",301
"JKD2013_e1","JKD2013_e1_1",1,"CueLikelyOld",5,1235.135,1747.26,"Include",302
"JKD2013_e1","JKD2013_e1_1",0,"CueLikelyNew",99,2346.787,3292.468,"Exclude",303
"JKD2013_e1","JKD2013_e1_1",1,"Uncued",7,1382.68,2270.289,"Include",304
"JKD2013_e1","JKD2013_e1_1",1,"Uncued",6,1210.766,2218.646,"Include",305
"JKD2013_e1","JKD2013_e1_1",1,"CueLikelyOld",8,1333.777,1717.805,"Include",306
"JKD2013_e1","JKD2013_e1_1",1,"CueLikelyOld",8,1281.246,1609.351,"Include",307
"JKD2013_e1","JKD2013_e1_1",1,"Uncued",8,1108.105,1468.089,"Include",308
"JKD2013_e1","JKD2013_e1_1",0,"Uncued",2,1674.631,2803.046,"Include",309
"JKD2013_e1","JKD2013_e1_1",0,"Uncued",2,1433.143,2065.14,"Include",310
"JKD2013_e1","JKD2013_e1_1",1,"Uncued",8,1183.58,1456.056,"Include",311
"JKD2013_e1","JKD2013_e1_1",1,"CueLikelyOld",6,1748.752,2660.803,"Include",312
"JKD2013_e1","JKD2013_e1_1",1,"CueLikelyOld",8,1333.471,2421.219,"Include",313
"JKD2013_e1","JKD2013_e1_1",0,"CueLikelyOld",2,2072.367,2424.282,"Include",314
"JKD2013_e1","JKD2013_e1_1",0,"Uncued",2,1657.93,2089.898,"Include",315
"JKD2013_e1","JKD2013_e1_1",1,"CueLikelyOld",8,1516.024,1771.545,"Include",316
"JKD2013_e1","JKD2013_e1_1",1,"CueLikelyOld",8,771.8403,1011.814,"Include",317
"JKD2013_e1","JKD2013_e1_1",1,"CueLikelyOld",5,1336.992,2081.359,"Include",318
"JKD2013_e1","JKD2013_e1_1",1,"CueLikelyOld",8,1622.081,1974.182,"Include",319
"JKD2013_e1","JKD2013_e1_1",1,"CueLikelyOld",7,2487.945,2992.057,"Include",320
"JKD2013_e1","JKD2013_e1_1",1,"CueLikelyOld",8,1137.238,1977.666,"Include",321
"JKD2013_e1","JKD2013_e1_1",0,"CueLikelyNew",3,1507.278,2443.185,"Include",322
"JKD2013_e1","JKD2013_e1_1",0,"CueLikelyNew",1,1084.854,1492.429,"Include",323
"JKD2013_e1","JKD2013_e1_1",1,"CueLikelyNew",8,1090.272,1930.366,"Include",324
"JKD2013_e1","JKD2013_e1_1",0,"CueLikelyOld",1,1240.777,1705.15,"Include",325
"JKD2013_e1","JKD2013_e1_1",1,"CueLikelyOld",7,2683.174,2931.335,"Include",326
"JKD2013_e1","JKD2013_e1_1",0,"CueLikelyOld",1,1252.334,1988.815,"Include",327
"JKD2013_e1","JKD2013_e1_1",0,"CueLikelyNew",1,883.2455,1291.427,"Include",328
"JKD2013_e1","JKD2013_e1_1",0,"CueLikelyNew",1,962.2103,1626.462,"Include",329
"JKD2013_e1","JKD2013_e1_1",1,"Uncued",8,1036.24,1491.976,"Include",330
"JKD2013_e1","JKD2013_e1_1",1,"Uncued",5,1442.202,2530.257,"Include",331
"JKD2013_e1","JKD2013_e1_1",1,"CueLikelyOld",5,1434.27,1946.626,"Include",332
"JKD2013_e1","JKD2013_e1_1",1,"CueLikelyOld",5,1931.866,2420.188,"Include",333
"JKD2013_e1","JKD2013_e1_1",1,"CueLikelyOld",8,1229.827,2133.492,"Include",334
"JKD2013_e1","JKD2013_e1_1",1,"CueLikelyOld",8,1948.71,2588.278,"Include",335
"JKD2013_e1","JKD2013_e1_1",0,"CueLikelyNew",4,1921.638,2921.863,"Include",336
"JKD2013_e1","JKD2013_e1_1",0,"CueLikelyOld",1,1403.101,1739.286,"Include",337
"JKD2013_e1","JKD2013_e1_1",0,"CueLikelyOld",1,1108.699,1788.644,"Include",338
"JKD2013_e1","JKD2013_e1_1",0,"CueLikelyNew",99,2421.394,3286.211,"Exclude",339
"JKD2013_e1","JKD2013_e1_1",0,"Uncued",99,2115.609,3284.554,"Exclude",340
"JKD2013_e1","JKD2013_e1_1",1,"Uncued",8,1237.149,1645.191,"Include",341
"JKD2013_e1","JKD2013_e1_1",1,"CueLikelyNew",6,1894.017,2661.698,"Include",342
"JKD2013_e1","JKD2013_e1_1",1,"Uncued",5,1356.217,2372.254,"Include",343
"JKD2013_e1","JKD2013_e1_1",1,"CueLikelyOld",5,1010.887,1538.686,"Include",344
"JKD2013_e1","JKD2013_e1_1",0,"CueLikelyOld",4,673.2431,1097.555,"Include",345
"JKD2013_e1","JKD2013_e1_1",0,"CueLikelyNew",1,1052.075,1732.372,"Include",346
"JKD2013_e1","JKD2013_e1_1",1,"CueLikelyOld",8,1005.69,1605.745,"Include",347
"JKD2013_e1","JKD2013_e1_1",0,"CueLikelyNew",4,1324.17,2916.564,"Include",348
"JKD2013_e1","JKD2013_e1_1",0,"CueLikelyNew",1,1381.78,2469.804,"Include",349
"JKD2013_e1","JKD2013_e1_1",0,"CueLikelyNew",3,1213.432,2149.47,"Include",350
"JKD2013_e1","JKD2013_e1_1",0,"CueLikelyNew",3,798.1637,1702.191,"Include",351
"JKD2013_e1","JKD2013_e1_1",0,"Uncued",3,824.7096,1928.703,"Include",352
"JKD2013_e1","JKD2013_e1_1",1,"CueLikelyNew",5,1058.067,2250.12,"Include",353
"JKD2013_e1","JKD2013_e1_1",1,"CueLikelyNew",8,1398.703,2567.134,"Include",354
"JKD2013_e1","JKD2013_e1_1",0,"Uncued",1,1117.684,2213.387,"Include",355
"JKD2013_e1","JKD2013_e1_1",0,"CueLikelyNew",2,2148.143,2468.327,"Include",356
"JKD2013_e1","JKD2013_e1_1",1,"CueLikelyNew",7,770.7024,1602.554,"Include",357
"JKD2013_e1","JKD2013_e1_1",0,"CueLikelyNew",1,1136.95,1473.327,"Include",358
"JKD2013_e1","JKD2013_e1_1",1,"CueLikelyOld",6,2302.783,3278.734,"Include",359
"JKD2013_e1","JKD2013_e1_1",1,"CueLikelyNew",7,1689.656,2761.283,"Include",360
"JKD2013_e1","JKD2013_e1_1",1,"CueLikelyNew",8,1410.849,2395.341,"Include",361
"JKD2013_e1","JKD2013_e1_1",0,"Uncued",2,2868.399,3244.506,"Include",362
"JKD2013_e1","JKD2013_e1_1",1,"CueLikelyOld",8,1309.891,1614.138,"Include",363
"JKD2013_e1","JKD2013_e1_1",0,"CueLikelyOld",4,1942.696,2366.702,"Include",364
"JKD2013_e1","JKD2013_e1_1",0,"Uncued",99,2245.301,3288.276,"Exclude",365
"JKD2013_e1","JKD2013_e1_1",0,"CueLikelyNew",1,1067.752,1427.687,"Include",366
"JKD2013_e1","JKD2013_e1_1",0,"Uncued",1,1078.001,2118.35,"Include",367
"JKD2013_e1","JKD2013_e1_1",0,"CueLikelyNew",1,1767.764,2535.834,"Include",368
"JKD2013_e1","JKD2013_e1_1",1,"CueLikelyOld",6,1226.102,2618.157,"Include",369
"JKD2013_e1","JKD2013_e1_1",1,"CueLikelyOld",8,2387.854,3027.869,"Include",370
"JKD2013_e1","JKD2013_e1_1",0,"Uncued",2,1405.416,2525.777,"Include",371
"JKD2013_e1","JKD2013_e1_1",0,"CueLikelyNew",2,838.5401,1702.614,"Include",372
"JKD2013_e1","JKD2013_e1_1",1,"CueLikelyNew",1,2613.452,3294.31,"Exclude",373
"JKD2013_e1","JKD2013_e1_1",0,"CueLikelyOld",99,2167.526,3295.846,"Exclude",374
"JKD2013_e1","JKD2013_e1_1",1,"CueLikelyOld",8,1853.757,2790.164,"Include",375
"JKD2013_e1","JKD2013_e1_1",1,"CueLikelyOld",8,963.1582,1411.125,"Include",376
"JKD2013_e1","JKD2013_e1_1",0,"CueLikelyNew",1,812.8958,1429.083,"Include",377
"JKD2013_e1","JKD2013_e1_2",1,"CueLikelyOld",7,1130.488,1730.71,"Include",1
"JKD2013_e1","JKD2013_e1_2",1,"CueLikelyOld",7,1300.071,2188.498,"Include",2
"JKD2013_e1","JKD2013_e1_2",0,"CueLikelyNew",1,1403.907,1931.829,"Include",3
"JKD2013_e1","JKD2013_e1_2",0,"CueLikelyOld",3,1562.619,2666.491,"Include",4
"JKD2013_e1","JKD2013_e1_2",0,"Uncued",2,1352.919,2184.861,"Include",5
"JKD2013_e1","JKD2013_e1_2",0,"CueLikelyNew",1,901.9322,1422.445,"Include",6
"JKD2013_e1","JKD2013_e1_2",1,"CueLikelyOld",7,1069.3,1893.152,"Include",7
"JKD2013_e1","JKD2013_e1_2",1,"CueLikelyOld",8,719.0523,1278.605,"Include",8
"JKD2013_e1","JKD2013_e1_2",0,"CueLikelyNew",1,832.1901,1432.232,"Include",9
"JKD2013_e1","JKD2013_e1_2",1,"CueLikelyOld",6,1930.236,2418.182,"Include",10
"JKD2013_e1","JKD2013_e1_2",1,"CueLikelyOld",8,709.0259,1269.26,"Include",11
"JKD2013_e1","JKD2013_e1_2",1,"CueLikelyOld",8,771.9227,1443.732,"Include",12
"JKD2013_e1","JKD2013_e1_2",0,"Uncued",2,1434.577,1890.68,"Include",13
"JKD2013_e1","JKD2013_e1_2",1,"CueLikelyOld",8,937.2158,1521.191,"Include",14
"JKD2013_e1","JKD2013_e1_2",0,"CueLikelyOld",2,1223.369,1911.615,"Include",15
"JKD2013_e1","JKD2013_e1_2",1,"CueLikelyOld",7,1525.039,2181.459,"Include",16
"JKD2013_e1","JKD2013_e1_2",1,"Uncued",8,844.5797,1444.641,"Include",17
"JKD2013_e1","JKD2013_e1_2",1,"CueLikelyNew",6,1423.963,2111.498,"Include",18
"JKD2013_e1","JKD2013_e1_2",0,"Uncued",3,1961.247,2633.603,"Include",19
"JKD2013_e1","JKD2013_e1_2",0,"CueLikelyNew",1,1130.741,1587.14,"Include",20
"JKD2013_e1","JKD2013_e1_2",1,"CueLikelyOld",6,2181.556,2693.372,"Include",21
"JKD2013_e1","JKD2013_e1_2",0,"CueLikelyOld",3,1298.434,1738.112,"Include",22
"JKD2013_e1","JKD2013_e1_2",1,"CueLikelyOld",7,848.7333,1960.643,"Include",23
"JKD2013_e1","JKD2013_e1_2",0,"CueLikelyOld",1,1140.379,1876.542,"Include",24
"JKD2013_e1","JKD2013_e1_2",0,"CueLikelyNew",1,1197.761,1742.032,"Include",25
"JKD2013_e1","JKD2013_e1_2",0,"Uncued",3,1068.637,1636.649,"Include",26
"JKD2013_e1","JKD2013_e1_2",1,"CueLikelyOld",7,1200.884,1888.508,"Include",27
"JKD2013_e1","JKD2013_e1_2",0,"CueLikelyOld",3,1266.476,1818.017,"Include",28
"JKD2013_e1","JKD2013_e1_2",1,"CueLikelyNew",6,1525.739,2021.302,"Include",29
"JKD2013_e1","JKD2013_e1_2",1,"Uncued",8,1077.289,1653.353,"Include",30
"JKD2013_e1","JKD2013_e1_2",1,"Uncued",7,1259.86,1859.47,"Include",31
"JKD2013_e1","JKD2013_e1_2",0,"CueLikelyOld",3,1691.751,2171.67,"Include",32
"JKD2013_e1","JKD2013_e1_2",1,"CueLikelyNew",8,2797.816,3085.788,"Include",33
"JKD2013_e1","JKD2013_e1_2",1,"CueLikelyOld",8,941.6267,1437.621,"Include",34
"JKD2013_e1","JKD2013_e1_2",0,"CueLikelyOld",3,1148.39,1772.113,"Include",35
"JKD2013_e1","JKD2013_e1_2",1,"CueLikelyOld",7,803.2219,1459.055,"Include",36
"JKD2013_e1","JKD2013_e1_2",0,"CueLikelyNew",1,709.0594,1285.026,"Include",37
"JKD2013_e1","JKD2013_e1_2",0,"CueLikelyNew",1,774.5915,1334.547,"Include",38
"JKD2013_e1","JKD2013_e1_2",0,"CueLikelyNew",1,925.2411,1500.844,"Include",39
"JKD2013_e1","JKD2013_e1_2",1,"CueLikelyOld",8,803.4728,1339.31,"Include",40
"JKD2013_e1","JKD2013_e1_2",0,"CueLikelyNew",1,1187.05,1579.09,"Include",41
"JKD2013_e1","JKD2013_e1_2",1,"Uncued",7,1196.666,1724.564,"Include",42
"JKD2013_e1","JKD2013_e1_2",0,"Uncued",2,950.7566,1718.311,"Include",43
"JKD2013_e1","JKD2013_e1_2",0,"CueLikelyNew",1,877.4763,1357.384,"Include",44
"JKD2013_e1","JKD2013_e1_2",0,"CueLikelyOld",3,1274.444,1882.565,"Include",45
"JKD2013_e1","JKD2013_e1_2",1,"CueLikelyNew",6,739.7982,1875.969,"Include",46
"JKD2013_e1","JKD2013_e1_2",0,"CueLikelyNew",1,1005.953,1422.061,"Include",47
"JKD2013_e1","JKD2013_e1_2",1,"Uncued",8,904.8337,1440.748,"Include",48
"JKD2013_e1","JKD2013_e1_2",0,"CueLikelyNew",1,882.6787,1322.831,"Include",49
"JKD2013_e1","JKD2013_e1_2",0,"CueLikelyNew",1,942.0172,1461.64,"Include",50
"JKD2013_e1","JKD2013_e1_2",1,"CueLikelyOld",8,1150.75,1615.136,"Include",51
"JKD2013_e1","JKD2013_e1_2",0,"CueLikelyNew",1,749.348,1269.669,"Include",52
"JKD2013_e1","JKD2013_e1_2",1,"CueLikelyOld",6,1129.279,1800.842,"Include",53
"JKD2013_e1","JKD2013_e1_2",0,"Uncued",3,1294.561,2086.568,"Include",54
"JKD2013_e1","JKD2013_e1_2",0,"CueLikelyNew",2,1080.057,1848.047,"Include",55
"JKD2013_e1","JKD2013_e1_2",1,"CueLikelyOld",7,930.1076,1538.139,"Include",56
"JKD2013_e1","JKD2013_e1_2",1,"CueLikelyOld",8,1219.364,1627.377,"Include",57
"JKD2013_e1","JKD2013_e1_2",1,"Uncued",7,1661.345,2421.013,"Include",58
"JKD2013_e1","JKD2013_e1_2",0,"CueLikelyOld",3,1302.79,1910.595,"Include",59
"JKD2013_e1","JKD2013_e1_2",0,"CueLikelyNew",2,1262.985,2110.592,"Include",60
"JKD2013_e1","JKD2013_e1_2",0,"CueLikelyNew",1,867.6432,1315.738,"Include",61
"JKD2013_e1","JKD2013_e1_2",1,"CueLikelyOld",6,1714.635,2162.528,"Include",62
"JKD2013_e1","JKD2013_e1_2",0,"Uncued",1,912.768,1600.708,"Include",63
"JKD2013_e1","JKD2013_e1_2",1,"CueLikelyOld",8,959.9161,1439.479,"Include",64
"JKD2013_e1","JKD2013_e1_2",0,"CueLikelyNew",1,1225.121,1953.045,"Include",65
"JKD2013_e1","JKD2013_e1_2",1,"CueLikelyOld",8,860.7214,1332.379,"Include",66
"JKD2013_e1","JKD2013_e1_2",0,"CueLikelyNew",2,1151.733,1759.989,"Include",67
"JKD2013_e1","JKD2013_e1_2",0,"Uncued",3,1470.504,2046.499,"Include",68
"JKD2013_e1","JKD2013_e1_2",1,"CueLikelyNew",6,777.9911,1698.069,"Include",69
"JKD2013_e1","JKD2013_e1_2",1,"CueLikelyOld",7,1087.467,1727.537,"Include",70
"JKD2013_e1","JKD2013_e1_2",1,"CueLikelyOld",6,1359.551,1783.154,"Include",71
"JKD2013_e1","JKD2013_e1_2",0,"CueLikelyOld",2,1187.632,1939.673,"Include",72
"JKD2013_e1","JKD2013_e1_2",1,"CueLikelyOld",8,749.2223,1165.283,"Include",73
"JKD2013_e1","JKD2013_e1_2",0,"CueLikelyNew",2,870.8635,1407.201,"Include",74
"JKD2013_e1","JKD2013_e1_2",1,"CueLikelyOld",7,1119.846,1599.739,"Include",75
"JKD2013_e1","JKD2013_e1_2",1,"Uncued",6,1374.592,1798.641,"Include",76
"JKD2013_e1","JKD2013_e1_2",1,"CueLikelyNew",7,924.7284,1508.884,"Include",77
"JKD2013_e1","JKD2013_e1_2",1,"Uncued",6,883.4746,1379.925,"Include",78
"JKD2013_e1","JKD2013_e1_2",0,"CueLikelyNew",1,1014.836,1703.292,"Include",79
"JKD2013_e1","JKD2013_e1_2",0,"CueLikelyNew",1,720.2988,1248.836,"Include",80
"JKD2013_e1","JKD2013_e1_2",0,"CueLikelyOld",99,1663.399,3295.115,"Exclude",81
"JKD2013_e1","JKD2013_e1_2",1,"Uncued",7,925.6023,1581.538,"Include",82
"JKD2013_e1","JKD2013_e1_2",0,"CueLikelyNew",1,1140.581,1532.563,"Include",83
"JKD2013_e1","JKD2013_e1_2",1,"CueLikelyOld",7,902.4801,1374.194,"Include",84
"JKD2013_e1","JKD2013_e1_2",1,"CueLikelyNew",6,640.2297,1679.82,"Include",85
"JKD2013_e1","JKD2013_e1_2",1,"CueLikelyOld",8,879.7992,1287.991,"Include",86
"JKD2013_e1","JKD2013_e1_2",1,"CueLikelyNew",7,942.5405,1694.178,"Include",87
"JKD2013_e1","JKD2013_e1_2",1,"CueLikelyNew",7,1172.621,1660.663,"Include",88
"JKD2013_e1","JKD2013_e1_2",0,"CueLikelyNew",2,895.7837,1423.875,"Include",89
"JKD2013_e1","JKD2013_e1_2",0,"CueLikelyNew",1,936.3374,1320.574,"Include",90
"JKD2013_e1","JKD2013_e1_2",1,"Uncued",7,1030.819,1510.865,"Include",91
"JKD2013_e1","JKD2013_e1_2",0,"CueLikelyNew",1,845.4661,1237.42,"Include",92
"JKD2013_e1","JKD2013_e1_2",1,"Uncued",7,888.7392,1392.746,"Include",93
"JKD2013_e1","JKD2013_e1_2",0,"CueLikelyNew",1,711.9198,1111.516,"Include",94
"JKD2013_e1","JKD2013_e1_2",1,"CueLikelyOld",1,1411.887,3289.228,"Exclude",95
"JKD2013_e1","JKD2013_e1_2",0,"CueLikelyNew",2,973.5201,1605.583,"Include",96
"JKD2013_e1","JKD2013_e1_2",0,"CueLikelyNew",1,1167.108,1503.529,"Include",97
"JKD2013_e1","JKD2013_e1_2",1,"CueLikelyOld",8,889.0085,1305.261,"Include",98
"JKD2013_e1","JKD2013_e1_2",1,"CueLikelyOld",7,1056.135,1600.597,"Include",99
"JKD2013_e1","JKD2013_e1_2",0,"CueLikelyNew",3,1711.01,2030.984,"Include",100
"JKD2013_e1","JKD2013_e1_2",0,"CueLikelyNew",1,1189.624,1573.234,"Include",101
"JKD2013_e1","JKD2013_e1_2",0,"CueLikelyOld",3,1563.761,2019.845,"Include",102
"JKD2013_e1","JKD2013_e1_2",0,"CueLikelyNew",1,2008.232,2416.537,"Include",103
"JKD2013_e1","JKD2013_e1_2",1,"CueLikelyNew",8,1273.363,1736.922,"Include",104
"JKD2013_e1","JKD2013_e1_2",0,"CueLikelyNew",1,1147.662,1883.372,"Include",105
"JKD2013_e1","JKD2013_e1_2",1,"Uncued",8,813.3221,1309.28,"Include",106
"JKD2013_e1","JKD2013_e1_2",1,"CueLikelyOld",6,1206.549,1838.911,"Include",107
"JKD2013_e1","JKD2013_e1_2",0,"CueLikelyNew",2,1161.752,1601.524,"Include",108
"JKD2013_e1","JKD2013_e1_2",1,"CueLikelyNew",8,1176.44,1888.45,"Include",109
"JKD2013_e1","JKD2013_e1_2",0,"CueLikelyNew",2,982.6123,1454.665,"Include",110
"JKD2013_e1","JKD2013_e1_2",1,"CueLikelyOld",8,717.6144,1213.53,"Include",111
"JKD2013_e1","JKD2013_e1_2",1,"CueLikelyOld",6,1195.704,1571.903,"Include",112
"JKD2013_e1","JKD2013_e1_2",0,"Uncued",1,1089.018,1625.398,"Include",113
"JKD2013_e1","JKD2013_e1_2",0,"Uncued",3,1034.524,1562.582,"Include",114
"JKD2013_e1","JKD2013_e1_2",0,"Uncued",3,1204.076,1780.292,"Include",115
"JKD2013_e1","JKD2013_e1_2",0,"Uncued",3,918.2661,2158.01,"Include",116
"JKD2013_e1","JKD2013_e1_2",1,"CueLikelyOld",7,905.5704,1505.794,"Include",117
"JKD2013_e1","JKD2013_e1_2",1,"CueLikelyOld",7,1120.31,1752.3,"Include",118
"JKD2013_e1","JKD2013_e1_2",0,"CueLikelyNew",2,741.4082,1333.249,"Include",119
"JKD2013_e1","JKD2013_e1_2",1,"CueLikelyNew",8,970.0127,1594.084,"Include",120
"JKD2013_e1","JKD2013_e1_2",1,"CueLikelyNew",8,748.2172,1188.132,"Include",121
"JKD2013_e1","JKD2013_e1_2",0,"CueLikelyNew",1,680.4798,1080.431,"Include",122
"JKD2013_e1","JKD2013_e1_2",1,"CueLikelyOld",8,728.953,1137.157,"Include",123
"JKD2013_e1","JKD2013_e1_2",1,"Uncued",6,1271.726,1823.691,"Include",124
"JKD2013_e1","JKD2013_e1_2",0,"Uncued",1,1054.436,1494.513,"Include",125
"JKD2013_e1","JKD2013_e1_2",1,"CueLikelyOld",8,752.0528,1232.133,"Include",126
"JKD2013_e1","JKD2013_e1_2",0,"CueLikelyNew",3,953.2938,1713.77,"Include",127
"JKD2013_e1","JKD2013_e1_2",1,"Uncued",7,1248.066,1751.974,"Include",128
"JKD2013_e1","JKD2013_e1_2",0,"CueLikelyNew",1,1374.501,1902.973,"Include",129
"JKD2013_e1","JKD2013_e1_2",0,"Uncued",3,1341.457,1789.344,"Include",130
"JKD2013_e1","JKD2013_e1_2",1,"CueLikelyOld",8,792.1666,1239.752,"Include",131
"JKD2013_e1","JKD2013_e1_2",1,"CueLikelyOld",8,817.4237,1249.345,"Include",132
"JKD2013_e1","JKD2013_e1_2",1,"CueLikelyOld",8,1008.741,1385.092,"Include",133
"JKD2013_e1","JKD2013_e1_2",0,"CueLikelyNew",1,1063.192,1463.206,"Include",134
"JKD2013_e1","JKD2013_e1_2",1,"CueLikelyOld",8,815.1086,1239.102,"Include",135
"JKD2013_e1","JKD2013_e1_2",1,"CueLikelyOld",7,1224.663,1744.958,"Include",136
"JKD2013_e1","JKD2013_e1_2",1,"Uncued",7,1055.963,1880.241,"Include",137
"JKD2013_e1","JKD2013_e1_2",1,"Uncued",7,1037.803,1549.54,"Include",138
"JKD2013_e1","JKD2013_e1_2",0,"CueLikelyNew",1,815.5067,1183.446,"Include",139
"JKD2013_e1","JKD2013_e1_2",0,"CueLikelyNew",3,1705.071,2001.017,"Include",140
"JKD2013_e1","JKD2013_e1_2",1,"CueLikelyNew",6,968.9902,1496.582,"Include",141
"JKD2013_e1","JKD2013_e1_2",0,"CueLikelyNew",1,887.1158,1343.182,"Include",142
"JKD2013_e1","JKD2013_e1_2",0,"CueLikelyOld",2,1581.658,1957.801,"Include",143
"JKD2013_e1","JKD2013_e1_2",1,"CueLikelyNew",6,1577.809,1914.037,"Include",144
"JKD2013_e1","JKD2013_e1_2",0,"CueLikelyNew",2,892.8646,1364.87,"Include",145
"JKD2013_e1","JKD2013_e1_2",1,"CueLikelyNew",8,1158.449,1718.472,"Include",146
"JKD2013_e1","JKD2013_e1_2",1,"CueLikelyOld",8,792.1015,1248.097,"Include",147
"JKD2013_e1","JKD2013_e1_2",0,"CueLikelyOld",2,1345.648,1834.042,"Include",148
"JKD2013_e1","JKD2013_e1_2",1,"CueLikelyOld",6,1336.413,1888.4,"Include",149
"JKD2013_e1","JKD2013_e1_2",1,"Uncued",6,1255.153,1742.994,"Include",150
"JKD2013_e1","JKD2013_e1_2",0,"CueLikelyNew",1,909.4927,1413.516,"Include",151
"JKD2013_e1","JKD2013_e1_2",1,"CueLikelyOld",6,1002.866,1498.819,"Include",152
"JKD2013_e1","JKD2013_e1_2",0,"CueLikelyNew",1,1276.525,1636.205,"Include",153
"JKD2013_e1","JKD2013_e1_2",0,"Uncued",1,1574.274,1997.804,"Include",154
"JKD2013_e1","JKD2013_e1_2",0,"CueLikelyNew",3,999.4097,1415.753,"Include",155
"JKD2013_e1","JKD2013_e1_2",0,"Uncued",3,1113.957,1570.095,"Include",156
"JKD2013_e1","JKD2013_e1_2",0,"CueLikelyNew",3,1390.795,1686.795,"Include",157
"JKD2013_e1","JKD2013_e1_2",1,"CueLikelyOld",7,1317.279,1733.72,"Include",158
"JKD2013_e1","JKD2013_e1_2",0,"CueLikelyNew",2,876.1745,1339.936,"Include",159
"JKD2013_e1","JKD2013_e1_2",1,"CueLikelyNew",6,1067.559,1819.53,"Include",160
"JKD2013_e1","JKD2013_e1_2",1,"CueLikelyOld",8,885.5846,1285.47,"Include",161
"JKD2013_e1","JKD2013_e1_2",0,"CueLikelyOld",3,1126.839,1766.816,"Include",162
"JKD2013_e1","JKD2013_e1_2",1,"CueLikelyOld",6,1040.348,1880.408,"Include",163
"JKD2013_e1","JKD2013_e1_2",0,"Uncued",1,1065.985,2002.365,"Include",164
"JKD2013_e1","JKD2013_e1_2",0,"Uncued",3,1715.29,2115.093,"Include",165
"JKD2013_e1","JKD2013_e1_2",1,"CueLikelyOld",8,928.1168,1312.064,"Include",166
"JKD2013_e1","JKD2013_e1_2",1,"CueLikelyOld",8,806.612,1294.677,"Include",167
"JKD2013_e1","JKD2013_e1_2",1,"Uncued",7,1077.543,1693.152,"Include",168
"JKD2013_e1","JKD2013_e1_2",0,"Uncued",2,1171.639,1788.014,"Include",169
"JKD2013_e1","JKD2013_e1_2",0,"CueLikelyOld",1,726.0948,1150.45,"Include",170
"JKD2013_e1","JKD2013_e1_2",1,"CueLikelyNew",8,735.6714,1207.933,"Include",171
"JKD2013_e1","JKD2013_e1_2",0,"CueLikelyNew",1,953.5712,1393.289,"Include",172
"JKD2013_e1","JKD2013_e1_2",0,"CueLikelyNew",1,835.2746,1250.872,"Include",173
"JKD2013_e1","JKD2013_e1_2",0,"CueLikelyNew",2,1011.091,1402.97,"Include",174
"JKD2013_e1","JKD2013_e1_2",1,"Uncued",8,1441.886,1985.519,"Include",175
"JKD2013_e1","JKD2013_e1_2",1,"CueLikelyOld",7,935.9799,1551.938,"Include",176
"JKD2013_e1","JKD2013_e1_2",0,"CueLikelyOld",3,1148.042,1532.043,"Include",177
"JKD2013_e1","JKD2013_e1_2",0,"CueLikelyNew",1,970.1501,1322.092,"Include",178
"JKD2013_e1","JKD2013_e1_2",0,"CueLikelyOld",3,1127.397,1871.108,"Include",179
"JKD2013_e1","JKD2013_e1_2",0,"CueLikelyNew",1,872.4743,1321.04,"Include",180
"JKD2013_e1","JKD2013_e1_2",1,"CueLikelyOld",6,1602.272,1866.247,"Include",181
"JKD2013_e1","JKD2013_e1_2",0,"CueLikelyOld",3,1339.897,1812.319,"Include",182
"JKD2013_e1","JKD2013_e1_2",0,"CueLikelyOld",3,1026.718,1955.196,"Include",183
"JKD2013_e1","JKD2013_e1_2",1,"CueLikelyOld",8,929.7581,1329.644,"Include",184
"JKD2013_e1","JKD2013_e1_2",0,"CueLikelyNew",2,1040.635,1712.707,"Include",185
"JKD2013_e1","JKD2013_e1_2",1,"Uncued",8,754.4355,1242.732,"Include",186
"JKD2013_e1","JKD2013_e1_2",0,"CueLikelyOld",3,1012.16,1596.153,"Include",187
"JKD2013_e1","JKD2013_e1_2",0,"Uncued",2,1411.471,1915.416,"Include",188
"JKD2013_e1","JKD2013_e1_2",1,"CueLikelyOld",8,1001.894,1521.601,"Include",189
"JKD2013_e1","JKD2013_e1_2",0,"CueLikelyNew",2,1027.56,1547.05,"Include",190
"JKD2013_e1","JKD2013_e1_2",1,"CueLikelyOld",8,724.5236,1204.522,"Include",191
"JKD2013_e1","JKD2013_e1_2",1,"CueLikelyNew",6,1314.699,1682.717,"Include",192
"JKD2013_e1","JKD2013_e1_2",0,"CueLikelyNew",3,936.0025,1488.396,"Include",193
"JKD2013_e1","JKD2013_e1_2",0,"CueLikelyNew",4,1177.545,2273.889,"Include",194
"JKD2013_e1","JKD2013_e1_2",1,"CueLikelyOld",8,1347.278,1763.284,"Include",195
"JKD2013_e1","JKD2013_e1_2",0,"Uncued",3,1587.796,2179.595,"Include",196
"JKD2013_e1","JKD2013_e1_2",1,"Uncued",6,1241.867,1874.234,"Include",197
"JKD2013_e1","JKD2013_e1_2",1,"CueLikelyOld",6,1024.364,1608.371,"Include",198
"JKD2013_e1","JKD2013_e1_2",1,"CueLikelyOld",6,1186.58,1730.57,"Include",199
"JKD2013_e1","JKD2013_e1_2",0,"CueLikelyNew",2,1348.189,2076.091,"Include",200
"JKD2013_e1","JKD2013_e1_2",0,"CueLikelyNew",2,1036.33,1603.948,"Include",201
"JKD2013_e1","JKD2013_e1_2",1,"CueLikelyOld",6,1183.29,1599.37,"Include",202
"JKD2013_e1","JKD2013_e1_2",0,"CueLikelyNew",1,1256.98,1921.356,"Include",203
"JKD2013_e1","JKD2013_e1_2",1,"CueLikelyNew",8,1202.568,1730.978,"Include",204
"JKD2013_e1","JKD2013_e1_2",0,"CueLikelyNew",1,1020.151,1532.148,"Include",205
"JKD2013_e1","JKD2013_e1_2",1,"CueLikelyNew",8,875.2992,1371.168,"Include",206
"JKD2013_e1","JKD2013_e1_2",1,"CueLikelyNew",6,1281.659,1938.152,"Include",207
"JKD2013_e1","JKD2013_e1_2",0,"CueLikelyNew",2,1079.236,1798.746,"Include",208
"JKD2013_e1","JKD2013_e1_2",1,"CueLikelyOld",7,1133.355,1965.131,"Include",209
"JKD2013_e1","JKD2013_e1_2",0,"CueLikelyOld",3,1312.348,1768.344,"Include",210
"JKD2013_e1","JKD2013_e1_2",0,"CueLikelyNew",2,1403.365,2315.498,"Include",211
"JKD2013_e1","JKD2013_e1_2",1,"Uncued",8,893.5186,1317.107,"Include",212
"JKD2013_e1","JKD2013_e1_2",0,"CueLikelyOld",3,867.2155,1531.335,"Include",213
"JKD2013_e1","JKD2013_e1_2",0,"Uncued",2,1177.492,2017.641,"Include",214
"JKD2013_e1","JKD2013_e1_2",0,"CueLikelyNew",3,912.6015,1536.154,"Include",215
"JKD2013_e1","JKD2013_e1_2",0,"CueLikelyNew",3,1206.663,1806.692,"Include",216
"JKD2013_e1","JKD2013_e1_2",0,"Uncued",1,902.4678,1278.244,"Include",217
"JKD2013_e1","JKD2013_e1_2",1,"Uncued",6,783.7032,1783.51,"Include",218
"JKD2013_e1","JKD2013_e1_2",0,"Uncued",3,1273.574,1969.537,"Include",219
"JKD2013_e1","JKD2013_e1_2",0,"CueLikelyNew",1,1034.809,1394.863,"Include",220
"JKD2013_e1","JKD2013_e1_2",0,"CueLikelyNew",1,908.8691,1556.856,"Include",221
"JKD2013_e1","JKD2013_e1_2",1,"CueLikelyOld",8,869.8647,1349.782,"Include",222
"JKD2013_e1","JKD2013_e1_2",1,"CueLikelyOld",7,1002.863,1818.937,"Include",223
"JKD2013_e1","JKD2013_e1_2",1,"CueLikelyNew",8,980.4875,1412.462,"Include",224
"JKD2013_e1","JKD2013_e1_2",0,"CueLikelyNew",1,766.1194,1158.154,"Include",225
"JKD2013_e1","JKD2013_e1_2",1,"CueLikelyOld",8,941.4283,1388.971,"Include",226
"JKD2013_e1","JKD2013_e1_2",1,"CueLikelyNew",6,1544.57,1856.97,"Include",227
"JKD2013_e1","JKD2013_e1_2",0,"CueLikelyNew",1,1002.526,1346.181,"Include",228
"JKD2013_e1","JKD2013_e1_2",1,"CueLikelyOld",6,963.8191,1435.741,"Include",229
"JKD2013_e1","JKD2013_e1_2",1,"CueLikelyOld",7,748.6583,1396.564,"Include",230
"JKD2013_e1","JKD2013_e1_2",1,"CueLikelyOld",6,1450.762,1915.031,"Include",231
"JKD2013_e1","JKD2013_e1_2",1,"CueLikelyOld",8,724.1987,1203.812,"Include",232
"JKD2013_e1","JKD2013_e1_2",0,"CueLikelyNew",1,949.6908,1453.5,"Include",233
"JKD2013_e1","JKD2013_e1_2",0,"CueLikelyNew",3,1150.691,1550.342,"Include",234
"JKD2013_e1","JKD2013_e1_2",0,"CueLikelyOld",1,1452.998,1988.853,"Include",235
"JKD2013_e1","JKD2013_e1_2",1,"CueLikelyOld",7,843.4913,1867.844,"Include",236
"JKD2013_e1","JKD2013_e1_2",1,"CueLikelyOld",8,788.8458,1148.747,"Include",237
"JKD2013_e1","JKD2013_e1_2",1,"CueLikelyOld",6,1222.396,1646.367,"Include",238
"JKD2013_e1","JKD2013_e1_2",1,"Uncued",8,613.4777,1029.876,"Include",239
"JKD2013_e1","JKD2013_e1_2",1,"CueLikelyOld",8,692.3852,1140.075,"Include",240
"JKD2013_e1","JKD2013_e1_2",1,"CueLikelyNew",6,1266.175,1762.178,"Include",241
"JKD2013_e1","JKD2013_e1_2",0,"CueLikelyOld",1,1403.692,1859.846,"Include",242
"JKD2013_e1","JKD2013_e1_2",0,"Uncued",1,989.4484,1405.45,"Include",243
"JKD2013_e1","JKD2013_e1_2",0,"CueLikelyNew",99,1381.953,3293.154,"Exclude",244
"JKD2013_e1","JKD2013_e1_2",1,"CueLikelyOld",8,890.944,1298.786,"Include",245
"JKD2013_e1","JKD2013_e1_2",1,"Uncued",8,961.6057,1425.675,"Include",246
"JKD2013_e1","JKD2013_e1_2",1,"CueLikelyOld",8,868.7395,1220.599,"Include",247
"JKD2013_e1","JKD2013_e1_2",0,"Uncued",3,1544.308,2087.983,"Include",248
"JKD2013_e1","JKD2013_e1_2",0,"CueLikelyNew",1,1545.757,1769.537,"Include",249
"JKD2013_e1","JKD2013_e1_2",1,"Uncued",5,1573.096,2476.715,"Include",250
"JKD2013_e1","JKD2013_e1_2",1,"CueLikelyOld",6,1549.557,2141.882,"Include",251
"JKD2013_e1","JKD2013_e1_2",1,"Uncued",8,716.0522,1092.16,"Include",252
"JKD2013_e1","JKD2013_e1_2",0,"Uncued",3,1202.689,1850.922,"Include",253
"JKD2013_e1","JKD2013_e1_2",1,"CueLikelyOld",7,1057.439,1497.459,"Include",254
"JKD2013_e1","JKD2013_e1_2",0,"Uncued",1,1727.576,2087.777,"Include",255
"JKD2013_e1","JKD2013_e1_2",1,"CueLikelyNew",8,1127.54,1575.635,"Include",256
"JKD2013_e1","JKD2013_e1_2",1,"CueLikelyOld",7,1090.772,1530.524,"Include",257
"JKD2013_e1","JKD2013_e1_2",1,"CueLikelyOld",8,764.1848,1148.501,"Include",258
"JKD2013_e1","JKD2013_e1_2",0,"CueLikelyOld",3,1365.939,1886.088,"Include",259
"JKD2013_e1","JKD2013_e1_2",0,"CueLikelyOld",1,966.7961,1343.285,"Include",260
"JKD2013_e1","JKD2013_e1_2",0,"CueLikelyNew",2,877.4786,1325.809,"Include",261
"JKD2013_e1","JKD2013_e1_2",1,"CueLikelyOld",8,754.4953,1154.864,"Include",262
"JKD2013_e1","JKD2013_e1_2",0,"Uncued",3,1137.04,2161.438,"Include",263
"JKD2013_e1","JKD2013_e1_2",1,"Uncued",8,671.6605,1071.579,"Include",264
"JKD2013_e1","JKD2013_e1_2",0,"CueLikelyNew",3,1360.555,1872.435,"Include",265
"JKD2013_e1","JKD2013_e1_2",1,"Uncued",7,1345.808,1937.686,"Include",266
"JKD2013_e1","JKD2013_e1_2",1,"CueLikelyOld",6,1739.819,2043.488,"Include",267
"JKD2013_e1","JKD2013_e1_2",0,"CueLikelyNew",2,1277.279,1821.055,"Include",268
"JKD2013_e1","JKD2013_e1_2",0,"CueLikelyNew",1,1038.615,1446.655,"Include",269
"JKD2013_e1","JKD2013_e1_2",0,"CueLikelyOld",2,1117.649,2181.272,"Include",270
"JKD2013_e1","JKD2013_e1_2",1,"CueLikelyNew",8,923.8557,1500.205,"Include",271
"JKD2013_e1","JKD2013_e1_2",0,"Uncued",3,1562.321,2074.4,"Include",272
"JKD2013_e1","JKD2013_e1_2",0,"CueLikelyNew",2,1054.575,1919.099,"Include",273
"JKD2013_e1","JKD2013_e1_2",0,"CueLikelyNew",1,1343.458,1743.827,"Include",274
"JKD2013_e1","JKD2013_e1_2",0,"Uncued",3,997.9137,1718.358,"Include",275
"JKD2013_e1","JKD2013_e1_2",1,"CueLikelyOld",6,1046.35,1589.911,"Include",276
"JKD2013_e1","JKD2013_e1_2",0,"CueLikelyNew",3,1023.921,1919.536,"Include",277
"JKD2013_e1","JKD2013_e1_2",1,"CueLikelyOld",6,1166.962,1694.621,"Include",278
"JKD2013_e1","JKD2013_e1_2",1,"CueLikelyOld",8,843.7458,1331.746,"Include",279
"JKD2013_e1","JKD2013_e1_2",0,"CueLikelyNew",1,1030.289,1414.325,"Include",280
"JKD2013_e1","JKD2013_e1_2",0,"CueLikelyNew",3,903.7182,1447.797,"Include",281
"JKD2013_e1","JKD2013_e1_2",1,"CueLikelyOld",6,863.669,1359.328,"Include",282
"JKD2013_e1","JKD2013_e1_2",0,"CueLikelyNew",3,1277.839,2438.241,"Include",283
"JKD2013_e1","JKD2013_e1_2",0,"CueLikelyNew",2,877.2056,1317.338,"Include",284
"JKD2013_e1","JKD2013_e1_2",1,"CueLikelyOld",8,720.2114,1176.123,"Include",285
"JKD2013_e1","JKD2013_e1_2",0,"CueLikelyOld",1,1267.769,1707.765,"Include",286
"JKD2013_e1","JKD2013_e1_2",1,"CueLikelyOld",6,1093.322,1549.342,"Include",287
"JKD2013_e1","JKD2013_e1_2",1,"CueLikelyOld",8,966.9475,1415.325,"Include",288
"JKD2013_e1","JKD2013_e1_2",0,"Uncued",3,888.585,1432.568,"Include",289
"JKD2013_e1","JKD2013_e1_2",0,"CueLikelyNew",2,1052.169,1588.209,"Include",290
"JKD2013_e1","JKD2013_e1_2",0,"Uncued",3,1190.499,1766.301,"Include",291
"JKD2013_e1","JKD2013_e1_2",0,"CueLikelyOld",3,1224.201,1704.134,"Include",292
"JKD2013_e1","JKD2013_e1_2",0,"CueLikelyNew",2,1103.941,1736.256,"Include",293
"JKD2013_e1","JKD2013_e1_2",1,"CueLikelyNew",8,923.0344,1371.07,"Include",294
"JKD2013_e1","JKD2013_e1_2",1,"CueLikelyOld",6,1181.004,1780.71,"Include",295
"JKD2013_e1","JKD2013_e1_2",1,"CueLikelyOld",6,1550.353,2006.649,"Include",296
"JKD2013_e1","JKD2013_e1_2",1,"CueLikelyOld",8,704.1847,1112.255,"Include",297
"JKD2013_e1","JKD2013_e1_2",1,"Uncued",6,1152.404,1600.747,"Include",298
"JKD2013_e1","JKD2013_e1_2",0,"Uncued",1,1077.46,1437.759,"Include",299
"JKD2013_e1","JKD2013_e1_2",1,"CueLikelyNew",8,948.0906,1468.102,"Include",300
"JKD2013_e1","JKD2013_e1_2",1,"CueLikelyOld",6,1042.69,2026.659,"Include",301
"JKD2013_e1","JKD2013_e1_2",0,"CueLikelyNew",1,808.8439,1177.242,"Include",302
"JKD2013_e1","JKD2013_e1_2",1,"CueLikelyOld",8,786.8249,1170.506,"Include",303
"JKD2013_e1","JKD2013_e1_2",1,"CueLikelyNew",8,787.8694,1092.351,"Include",304
"JKD2013_e1","JKD2013_e1_2",1,"CueLikelyNew",6,957.5731,1333.594,"Include",305
"JKD2013_e1","JKD2013_e1_2",1,"CueLikelyOld",7,823.6519,1879.511,"Include",306
"JKD2013_e1","JKD2013_e1_2",0,"CueLikelyNew",1,745.0075,1128.826,"Include",307
"JKD2013_e1","JKD2013_e1_2",0,"Uncued",3,952.2833,1376.806,"Include",308
"JKD2013_e1","JKD2013_e1_2",1,"Uncued",8,1198.8,1598.899,"Include",309
"JKD2013_e1","JKD2013_e1_2",1,"CueLikelyOld",8,693.4784,1061.718,"Include",310
"JKD2013_e1","JKD2013_e1_2",0,"CueLikelyNew",1,1115.871,1748.024,"Include",311
"JKD2013_e1","JKD2013_e1_2",0,"CueLikelyNew",3,874.5589,1290.874,"Include",312
"JKD2013_e1","JKD2013_e1_2",0,"CueLikelyOld",3,969.7992,2169.785,"Include",313
"JKD2013_e1","JKD2013_e1_2",1,"Uncued",7,1044.949,1685.454,"Include",314
"JKD2013_e1","JKD2013_e1_2",1,"CueLikelyOld",8,1334.928,1726.598,"Include",315
"JKD2013_e1","JKD2013_e1_2",0,"CueLikelyNew",1,944.6111,1336.174,"Include",316
"JKD2013_e1","JKD2013_e1_2",0,"CueLikelyNew",1,1057.625,1457.628,"Include",317
"JKD2013_e1","JKD2013_e1_2",1,"CueLikelyOld",8,960.398,1352.126,"Include",318
"JKD2013_e1","JKD2013_e1_2",1,"CueLikelyOld",8,1086.643,1431.049,"Include",319
"JKD2013_e1","JKD2013_e1_2",1,"Uncued",6,1229.625,1637.266,"Include",320
"JKD2013_e1","JKD2013_e1_2",0,"CueLikelyOld",3,1315.865,1764.314,"Include",321
"JKD2013_e1","JKD2013_e1_2",0,"CueLikelyOld",1,1082.036,1713.875,"Include",322
"JKD2013_e1","JKD2013_e1_2",0,"Uncued",1,1697.159,1976.867,"Include",323
"JKD2013_e1","JKD2013_e1_2",1,"Uncued",8,948.2848,1412.167,"Include",324
"JKD2013_e1","JKD2013_e1_2",0,"CueLikelyNew",3,1054.126,1437.923,"Include",325
"JKD2013_e1","JKD2013_e1_2",1,"CueLikelyNew",6,881.4894,1241.539,"Include",326
"JKD2013_e1","JKD2013_e1_2",0,"CueLikelyNew",1,832.0937,1200.608,"Include",327
"JKD2013_e1","JKD2013_e1_2",1,"CueLikelyOld",8,918.6707,1414.649,"Include",328
"JKD2013_e1","JKD2013_e1_2",0,"CueLikelyNew",3,1041.161,1657.17,"Include",329
"JKD2013_e1","JKD2013_e1_2",1,"CueLikelyOld",8,778.1989,1154.209,"Include",330
"JKD2013_e1","JKD2013_e1_2",0,"CueLikelyNew",1,912.7601,1313.06,"Include",331
"JKD2013_e1","JKD2013_e1_2",1,"CueLikelyOld",7,773.2944,1229.114,"Include",332
"JKD2013_e1","JKD2013_e1_2",0,"CueLikelyOld",3,1014.973,1830.906,"Include",333
"JKD2013_e1","JKD2013_e1_2",1,"CueLikelyOld",8,720.8466,1272.839,"Include",334
"JKD2013_e1","JKD2013_e1_2",0,"CueLikelyOld",3,1050.161,1370.057,"Include",335
"JKD2013_e1","JKD2013_e1_2",1,"CueLikelyNew",6,935.9854,1408.263,"Include",336
"JKD2013_e1","JKD2013_e1_2",1,"CueLikelyNew",6,1439.28,1822.948,"Include",337
"JKD2013_e1","JKD2013_e1_2",0,"CueLikelyNew",1,1056.466,1440.545,"Include",338
"JKD2013_e1","JKD2013_e1_2",0,"CueLikelyNew",2,930.1168,1354.093,"Include",339
"JKD2013_e1","JKD2013_e1_2",1,"CueLikelyOld",6,1386.328,1994.536,"Include",340
"JKD2013_e1","JKD2013_e1_2",1,"CueLikelyOld",6,1064.866,1632.626,"Include",341
"JKD2013_e1","JKD2013_e1_2",1,"CueLikelyNew",7,1287.452,2031.163,"Include",342
"JKD2013_e1","JKD2013_e1_2",0,"CueLikelyNew",1,784.0133,1231.819,"Include",343
"JKD2013_e1","JKD2013_e1_2",1,"CueLikelyOld",7,859.131,1539.011,"Include",344
"JKD2013_e1","JKD2013_e1_2",0,"CueLikelyNew",2,878.2404,1542.473,"Include",345
"JKD2013_e1","JKD2013_e1_2",0,"CueLikelyNew",3,1127.866,2279.899,"Include",346
"JKD2013_e1","JKD2013_e1_2",1,"CueLikelyOld",6,1410.3,1881.955,"Include",347
"JKD2013_e1","JKD2013_e1_2",1,"CueLikelyOld",6,1016.775,1408.47,"Include",348
"JKD2013_e1","JKD2013_e1_2",0,"CueLikelyNew",1,791.0382,1182.991,"Include",349
"JKD2013_e1","JKD2013_e1_2",1,"CueLikelyNew",6,1278.136,2293.556,"Include",350
"JKD2013_e1","JKD2013_e1_2",0,"CueLikelyNew",1,946.7751,1266.879,"Include",351
"JKD2013_e1","JKD2013_e1_2",1,"CueLikelyOld",8,803.035,1146.6,"Include",352
"JKD2013_e1","JKD2013_e1_2",1,"CueLikelyOld",8,776.8267,1096.72,"Include",353
"JKD2013_e1","JKD2013_e1_2",1,"Uncued",8,786.6885,1154.334,"Include",354
"JKD2013_e1","JKD2013_e1_2",0,"CueLikelyNew",1,971.1461,1291.184,"Include",355
"JKD2013_e1","JKD2013_e1_2",0,"CueLikelyNew",1,713.8005,1041.876,"Include",356
"JKD2013_e1","JKD2013_e1_2",1,"Uncued",6,1152.281,1744.263,"Include",357
"JKD2013_e1","JKD2013_e1_2",0,"CueLikelyNew",3,1174.778,1894.864,"Include",358
"JKD2013_e1","JKD2013_e1_2",0,"CueLikelyNew",1,765.8004,1125.717,"Include",359
"JKD2013_e1","JKD2013_e1_2",0,"CueLikelyOld",3,1171.334,1795.631,"Include",360
"JKD2013_e1","JKD2013_e1_2",0,"CueLikelyNew",1,1045.164,1492.825,"Include",361
"JKD2013_e1","JKD2013_e1_2",0,"CueLikelyNew",1,1150.705,1654.803,"Include",362
"JKD2013_e1","JKD2013_e1_2",0,"CueLikelyNew",1,1432.451,1808.383,"Include",363
"JKD2013_e1","JKD2013_e1_2",1,"CueLikelyOld",6,1041.668,1601.867,"Include",364
"JKD2013_e1","JKD2013_e1_2",0,"CueLikelyOld",4,987.4599,1850.983,"Include",365
"JKD2013_e1","JKD2013_e1_2",1,"CueLikelyOld",8,825.9441,1297.979,"Include",366
"JKD2013_e1","JKD2013_e1_2",0,"CueLikelyNew",1,856.0881,1240.487,"Include",367
"JKD2013_e1","JKD2013_e1_2",1,"CueLikelyOld",8,814.6873,1230.665,"Include",368
"JKD2013_e1","JKD2013_e1_2",0,"Uncued",1,772.9985,1181.198,"Include",369
"JKD2013_e1","JKD2013_e1_2",1,"CueLikelyOld",8,955.6379,1339.692,"Include",370
"JKD2013_e1","JKD2013_e1_2",0,"CueLikelyNew",1,890.231,1314.467,"Include",371
"JKD2013_e1","JKD2013_e1_2",1,"CueLikelyOld",8,933.7662,1398.012,"Include",372
"JKD2013_e1","JKD2013_e1_2",0,"CueLikelyNew",3,1071.68,1527.298,"Include",373
"JKD2013_e1","JKD2013_e1_2",1,"CueLikelyNew",6,1288.93,1737.015,"Include",374
"JKD2013_e1","JKD2013_e1_2",1,"CueLikelyNew",7,1138.886,1874.565,"Include",375
"JKD2013_e1","JKD2013_e1_2",0,"CueLikelyNew",1,1234.732,1674.904,"Include",376
"JKD2013_e1","JKD2013_e1_2",0,"CueLikelyNew",1,729.4533,1273.39,"Include",377
"JKD2013_e1","JKD2013_e1_2",1,"CueLikelyOld",7,1006.485,1510.897,"Include",378
"JKD2013_e1","JKD2013_e1_2",1,"CueLikelyOld",8,874.8428,1290.949,"Include",379
"JKD2013_e1","JKD2013_e1_2",1,"CueLikelyOld",8,802.3347,1290.117,"Include",380
"JKD2013_e1","JKD2013_e1_2",0,"CueLikelyNew",1,942.691,1406.967,"Include",381
"JKD2013_e1","JKD2013_e1_2",1,"CueLikelyNew",8,1104.223,1784.35,"Include",382
"JKD2013_e1","JKD2013_e1_2",1,"Uncued",6,915.5516,1427.524,"Include",383
"JKD2013_e1","JKD2013_e1_2",0,"CueLikelyOld",3,1010.732,1850.713,"Include",384
"JKD2013_e1","JKD2013_e1_2",0,"CueLikelyOld",3,1416.699,1936.197,"Include",385
"JKD2013_e1","JKD2013_e1_2",0,"CueLikelyOld",2,1146.361,2042.347,"Include",386
"JKD2013_e1","JKD2013_e1_2",1,"CueLikelyNew",8,1171.861,1739.568,"Include",387
"JKD2013_e1","JKD2013_e1_2",1,"CueLikelyNew",6,1546.326,1970.213,"Include",388
"JKD2013_e1","JKD2013_e1_2",0,"Uncued",1,1448.969,1920.853,"Include",389
"JKD2013_e1","JKD2013_e1_2",0,"CueLikelyNew",3,1244.533,1708.121,"Include",390
"JKD2013_e1","JKD2013_e1_2",1,"CueLikelyOld",6,1327.717,1768.083,"Include",391
"JKD2013_e1","JKD2013_e1_2",0,"Uncued",3,1145.184,1569.634,"Include",392
"JKD2013_e1","JKD2013_e1_2",0,"Uncued",1,882.9136,1403.111,"Include",393
"JKD2013_e1","JKD2013_e1_2",1,"CueLikelyOld",8,732.5314,1212.4,"Include",394
"JKD2013_e1","JKD2013_e1_2",0,"Uncued",2,787.3009,1387.23,"Include",395
"JKD2013_e1","JKD2013_e1_2",0,"CueLikelyNew",3,1128.35,1664.284,"Include",396
"JKD2013_e1","JKD2013_e1_2",0,"CueLikelyNew",1,674.22,1066.563,"Include",397
"JKD2013_e1","JKD2013_e1_2",1,"CueLikelyOld",8,892.079,1299.812,"Include",398
"JKD2013_e1","JKD2013_e1_2",1,"CueLikelyOld",8,771.9593,1308.007,"Include",399
"JKD2013_e1","JKD2013_e1_2",1,"Uncued",7,1231.398,2135.384,"Include",400
"JKD2013_e1","JKD2013_e1_2",1,"CueLikelyOld",7,952.6367,1304.995,"Include",401
"JKD2013_e1","JKD2013_e1_2",0,"CueLikelyNew",2,938.1701,1890.632,"Include",402
"JKD2013_e1","JKD2013_e1_2",1,"CueLikelyOld",6,1539.853,1939.884,"Include",403
"JKD2013_e1","JKD2013_e1_2",0,"CueLikelyOld",2,1171.452,1731.075,"Include",404
"JKD2013_e1","JKD2013_e1_2",1,"CueLikelyOld",6,914.112,1625.627,"Include",405
"JKD2013_e1","JKD2013_e1_2",0,"CueLikelyOld",3,1296.598,1648.681,"Include",406
"JKD2013_e1","JKD2013_e1_2",1,"CueLikelyOld",7,814.7896,1254.851,"Include",407
"JKD2013_e1","JKD2013_e1_2",0,"CueLikelyNew",2,1031.954,1704.326,"Include",408
"JKD2013_e1","JKD2013_e1_2",1,"Uncued",7,1185.491,1874.109,"Include",409
"JKD2013_e1","JKD2013_e1_2",0,"Uncued",2,923.2414,1515.192,"Include",410
"JKD2013_e1","JKD2013_e1_2",0,"CueLikelyNew",3,1676.811,2132.729,"Include",411
"JKD2013_e1","JKD2013_e1_2",1,"CueLikelyNew",8,1272.353,1752.103,"Include",412
"JKD2013_e1","JKD2013_e1_2",1,"CueLikelyOld",1,1662.593,3284.075,"Exclude",413
"JKD2013_e1","JKD2013_e1_2",0,"CueLikelyNew",1,837.0634,1205.089,"Include",414
"JKD2013_e1","JKD2013_e1_2",0,"CueLikelyNew",2,1023.377,1503.793,"Include",415
"JKD2013_e1","JKD2013_e1_2",1,"Uncued",6,1138.34,1698.514,"Include",416
"JKD2013_e1","JKD2013_e1_2",0,"CueLikelyNew",1,1116.149,1564.135,"Include",417
"JKD2013_e1","JKD2013_e1_2",0,"CueLikelyNew",1,774.0945,1310.079,"Include",418
"JKD2013_e1","JKD2013_e1_2",0,"CueLikelyNew",99,1444.335,3288.659,"Exclude",419
"JKD2013_e1","JKD2013_e1_2",0,"CueLikelyNew",3,979.1747,1435.49,"Include",420
"JKD2013_e1","JKD2013_e1_2",0,"Uncued",3,1129.426,2185.476,"Include",421
"JKD2013_e1","JKD2013_e1_2",0,"CueLikelyNew",1,1111.949,1656.155,"Include",422
"JKD2013_e1","JKD2013_e1_2",1,"CueLikelyOld",8,637.6947,1037.747,"Include",423
"JKD2013_e1","JKD2013_e1_2",1,"CueLikelyOld",8,669.0088,1125.208,"Include",424
"JKD2013_e1","JKD2013_e1_2",1,"CueLikelyNew",7,848.2827,1360.608,"Include",425
"JKD2013_e1","JKD2013_e1_2",1,"CueLikelyOld",8,905.8808,1601.894,"Include",426
"JKD2013_e1","JKD2013_e1_2",0,"CueLikelyOld",2,1259.896,2155.543,"Include",427
"JKD2013_e1","JKD2013_e1_2",0,"CueLikelyNew",1,1181.256,2013.135,"Include",428
"JKD2013_e1","JKD2013_e1_2",0,"CueLikelyOld",3,901.6087,1325.585,"Include",429
"JKD2013_e1","JKD2013_e1_2",1,"CueLikelyOld",6,1036.17,1476.179,"Include",430
"JKD2013_e1","JKD2013_e1_2",1,"CueLikelyOld",6,923.6341,1355.499,"Include",431
"JKD2013_e1","JKD2013_e1_2",1,"CueLikelyOld",8,949.1231,1485.461,"Include",432
"JKD2013_e1","JKD2013_e1_2",0,"CueLikelyNew",2,710.238,1270.354,"Include",433
"JKD2013_e1","JKD2013_e1_2",1,"CueLikelyOld",7,1060.898,1709.221,"Include",434
"JKD2013_e1","JKD2013_e1_2",1,"CueLikelyOld",8,723.7783,1083.725,"Include",435
"JKD2013_e1","JKD2013_e1_2",0,"CueLikelyNew",3,842.7803,1387.146,"Include",436
"JKD2013_e1","JKD2013_e1_2",0,"Uncued",2,1020.732,1564.341,"Include",437
"JKD2013_e1","JKD2013_e1_2",0,"CueLikelyNew",2,822.4006,1566.002,"Include",438
"JKD2013_e1","JKD2013_e1_2",0,"CueLikelyOld",1,1149.49,1733.916,"Include",439
"JKD2013_e1","JKD2013_e1_2",1,"CueLikelyOld",6,1516.297,1996.029,"Include",440
"JKD2013_e1","JKD2013_e1_2",0,"Uncued",3,858.7161,1594.86,"Include",441
"JKD2013_e1","JKD2013_e1_2",1,"CueLikelyOld",6,1652.753,2332.826,"Include",442
"JKD2013_e1","JKD2013_e1_2",1,"CueLikelyOld",6,1622.441,2069.916,"Include",443
"JKD2013_e1","JKD2013_e1_2",0,"CueLikelyOld",1,1030.476,1542.231,"Include",444
"JKD2013_e1","JKD2013_e1_2",1,"CueLikelyOld",6,1156.746,1541.203,"Include",445
"JKD2013_e1","JKD2013_e1_2",1,"CueLikelyOld",7,1091.653,1883.168,"Include",446
"JKD2013_e1","JKD2013_e1_2",1,"CueLikelyNew",6,1645.864,2069.705,"Include",447
"JKD2013_e1","JKD2013_e1_2",0,"CueLikelyOld",3,1174.781,1566.953,"Include",448
"JKD2013_e1","JKD2013_e1_2",1,"Uncued",8,741.3811,1101.376,"Include",449
"JKD2013_e1","JKD2013_e1_2",0,"Uncued",3,1219.775,1795.77,"Include",450
"JKD2013_e1","JKD2013_e1_2",1,"CueLikelyOld",8,933.8332,1365.826,"Include",451
"JKD2013_e1","JKD2013_e1_2",0,"CueLikelyNew",1,815.0111,1231.361,"Include",452
"JKD2013_e1","JKD2013_e1_2",0,"CueLikelyNew",3,1070.335,1678.424,"Include",453
"JKD2013_e1","JKD2013_e1_2",0,"CueLikelyNew",2,1004.988,1708.966,"Include",454
"JKD2013_e1","JKD2013_e1_2",1,"CueLikelyOld",6,1571.357,1907.336,"Include",455
"JKD2013_e1","JKD2013_e1_2",0,"CueLikelyNew",3,1258.02,1577.98,"Include",456
"JKD2013_e1","JKD2013_e1_2",0,"CueLikelyNew",2,822.7233,1206.737,"Include",457
"JKD2013_e1","JKD2013_e1_2",0,"Uncued",1,1331.473,2019.168,"Include",458
"JKD2013_e1","JKD2013_e1_2",1,"Uncued",7,1630.348,2270.643,"Include",459
"JKD2013_e1","JKD2013_e1_2",1,"Uncued",8,1109.904,1549.856,"Include",460
"JKD2013_e1","JKD2013_e1_2",1,"CueLikelyNew",6,1028.831,1508.798,"Include",461
"JKD2013_e1","JKD2013_e1_2",0,"CueLikelyOld",3,962.9973,1530.924,"Include",462
"JKD2013_e1","JKD2013_e1_2",0,"CueLikelyNew",1,897.9211,1345.909,"Include",463
"JKD2013_e1","JKD2013_e1_2",0,"Uncued",3,1111.598,2071.328,"Include",464
"JKD2013_e1","JKD2013_e1_2",1,"Uncued",7,1496.87,2521.262,"Include",465
"JKD2013_e1","JKD2013_e1_2",0,"CueLikelyNew",3,1386.756,2114.845,"Include",466
"JKD2013_e1","JKD2013_e1_2",1,"Uncued",8,1180.05,1724.118,"Include",467
"JKD2013_e1","JKD2013_e1_2",1,"Uncued",8,677.9588,1109.675,"Include",468
"JKD2013_e1","JKD2013_e1_2",1,"CueLikelyOld",8,759.3253,1215.639,"Include",469
"JKD2013_e1","JKD2013_e1_2",0,"CueLikelyNew",3,1455.14,1903.263,"Include",470
"JKD2013_e1","JKD2013_e1_2",1,"CueLikelyNew",8,1246.244,1709.725,"Include",471
"JKD2013_e1","JKD2013_e1_2",1,"CueLikelyOld",6,1079.359,1895.712,"Include",472
"JKD2013_e1","JKD2013_e1_2",1,"CueLikelyOld",7,1017.834,1537.807,"Include",473
"JKD2013_e1","JKD2013_e1_2",0,"CueLikelyNew",1,859.8227,1291.416,"Include",474
"JKD2013_e1","JKD2013_e1_2",1,"Uncued",8,901.0145,1316.95,"Include",475
"JKD2013_e1","JKD2013_e1_2",0,"CueLikelyNew",2,814.641,1470.542,"Include",476
"JKD2013_e1","JKD2013_e1_2",1,"Uncued",8,672.4461,1200.578,"Include",477
"JKD2013_e1","JKD2013_e1_2",1,"CueLikelyOld",6,1031.098,1551.038,"Include",478
"JKD2013_e1","JKD2013_e1_2",1,"CueLikelyNew",8,956.5149,1396.143,"Include",479
"JKD2013_e1","JKD2013_e1_2",1,"CueLikelyNew",8,670.8048,1142.626,"Include",480
"JKD2013_e1","JKD2013_e1_3",0,"CueLikelyOld",3,875.047,2546.982,"Include",1
"JKD2013_e1","JKD2013_e1_3",1,"CueLikelyOld",7,1308.575,2444.925,"Include",2
"JKD2013_e1","JKD2013_e1_3",0,"CueLikelyNew",99,3197.877,3293.512,"Exclude",3
"JKD2013_e1","JKD2013_e1_3",0,"CueLikelyNew",1,1572.41,2748.862,"Include",4
"JKD2013_e1","JKD2013_e1_3",1,"Uncued",8,1930.927,2635.38,"Include",5
"JKD2013_e1","JKD2013_e1_3",1,"CueLikelyOld",7,1569.856,2521.89,"Include",6
"JKD2013_e1","JKD2013_e1_3",1,"CueLikelyNew",6,1613.605,3045.637,"Include",7
"JKD2013_e1","JKD2013_e1_3",0,"CueLikelyOld",99,1992.733,3287.259,"Exclude",8
"JKD2013_e1","JKD2013_e1_3",0,"CueLikelyNew",2,1196.195,2036.383,"Include",9
"JKD2013_e1","JKD2013_e1_3",0,"CueLikelyNew",2,917.5714,1597.946,"Include",10
"JKD2013_e1","JKD2013_e1_3",1,"CueLikelyOld",7,950.0738,1893.729,"Include",11
"JKD2013_e1","JKD2013_e1_3",1,"CueLikelyOld",8,1100.497,1820.242,"Include",12
"JKD2013_e1","JKD2013_e1_3",0,"CueLikelyNew",3,1627.218,2683.124,"Include",13
"JKD2013_e1","JKD2013_e1_3",0,"CueLikelyNew",2,809.3523,3025.819,"Include",14
"JKD2013_e1","JKD2013_e1_3",1,"CueLikelyOld",7,1294.437,1790.742,"Include",15
"JKD2013_e1","JKD2013_e1_3",0,"CueLikelyNew",1,1747.28,3211.808,"Include",16
"JKD2013_e1","JKD2013_e1_3",1,"CueLikelyOld",8,2021.325,2933.373,"Include",17
"JKD2013_e1","JKD2013_e1_3",0,"CueLikelyNew",1,1398.521,2918.588,"Include",18
"JKD2013_e1","JKD2013_e1_3",0,"CueLikelyOld",99,2484.1,3288.082,"Exclude",19
"JKD2013_e1","JKD2013_e1_3",0,"CueLikelyNew",1,1467.066,2314.75,"Include",20
"JKD2013_e1","JKD2013_e1_3",0,"CueLikelyOld",99,2361.653,3284.674,"Exclude",21
"JKD2013_e1","JKD2013_e1_3",1,"CueLikelyOld",8,1502.376,1798.56,"Include",22
"JKD2013_e1","JKD2013_e1_3",1,"CueLikelyNew",6,1225.058,2049.082,"Include",23
"JKD2013_e1","JKD2013_e1_3",1,"Uncued",7,1530.472,2362.657,"Include",24
"JKD2013_e1","JKD2013_e1_3",0,"CueLikelyNew",1,1204.621,2452.597,"Include",25
"JKD2013_e1","JKD2013_e1_3",0,"CueLikelyNew",1,741.8588,1846.368,"Include",26
"JKD2013_e1","JKD2013_e1_3",0,"CueLikelyNew",3,1567.172,2086.856,"Include",27
"JKD2013_e1","JKD2013_e1_3",0,"Uncued",1,1965.389,2333.41,"Include",28
"JKD2013_e1","JKD2013_e1_3",1,"Uncued",7,1812.004,2395.961,"Include",29
"JKD2013_e1","JKD2013_e1_3",0,"CueLikelyOld",3,2114.916,2826.544,"Include",30
"JKD2013_e1","JKD2013_e1_3",1,"CueLikelyOld",8,1334.182,1989.911,"Include",31
"JKD2013_e1","JKD2013_e1_3",1,"CueLikelyOld",6,1702.569,2798.152,"Include",32
"JKD2013_e1","JKD2013_e1_3",0,"CueLikelyNew",2,889.9821,2378.032,"Include",33
"JKD2013_e1","JKD2013_e1_3",1,"CueLikelyOld",8,1059.553,1363.533,"Include",34
"JKD2013_e1","JKD2013_e1_3",0,"Uncued",2,2045.124,2717.597,"Include",35
"JKD2013_e1","JKD2013_e1_3",0,"CueLikelyOld",3,2254.972,3055.119,"Include",36
"JKD2013_e1","JKD2013_e1_3",1,"CueLikelyNew",6,2134.632,3103.213,"Include",37
"JKD2013_e1","JKD2013_e1_3",1,"CueLikelyOld",8,1453.322,1957.368,"Include",38
"JKD2013_e1","JKD2013_e1_3",0,"CueLikelyNew",2,2268.166,3164.364,"Include",39
"JKD2013_e1","JKD2013_e1_3",1,"CueLikelyNew",8,1133.301,1469.586,"Include",40
"JKD2013_e1","JKD2013_e1_3",0,"CueLikelyOld",1,1375.238,1670.788,"Include",41
"JKD2013_e1","JKD2013_e1_3",1,"CueLikelyOld",8,1454.361,1662.3,"Include",42
"JKD2013_e1","JKD2013_e1_3",0,"CueLikelyNew",99,2132.926,3292.044,"Exclude",43
"JKD2013_e1","JKD2013_e1_3",1,"CueLikelyOld",8,1303.786,2312.203,"Include",44
"JKD2013_e1","JKD2013_e1_3",0,"Uncued",3,2023.047,2758.617,"Include",45
"JKD2013_e1","JKD2013_e1_3",1,"Uncued",5,2269.451,2645.193,"Include",46
"JKD2013_e1","JKD2013_e1_3",1,"CueLikelyNew",7,1740.537,2908.543,"Include",47
"JKD2013_e1","JKD2013_e1_3",0,"CueLikelyNew",1,1262.527,1910.584,"Include",48
"JKD2013_e1","JKD2013_e1_3",0,"CueLikelyNew",2,1536.099,2184.212,"Include",49
"JKD2013_e1","JKD2013_e1_3",0,"CueLikelyNew",3,1167.263,2119.726,"Include",50
"JKD2013_e1","JKD2013_e1_3",1,"CueLikelyNew",7,1669.84,2285.874,"Include",51
"JKD2013_e1","JKD2013_e1_3",0,"CueLikelyNew",1,1084.382,1524.372,"Include",52
"JKD2013_e1","JKD2013_e1_3",0,"Uncued",1,1133.713,1573.817,"Include",53
"JKD2013_e1","JKD2013_e1_3",0,"CueLikelyNew",2,1006.906,1415.113,"Include",54
"JKD2013_e1","JKD2013_e1_3",1,"CueLikelyNew",8,1420.289,2004.3,"Include",55
"JKD2013_e1","JKD2013_e1_3",0,"CueLikelyNew",1,1069.478,2085.548,"Include",56
"JKD2013_e1","JKD2013_e1_3",1,"CueLikelyOld",6,2063.202,2671.165,"Include",57
"JKD2013_e1","JKD2013_e1_3",1,"Uncued",8,1904.645,2953.057,"Include",58
"JKD2013_e1","JKD2013_e1_3",0,"CueLikelyOld",2,1903.41,2671.606,"Include",59
"JKD2013_e1","JKD2013_e1_3",1,"CueLikelyOld",8,1116.578,1580.269,"Include",60
"JKD2013_e1","JKD2013_e1_3",1,"CueLikelyOld",8,2315.241,2587.014,"Include",61
"JKD2013_e1","JKD2013_e1_3",1,"CueLikelyOld",8,1408.033,2056.419,"Include",62
"JKD2013_e1","JKD2013_e1_3",0,"Uncued",1,1225.619,2089.879,"Include",63
"JKD2013_e1","JKD2013_e1_3",0,"CueLikelyNew",3,1931.276,2611.314,"Include",64
"JKD2013_e1","JKD2013_e1_3",1,"CueLikelyNew",7,1172.83,2332.931,"Include",65
"JKD2013_e1","JKD2013_e1_3",0,"CueLikelyNew",4,1414.906,2246.504,"Include",66
"JKD2013_e1","JKD2013_e1_3",0,"CueLikelyNew",2,1447.989,2352.038,"Include",67
"JKD2013_e1","JKD2013_e1_3",0,"Uncued",2,1776.446,2392.74,"Include",68
"JKD2013_e1","JKD2013_e1_3",1,"CueLikelyOld",8,1119.104,1991.414,"Include",69
"JKD2013_e1","JKD2013_e1_3",0,"CueLikelyOld",1,1381.5,2101.837,"Include",70
"JKD2013_e1","JKD2013_e1_3",0,"CueLikelyNew",1,1444.304,2436.074,"Include",71
"JKD2013_e1","JKD2013_e1_3",1,"CueLikelyOld",8,1850.767,2298.5,"Include",72
"JKD2013_e1","JKD2013_e1_3",0,"CueLikelyOld",99,1857.185,3299.037,"Exclude",73
"JKD2013_e1","JKD2013_e1_3",0,"Uncued",3,1970.662,2850.635,"Include",74
"JKD2013_e1","JKD2013_e1_3",0,"Uncued",1,2316.217,2972.182,"Include",75
"JKD2013_e1","JKD2013_e1_3",1,"CueLikelyNew",8,1478.208,1910.221,"Include",76
"JKD2013_e1","JKD2013_e1_3",1,"CueLikelyOld",8,1615.249,1927.354,"Include",77
"JKD2013_e1","JKD2013_e1_3",0,"CueLikelyNew",3,2145.066,3041.438,"Include",78
"JKD2013_e1","JKD2013_e1_3",1,"CueLikelyOld",8,1848.408,2616.758,"Include",79
"JKD2013_e1","JKD2013_e1_3",1,"CueLikelyOld",6,2055.315,3094.949,"Include",80
"JKD2013_e1","JKD2013_e1_3",1,"Uncued",6,1664.985,3089.072,"Include",81
"JKD2013_e1","JKD2013_e1_3",1,"CueLikelyOld",7,1944.877,2905.275,"Include",82
"JKD2013_e1","JKD2013_e1_3",1,"CueLikelyOld",7,2117.624,2989.539,"Include",83
"JKD2013_e1","JKD2013_e1_3",0,"CueLikelyOld",4,2030.787,2942.631,"Include",84
"JKD2013_e1","JKD2013_e1_3",0,"CueLikelyNew",2,1464.481,2168.264,"Include",85
"JKD2013_e1","JKD2013_e1_3",0,"Uncued",3,1639.126,2678.802,"Include",86
"JKD2013_e1","JKD2013_e1_3",0,"CueLikelyNew",2,1656.446,2520.424,"Include",87
"JKD2013_e1","JKD2013_e1_3",1,"CueLikelyOld",8,984.7665,1297.122,"Include",88
"JKD2013_e1","JKD2013_e1_3",0,"CueLikelyNew",1,1759.548,2375.384,"Include",89
"JKD2013_e1","JKD2013_e1_3",1,"Uncued",7,2046.088,2798.35,"Include",90
"JKD2013_e1","JKD2013_e1_3",0,"CueLikelyNew",2,1960.103,2735.788,"Include",91
"JKD2013_e1","JKD2013_e1_3",1,"CueLikelyOld",1,2473.339,3286.893,"Exclude",92
"JKD2013_e1","JKD2013_e1_3",0,"CueLikelyNew",3,1862.919,2462.669,"Include",93
"JKD2013_e1","JKD2013_e1_3",1,"CueLikelyNew",6,1591.712,2823.708,"Include",94
"JKD2013_e1","JKD2013_e1_3",1,"CueLikelyOld",7,1649.371,2153.362,"Include",95
"JKD2013_e1","JKD2013_e1_3",0,"CueLikelyNew",99,2498.642,3294.854,"Exclude",96
"JKD2013_e1","JKD2013_e1_3",1,"CueLikelyOld",6,1480.689,2641.135,"Include",97
"JKD2013_e1","JKD2013_e1_3",1,"Uncued",8,1191.623,1935.274,"Include",98
"JKD2013_e1","JKD2013_e1_3",0,"CueLikelyNew",2,1831.024,2766.998,"Include",99
"JKD2013_e1","JKD2013_e1_3",1,"Uncued",7,1585.035,2161.025,"Include",100
"JKD2013_e1","JKD2013_e1_3",1,"Uncued",7,2202.697,2634.266,"Include",101
"JKD2013_e1","JKD2013_e1_3",1,"CueLikelyOld",8,1265.351,1513.802,"Include",102
"JKD2013_e1","JKD2013_e1_3",1,"CueLikelyOld",8,2029.869,2261.454,"Include",103
"JKD2013_e1","JKD2013_e1_3",1,"CueLikelyOld",8,1474.235,1698.281,"Include",104
"JKD2013_e1","JKD2013_e1_3",1,"CueLikelyNew",1,2674.094,3292.938,"Exclude",105
"JKD2013_e1","JKD2013_e1_3",0,"CueLikelyNew",2,1405.708,1774.049,"Include",106
"JKD2013_e1","JKD2013_e1_3",0,"CueLikelyNew",3,1729.525,2977.638,"Include",107
"JKD2013_e1","JKD2013_e1_3",0,"Uncued",2,1939.123,2730.812,"Include",108
"JKD2013_e1","JKD2013_e1_3",1,"CueLikelyOld",7,1142.408,1566.382,"Include",109
"JKD2013_e1","JKD2013_e1_3",1,"CueLikelyOld",1,2656.091,3289.503,"Exclude",110
"JKD2013_e1","JKD2013_e1_3",1,"CueLikelyOld",7,1721.694,2457.582,"Include",111
"JKD2013_e1","JKD2013_e1_3",0,"CueLikelyNew",3,1635.171,2099.188,"Include",112
"JKD2013_e1","JKD2013_e1_3",1,"CueLikelyOld",5,1426.153,3074.02,"Include",113
"JKD2013_e1","JKD2013_e1_3",0,"Uncued",1,1912.567,2320.876,"Include",114
"JKD2013_e1","JKD2013_e1_3",1,"Uncued",7,1719.389,2239.019,"Include",115
"JKD2013_e1","JKD2013_e1_3",1,"Uncued",8,1861.563,2541.862,"Include",116
"JKD2013_e1","JKD2013_e1_3",0,"Uncued",3,1684.133,2500.049,"Include",117
"JKD2013_e1","JKD2013_e1_3",1,"CueLikelyOld",1,2404.417,3284.474,"Exclude",118
"JKD2013_e1","JKD2013_e1_3",0,"CueLikelyOld",3,2085.797,2997.789,"Include",119
"JKD2013_e1","JKD2013_e1_3",1,"Uncued",7,1294.576,2038.584,"Include",120
"JKD2013_e1","JKD2013_e1_3",1,"CueLikelyNew",8,1301.098,1804.991,"Include",121
"JKD2013_e1","JKD2013_e1_3",0,"CueLikelyOld",3,1547.096,2083.038,"Include",122
"JKD2013_e1","JKD2013_e1_3",0,"CueLikelyNew",2,1269.83,2093.867,"Include",123
"JKD2013_e1","JKD2013_e1_3",0,"CueLikelyNew",1,1135.202,1783.194,"Include",124
"JKD2013_e1","JKD2013_e1_3",1,"CueLikelyOld",8,1341.424,2029.348,"Include",125
"JKD2013_e1","JKD2013_e1_3",0,"Uncued",2,1604.405,2467.982,"Include",126
"JKD2013_e1","JKD2013_e1_3",1,"CueLikelyNew",7,1565.227,2109.582,"Include",127
"JKD2013_e1","JKD2013_e1_3",1,"CueLikelyOld",8,1431.192,1910.624,"Include",128
"JKD2013_e1","JKD2013_e1_3",1,"CueLikelyOld",8,1134.07,1438.101,"Include",129
"JKD2013_e1","JKD2013_e1_3",1,"CueLikelyOld",6,1898.023,2450.405,"Include",130
"JKD2013_e1","JKD2013_e1_3",0,"CueLikelyNew",2,1179.609,1683.629,"Include",131
"JKD2013_e1","JKD2013_e1_3",1,"Uncued",8,2053.617,2581.59,"Include",132
"JKD2013_e1","JKD2013_e1_3",0,"Uncued",2,2254.836,2902.832,"Include",133
"JKD2013_e1","JKD2013_e1_3",1,"CueLikelyOld",8,1231.06,1575.008,"Include",134
"JKD2013_e1","JKD2013_e1_3",1,"CueLikelyNew",8,1525.194,2061.283,"Include",135
"JKD2013_e1","JKD2013_e1_3",0,"Uncued",1,1244.025,1859.814,"Include",136
"JKD2013_e1","JKD2013_e1_3",0,"CueLikelyNew",2,2010.462,2474.409,"Include",137
"JKD2013_e1","JKD2013_e1_3",1,"CueLikelyOld",8,1336.92,1545.337,"Include",138
"JKD2013_e1","JKD2013_e1_3",0,"CueLikelyNew",1,1273.355,1601.262,"Include",139
"JKD2013_e1","JKD2013_e1_3",0,"Uncued",1,1475.171,1770.898,"Include",140
"JKD2013_e1","JKD2013_e1_3",1,"Uncued",6,2462.217,2934.659,"Include",141
"JKD2013_e1","JKD2013_e1_3",0,"CueLikelyNew",2,1159.745,1863.706,"Include",142
"JKD2013_e1","JKD2013_e1_3",0,"CueLikelyNew",3,2006.659,2510.858,"Include",143
"JKD2013_e1","JKD2013_e1_3",1,"CueLikelyNew",8,1395.969,2219.673,"Include",144
"JKD2013_e1","JKD2013_e1_3",0,"Uncued",1,1073.042,1472.656,"Include",145
"JKD2013_e1","JKD2013_e1_3",1,"CueLikelyOld",8,1322.622,1554.597,"Include",146
"JKD2013_e1","JKD2013_e1_3",0,"CueLikelyNew",1,973.7525,1213.471,"Include",147
"JKD2013_e1","JKD2013_e1_3",1,"CueLikelyOld",8,1104.237,1311.811,"Include",148
"JKD2013_e1","JKD2013_e1_3",1,"CueLikelyOld",8,1390.811,1606.906,"Include",149
"JKD2013_e1","JKD2013_e1_3",0,"CueLikelyNew",1,1756.841,1949.198,"Include",150
"JKD2013_e1","JKD2013_e1_3",1,"CueLikelyOld",6,1859.522,2379.543,"Include",151
"JKD2013_e1","JKD2013_e1_3",0,"CueLikelyNew",1,1767.069,2447.197,"Include",152
"JKD2013_e1","JKD2013_e1_3",0,"CueLikelyOld",3,1767.103,2311.233,"Include",153
"JKD2013_e1","JKD2013_e1_3",0,"CueLikelyNew",3,1707.255,2707.284,"Include",154
"JKD2013_e1","JKD2013_e1_3",0,"Uncued",3,1605.154,2701.247,"Include",155
"JKD2013_e1","JKD2013_e1_3",0,"CueLikelyNew",4,2014.679,2582.917,"Include",156
"JKD2013_e1","JKD2013_e1_3",1,"CueLikelyOld",7,1352.065,2384.167,"Include",157
"JKD2013_e1","JKD2013_e1_3",1,"CueLikelyNew",6,2184.09,2519.809,"Include",158
"JKD2013_e1","JKD2013_e1_3",0,"CueLikelyNew",2,1454.301,2342.362,"Include",159
"JKD2013_e1","JKD2013_e1_3",1,"Uncued",8,2294.902,2655.03,"Include",160
"JKD2013_e1","JKD2013_e1_3",1,"CueLikelyOld",8,1544.015,1736.127,"Include",161
"JKD2013_e1","JKD2013_e1_3",0,"CueLikelyOld",2,1416.564,2024.753,"Include",162
"JKD2013_e1","JKD2013_e1_3",0,"CueLikelyOld",1,1799.207,2871.311,"Include",163
"JKD2013_e1","JKD2013_e1_3",1,"Uncued",7,1772.57,2340.128,"Include",164
"JKD2013_e1","JKD2013_e1_3",0,"CueLikelyOld",3,1671.741,2343.783,"Include",165
"JKD2013_e1","JKD2013_e1_3",1,"CueLikelyOld",8,1761.227,2032.941,"Include",166
"JKD2013_e1","JKD2013_e1_3",1,"Uncued",8,1095.597,1303.488,"Include",167
"JKD2013_e1","JKD2013_e1_3",1,"CueLikelyNew",8,2134.703,2566.273,"Include",168
"JKD2013_e1","JKD2013_e1_3",1,"Uncued",8,1214.202,1414.006,"Include",169
"JKD2013_e1","JKD2013_e1_3",1,"Uncued",8,2367.357,3119.392,"Include",170
"JKD2013_e1","JKD2013_e1_3",1,"CueLikelyNew",6,1929.023,2401.071,"Include",171
"JKD2013_e1","JKD2013_e1_3",0,"CueLikelyNew",2,1488.3,2248.433,"Include",172
"JKD2013_e1","JKD2013_e1_3",1,"CueLikelyOld",5,2254.768,2654.688,"Include",173
"JKD2013_e1","JKD2013_e1_3",1,"CueLikelyNew",8,1792.673,2064.367,"Include",174
"JKD2013_e1","JKD2013_e1_3",0,"Uncued",2,1953.351,2240.933,"Include",175
"JKD2013_e1","JKD2013_e1_3",0,"Uncued",3,1831.472,2543.774,"Include",176
"JKD2013_e1","JKD2013_e1_3",1,"CueLikelyNew",8,1789.136,2669.177,"Include",177
"JKD2013_e1","JKD2013_e1_3",1,"CueLikelyOld",7,1774.983,2294.744,"Include",178
"JKD2013_e1","JKD2013_e1_3",1,"CueLikelyOld",6,2033.636,2897.625,"Include",179
"JKD2013_e1","JKD2013_e1_3",1,"CueLikelyOld",6,2245.67,3237.526,"Include",180
"JKD2013_e1","JKD2013_e1_3",0,"Uncued",3,2435.756,3099.829,"Include",181
"JKD2013_e1","JKD2013_e1_3",1,"CueLikelyOld",8,1273.23,1481.244,"Include",182
"JKD2013_e1","JKD2013_e1_3",1,"CueLikelyNew",8,1499.257,2123.065,"Include",183
"JKD2013_e1","JKD2013_e1_3",1,"CueLikelyOld",7,1860.333,2860.591,"Include",184
"JKD2013_e1","JKD2013_e1_3",1,"CueLikelyOld",5,2158.152,2894.537,"Include",185
"JKD2013_e1","JKD2013_e1_3",0,"CueLikelyNew",1,1775.702,2119.68,"Include",186
"JKD2013_e1","JKD2013_e1_3",0,"CueLikelyNew",2,1961.323,2713.266,"Include",187
"JKD2013_e1","JKD2013_e1_3",1,"CueLikelyOld",7,1537.534,2209.465,"Include",188
"JKD2013_e1","JKD2013_e1_3",0,"CueLikelyNew",1,1728.374,2184.508,"Include",189
"JKD2013_e1","JKD2013_e1_3",1,"CueLikelyOld",5,2798.728,3214.669,"Include",190
"JKD2013_e1","JKD2013_e1_3",0,"CueLikelyNew",4,1834.276,2762.106,"Include",191
"JKD2013_e1","JKD2013_e1_3",0,"CueLikelyNew",3,2205.354,2701.421,"Include",192
"JKD2013_e1","JKD2013_e1_3",1,"CueLikelyOld",8,1199.32,1390.883,"Include",193
"JKD2013_e1","JKD2013_e1_3",1,"CueLikelyOld",8,1504.82,1920.658,"Include",194
"JKD2013_e1","JKD2013_e1_3",0,"CueLikelyNew",2,1610.338,2402.651,"Include",195
"JKD2013_e1","JKD2013_e1_3",0,"CueLikelyNew",3,1793.639,2809.649,"Include",196
"JKD2013_e1","JKD2013_e1_3",0,"CueLikelyNew",2,1478.444,2374.508,"Include",197
"JKD2013_e1","JKD2013_e1_3",1,"Uncued",6,1404.978,3229.392,"Include",198
"JKD2013_e1","JKD2013_e1_3",1,"CueLikelyOld",8,2850.266,3058.356,"Include",199
"JKD2013_e1","JKD2013_e1_3",1,"CueLikelyOld",6,1562.052,2578.325,"Include",200
"JKD2013_e1","JKD2013_e1_3",1,"CueLikelyOld",8,1429.268,1644.693,"Include",201
"JKD2013_e1","JKD2013_e1_3",0,"CueLikelyNew",1,1406.223,2142.646,"Include",202
"JKD2013_e1","JKD2013_e1_3",0,"CueLikelyNew",2,1191.945,1991.994,"Include",203
"JKD2013_e1","JKD2013_e1_3",0,"CueLikelyOld",4,2057.62,3017.696,"Include",204
"JKD2013_e1","JKD2013_e1_3",1,"CueLikelyOld",8,1065.282,1257.222,"Include",205
"JKD2013_e1","JKD2013_e1_3",0,"CueLikelyNew",3,1166.204,1846.246,"Include",206
"JKD2013_e1","JKD2013_e1_3",0,"CueLikelyNew",1,961.5655,1866.034,"Include",207
"JKD2013_e1","JKD2013_e1_3",0,"CueLikelyOld",3,1867.464,2515.643,"Include",208
"JKD2013_e1","JKD2013_e1_3",0,"CueLikelyNew",2,1879.765,2775.375,"Include",209
"JKD2013_e1","JKD2013_e1_3",1,"CueLikelyOld",7,2048.948,2825.201,"Include",210
"JKD2013_e1","JKD2013_e1_3",1,"CueLikelyOld",8,1473.448,1681.596,"Include",211
"JKD2013_e1","JKD2013_e1_3",0,"CueLikelyOld",2,1335.997,2455.634,"Include",212
"JKD2013_e1","JKD2013_e1_3",0,"Uncued",2,1552.995,1768.939,"Include",213
"JKD2013_e1","JKD2013_e1_3",0,"Uncued",3,1914.521,2450.604,"Include",214
"JKD2013_e1","JKD2013_e1_3",1,"Uncued",8,1251.227,1443.24,"Include",215
"JKD2013_e1","JKD2013_e1_3",1,"CueLikelyOld",8,1521.983,1713.739,"Include",216
"JKD2013_e1","JKD2013_e1_3",1,"CueLikelyOld",8,1368.305,1552.526,"Include",217
"JKD2013_e1","JKD2013_e1_3",1,"CueLikelyOld",8,1304.202,1496.293,"Include",218
"JKD2013_e1","JKD2013_e1_3",0,"Uncued",1,1938.272,2354.281,"Include",219
"JKD2013_e1","JKD2013_e1_3",0,"CueLikelyNew",1,1243.502,1763.733,"Include",220
"JKD2013_e1","JKD2013_e1_3",1,"CueLikelyNew",7,1746.438,2210.426,"Include",221
"JKD2013_e1","JKD2013_e1_3",0,"CueLikelyOld",4,2193.365,2801.24,"Include",222
"JKD2013_e1","JKD2013_e1_3",1,"CueLikelyNew",8,1360.309,1520.281,"Include",223
"JKD2013_e1","JKD2013_e1_3",0,"CueLikelyOld",2,2545.937,3017.989,"Include",224
"JKD2013_e1","JKD2013_e1_3",0,"CueLikelyNew",3,1771.537,2267.992,"Include",225
"JKD2013_e1","JKD2013_e1_3",0,"CueLikelyOld",2,2019.036,2539.082,"Include",226
"JKD2013_e1","JKD2013_e1_3",0,"CueLikelyNew",99,3001.662,3291.658,"Exclude",227
"JKD2013_e1","JKD2013_e1_3",0,"CueLikelyNew",99,2032.166,3290.034,"Exclude",228
"JKD2013_e1","JKD2013_e1_3",0,"CueLikelyNew",2,1338.808,2554.882,"Include",229
"JKD2013_e1","JKD2013_e1_3",1,"Uncued",8,1228.113,1555.777,"Include",230
"JKD2013_e1","JKD2013_e1_3",1,"CueLikelyOld",8,1270.027,1446.244,"Include",231
"JKD2013_e1","JKD2013_e1_3",1,"CueLikelyOld",6,2223.658,2831.746,"Include",232
"JKD2013_e1","JKD2013_e1_3",0,"CueLikelyNew",3,1513.148,2185.735,"Include",233
"JKD2013_e1","JKD2013_e1_3",0,"CueLikelyNew",2,1402.855,2339.288,"Include",234
"JKD2013_e1","JKD2013_e1_3",1,"CueLikelyOld",8,1212.388,1428.762,"Include",235
"JKD2013_e1","JKD2013_e1_3",0,"CueLikelyNew",3,1651.205,2690.993,"Include",236
"JKD2013_e1","JKD2013_e1_3",0,"CueLikelyNew",3,2121.475,2745.506,"Include",237
"JKD2013_e1","JKD2013_e1_3",1,"Uncued",6,2160.044,3136.069,"Include",238
"JKD2013_e1","JKD2013_e1_3",0,"CueLikelyOld",3,1878.537,2646.973,"Include",239
"JKD2013_e1","JKD2013_e1_3",1,"CueLikelyOld",8,907.9017,1108.113,"Include",240
"JKD2013_e1","JKD2013_e1_3",1,"CueLikelyOld",8,1045.556,1229.716,"Include",241
"JKD2013_e1","JKD2013_e1_3",0,"CueLikelyOld",2,1485.025,1781.151,"Include",242
"JKD2013_e1","JKD2013_e1_3",0,"CueLikelyNew",1,1348.072,1740.051,"Include",243
"JKD2013_e1","JKD2013_e1_3",0,"CueLikelyNew",1,1090.473,1410.146,"Include",244
"JKD2013_e1","JKD2013_e1_3",0,"CueLikelyNew",1,1080.79,1888.935,"Include",245
"JKD2013_e1","JKD2013_e1_3",1,"Uncued",8,1445.737,1638.096,"Include",246
"JKD2013_e1","JKD2013_e1_3",0,"CueLikelyNew",1,1311.969,1600.071,"Include",247
"JKD2013_e1","JKD2013_e1_3",0,"Uncued",2,1843.206,2243.197,"Include",248
"JKD2013_e1","JKD2013_e1_3",0,"CueLikelyNew",1,1292.826,1668.882,"Include",249
"JKD2013_e1","JKD2013_e1_3",1,"CueLikelyOld",8,1198.337,1446.442,"Include",250
"JKD2013_e1","JKD2013_e1_3",0,"CueLikelyOld",2,1436.957,1973.451,"Include",251
"JKD2013_e1","JKD2013_e1_3",1,"CueLikelyOld",8,1251.817,1451.759,"Include",252
"JKD2013_e1","JKD2013_e1_3",1,"CueLikelyOld",8,1010.008,1226.389,"Include",253
"JKD2013_e1","JKD2013_e1_3",1,"CueLikelyOld",7,2112.956,2768.875,"Include",254
"JKD2013_e1","JKD2013_e1_3",0,"CueLikelyNew",1,1022.048,1358.227,"Include",255
"JKD2013_e1","JKD2013_e1_3",0,"CueLikelyOld",3,1783.697,2383.777,"Include",256
"JKD2013_e1","JKD2013_e1_3",1,"CueLikelyOld",7,1802.62,2730.641,"Include",257
"JKD2013_e1","JKD2013_e1_3",0,"CueLikelyNew",2,2110.217,2630.219,"Include",258
"JKD2013_e1","JKD2013_e1_3",1,"CueLikelyNew",8,1134.376,1318.619,"Include",259
"JKD2013_e1","JKD2013_e1_3",0,"CueLikelyNew",1,1299.261,1675.373,"Include",260
"JKD2013_e1","JKD2013_e1_3",1,"CueLikelyOld",8,1241.905,2058.29,"Include",261
"JKD2013_e1","JKD2013_e1_3",1,"Uncued",8,864.4526,1048.328,"Include",262
"JKD2013_e1","JKD2013_e1_3",1,"CueLikelyNew",6,2575.366,3150.969,"Include",263
"JKD2013_e1","JKD2013_e1_3",1,"CueLikelyOld",8,1032.651,1192.659,"Include",264
"JKD2013_e1","JKD2013_e1_3",0,"Uncued",1,1474.302,1962.331,"Include",265
"JKD2013_e1","JKD2013_e1_3",0,"CueLikelyOld",1,1235.757,1795.768,"Include",266
"JKD2013_e1","JKD2013_e1_3",0,"CueLikelyNew",1,1469.489,1973.507,"Include",267
"JKD2013_e1","JKD2013_e1_3",0,"CueLikelyNew",1,1142.578,1423.078,"Include",268
"JKD2013_e1","JKD2013_e1_3",0,"CueLikelyOld",1,2126.016,2390.514,"Include",269
"JKD2013_e1","JKD2013_e1_3",1,"CueLikelyOld",5,2220.722,2660.655,"Include",270
"JKD2013_e1","JKD2013_e1_3",0,"CueLikelyOld",3,1859.26,2723.272,"Include",271
"JKD2013_e1","JKD2013_e1_3",0,"CueLikelyNew",1,1498.112,1777.792,"Include",272
"JKD2013_e1","JKD2013_e1_3",1,"CueLikelyOld",7,1479.182,1831.051,"Include",273
"JKD2013_e1","JKD2013_e1_3",0,"CueLikelyNew",1,1042.71,1267.179,"Include",274
"JKD2013_e1","JKD2013_e1_3",1,"CueLikelyOld",6,2020.497,2436.801,"Include",275
"JKD2013_e1","JKD2013_e1_3",1,"Uncued",8,1990.522,2350.103,"Include",276
"JKD2013_e1","JKD2013_e1_3",0,"CueLikelyOld",3,1983.748,2471.904,"Include",277
"JKD2013_e1","JKD2013_e1_3",1,"CueLikelyOld",7,1462.031,2118.043,"Include",278
"JKD2013_e1","JKD2013_e1_3",1,"CueLikelyOld",8,1077.099,1252.939,"Include",279
"JKD2013_e1","JKD2013_e1_3",0,"CueLikelyNew",1,1259.068,1459.398,"Include",280
"JKD2013_e1","JKD2013_e1_3",1,"Uncued",7,2078.147,2478.157,"Include",281
"JKD2013_e1","JKD2013_e1_3",0,"CueLikelyOld",1,1615.663,1936.186,"Include",282
"JKD2013_e1","JKD2013_e1_3",0,"CueLikelyOld",3,1755.85,2315.852,"Include",283
"JKD2013_e1","JKD2013_e1_3",1,"CueLikelyOld",8,1965.51,2221.467,"Include",284
"JKD2013_e1","JKD2013_e1_3",0,"Uncued",3,2183.113,2879.576,"Include",285
"JKD2013_e1","JKD2013_e1_3",0,"CueLikelyNew",3,1454.258,2102.155,"Include",286
"JKD2013_e1","JKD2013_e1_3",1,"CueLikelyOld",6,1987.797,2635.889,"Include",287
"JKD2013_e1","JKD2013_e1_3",1,"CueLikelyOld",8,1439.912,1944.451,"Include",288
"JKD2013_e1","JKD2013_e1_3",1,"CueLikelyOld",8,1078.853,1262.495,"Include",289
"JKD2013_e1","JKD2013_e1_3",1,"CueLikelyOld",8,1149.257,1317.087,"Include",290
"JKD2013_e1","JKD2013_e1_3",0,"CueLikelyNew",1,1268.609,1524.878,"Include",291
"JKD2013_e1","JKD2013_e1_3",0,"Uncued",2,1902.568,2398.677,"Include",292
"JKD2013_e1","JKD2013_e1_3",1,"CueLikelyOld",8,1415.958,1600.451,"Include",293
"JKD2013_e1","JKD2013_e1_3",0,"Uncued",3,1979.246,2515.239,"Include",294
"JKD2013_e1","JKD2013_e1_3",0,"CueLikelyNew",3,2036.827,2869.074,"Include",295
"JKD2013_e1","JKD2013_e1_3",1,"CueLikelyNew",6,1760.021,2720.443,"Include",296
"JKD2013_e1","JKD2013_e1_3",1,"CueLikelyOld",7,1846.342,2238.758,"Include",297
"JKD2013_e1","JKD2013_e1_3",1,"CueLikelyNew",8,981.3141,1405.137,"Include",298
"JKD2013_e1","JKD2013_e1_3",0,"Uncued",2,1379.357,2299.714,"Include",299
"JKD2013_e1","JKD2013_e1_3",0,"CueLikelyNew",1,1207.365,1479.637,"Include",300
"JKD2013_e1","JKD2013_e1_3",1,"Uncued",8,928.9337,1128.889,"Include",301
"JKD2013_e1","JKD2013_e1_3",0,"CueLikelyOld",2,1466.759,2714.534,"Include",302
"JKD2013_e1","JKD2013_e1_3",0,"CueLikelyNew",1,1748.169,2052.347,"Include",303
"JKD2013_e1","JKD2013_e1_3",0,"CueLikelyNew",3,1933.72,2645.794,"Include",304
"JKD2013_e1","JKD2013_e1_3",0,"Uncued",2,1647.403,2607.804,"Include",305
"JKD2013_e1","JKD2013_e1_3",0,"Uncued",2,1560.089,2519.785,"Include",306
"JKD2013_e1","JKD2013_e1_3",1,"Uncued",6,2830.253,3150.522,"Include",307
"JKD2013_e1","JKD2013_e1_3",1,"CueLikelyOld",8,2276.87,2509.212,"Include",308
"JKD2013_e1","JKD2013_e1_3",0,"CueLikelyNew",2,1371.247,2107.299,"Include",309
"JKD2013_e1","JKD2013_e1_3",1,"Uncued",8,1369.916,1642.072,"Include",310
"JKD2013_e1","JKD2013_e1_3",1,"CueLikelyOld",8,1186.237,1369.951,"Include",311
"JKD2013_e1","JKD2013_e1_3",1,"CueLikelyOld",8,955.4318,1147.823,"Include",312
"JKD2013_e1","JKD2013_e1_3",0,"CueLikelyOld",1,1117.011,1357.066,"Include",313
"JKD2013_e1","JKD2013_e1_3",1,"CueLikelyOld",8,1624.346,2296.664,"Include",314
"JKD2013_e1","JKD2013_e1_3",1,"CueLikelyOld",8,1072.973,1257.56,"Include",315
"JKD2013_e1","JKD2013_e1_3",1,"CueLikelyNew",7,1607.607,2383.456,"Include",316
"JKD2013_e1","JKD2013_e1_3",1,"CueLikelyNew",8,1870.152,2070.366,"Include",317
"JKD2013_e1","JKD2013_e1_3",1,"CueLikelyNew",8,1508.87,1708.634,"Include",318
"JKD2013_e1","JKD2013_e1_3",0,"Uncued",2,2379.578,2651.616,"Include",319
"JKD2013_e1","JKD2013_e1_3",0,"CueLikelyNew",1,1737.615,2193.724,"Include",320
"JKD2013_e1","JKD2013_e1_3",0,"CueLikelyNew",1,1098.742,1530.803,"Include",321
"JKD2013_e1","JKD2013_e1_3",1,"CueLikelyNew",7,1268.275,1716.442,"Include",322
"JKD2013_e1","JKD2013_e1_3",0,"CueLikelyNew",1,1574.018,2070.105,"Include",323
"JKD2013_e1","JKD2013_e1_3",0,"CueLikelyNew",3,1711.798,2295.677,"Include",324
"JKD2013_e1","JKD2013_e1_3",0,"CueLikelyNew",3,1649.375,2561.312,"Include",325
"JKD2013_e1","JKD2013_e1_3",1,"CueLikelyNew",8,1511.954,1831.899,"Include",326
"JKD2013_e1","JKD2013_e1_3",1,"Uncued",8,1189.977,1390.435,"Include",327
"JKD2013_e1","JKD2013_e1_3",0,"CueLikelyNew",1,1972.493,2796.591,"Include",328
"JKD2013_e1","JKD2013_e1_3",0,"CueLikelyNew",2,2217.31,3057.65,"Include",329
"JKD2013_e1","JKD2013_e1_3",0,"CueLikelyNew",3,2257.585,2753.922,"Include",330
"JKD2013_e1","JKD2013_e1_3",1,"CueLikelyOld",6,1464.044,2768.52,"Include",331
"JKD2013_e1","JKD2013_e1_3",1,"CueLikelyNew",8,1093.658,1269.845,"Include",332
"JKD2013_e1","JKD2013_e1_3",1,"CueLikelyOld",1,2343.422,3285.566,"Exclude",333
"JKD2013_e1","JKD2013_e1_3",1,"CueLikelyOld",7,2458.618,2834.373,"Include",334
"JKD2013_e1","JKD2013_e1_3",0,"CueLikelyNew",1,1249.236,2105.232,"Include",335
"JKD2013_e1","JKD2013_e1_3",1,"Uncued",6,1207.679,2439.279,"Include",336
"JKD2013_e1","JKD2013_e1_3",1,"CueLikelyOld",8,1263.058,1439.365,"Include",337
"JKD2013_e1","JKD2013_e1_3",1,"CueLikelyNew",6,1314.263,1962.547,"Include",338
"JKD2013_e1","JKD2013_e1_3",1,"CueLikelyOld",8,1520.262,1703.948,"Include",339
"JKD2013_e1","JKD2013_e1_3",0,"CueLikelyNew",2,1726.349,2958.459,"Include",340
"JKD2013_e1","JKD2013_e1_3",1,"CueLikelyOld",7,1367.772,2040.294,"Include",341
"JKD2013_e1","JKD2013_e1_3",0,"CueLikelyNew",1,1265.901,1625.581,"Include",342
"JKD2013_e1","JKD2013_e1_3",1,"CueLikelyNew",6,1290.143,2026.501,"Include",343
"JKD2013_e1","JKD2013_e1_3",0,"CueLikelyOld",1,1350.374,1534.215,"Include",344
"JKD2013_e1","JKD2013_e1_3",1,"CueLikelyOld",7,2223.974,2712.396,"Include",345
"JKD2013_e1","JKD2013_e1_3",0,"CueLikelyNew",1,2121.694,2817.852,"Include",346
"JKD2013_e1","JKD2013_e1_3",1,"CueLikelyOld",7,1419.048,2547.182,"Include",347
"JKD2013_e1","JKD2013_e1_3",0,"CueLikelyNew",3,1967.899,2831.903,"Include",348
"JKD2013_e1","JKD2013_e1_3",1,"Uncued",7,2088.862,2697.229,"Include",349
"JKD2013_e1","JKD2013_e1_3",0,"CueLikelyNew",3,1922.457,2754.755,"Include",350
"JKD2013_e1","JKD2013_e1_3",0,"CueLikelyNew",1,1697.992,2154.022,"Include",351
"JKD2013_e1","JKD2013_e1_3",0,"Uncued",2,1550.051,2397.781,"Include",352
"JKD2013_e1","JKD2013_e1_3",0,"CueLikelyNew",2,1559.291,2807.194,"Include",353
"JKD2013_e1","JKD2013_e1_3",1,"CueLikelyOld",1,2400.891,3291.099,"Exclude",354
"JKD2013_e1","JKD2013_e1_3",0,"Uncued",1,1394.918,1570.872,"Include",355
"JKD2013_e1","JKD2013_e1_3",1,"Uncued",8,1298.651,1498.583,"Include",356
"JKD2013_e1","JKD2013_e1_3",1,"Uncued",8,1273.751,1490.17,"Include",357
"JKD2013_e1","JKD2013_e1_3",0,"Uncued",2,1596.998,2293.098,"Include",358
"JKD2013_e1","JKD2013_e1_3",1,"CueLikelyOld",8,1391.006,1543.106,"Include",359
"JKD2013_e1","JKD2013_e1_3",0,"CueLikelyOld",3,1339.804,1948.233,"Include",360
"JKD2013_e1","JKD2013_e1_3",0,"CueLikelyOld",1,1053.817,1237.903,"Include",361
"JKD2013_e1","JKD2013_e1_3",1,"CueLikelyOld",8,935.5642,1103.489,"Include",362
"JKD2013_e1","JKD2013_e1_3",0,"CueLikelyNew",2,1481.12,2120.687,"Include",363
"JKD2013_e1","JKD2013_e1_3",0,"CueLikelyNew",1,1152.393,1496.091,"Include",364
"JKD2013_e1","JKD2013_e1_3",1,"CueLikelyOld",8,1157.115,1469.084,"Include",365
"JKD2013_e1","JKD2013_e1_3",1,"CueLikelyNew",6,1631.567,2071.519,"Include",366
"JKD2013_e1","JKD2013_e1_3",0,"CueLikelyNew",1,1252.881,1940.913,"Include",367
"JKD2013_e1","JKD2013_e1_3",0,"CueLikelyNew",1,1046.705,1518.515,"Include",368
"JKD2013_e1","JKD2013_e1_3",1,"CueLikelyOld",6,1984.101,2728.157,"Include",369
"JKD2013_e1","JKD2013_e1_3",0,"CueLikelyNew",2,1537.755,2057.38,"Include",370
"JKD2013_e1","JKD2013_e1_3",1,"CueLikelyOld",8,1726.503,1902.441,"Include",371
"JKD2013_e1","JKD2013_e1_3",1,"CueLikelyOld",8,934.426,1126.49,"Include",372
"JKD2013_e1","JKD2013_e1_3",0,"CueLikelyNew",3,2401.795,2642.006,"Include",373
"JKD2013_e1","JKD2013_e1_3",0,"CueLikelyOld",3,2128.983,3000.661,"Include",374
"JKD2013_e1","JKD2013_e1_3",0,"CueLikelyNew",1,1383.16,1607.467,"Include",375
"JKD2013_e1","JKD2013_e1_3",0,"Uncued",1,1959.752,2215.424,"Include",376
"JKD2013_e1","JKD2013_e1_3",0,"CueLikelyNew",1,1385.024,1633.041,"Include",377
"JKD2013_e1","JKD2013_e1_3",1,"Uncued",6,1881.506,2649.288,"Include",378
"JKD2013_e1","JKD2013_e1_3",0,"CueLikelyNew",2,1452.19,1636.214,"Include",379
"JKD2013_e1","JKD2013_e1_3",1,"CueLikelyNew",8,1447.847,1983.469,"Include",380
"JKD2013_e1","JKD2013_e1_3",0,"CueLikelyNew",2,1337.046,2513.072,"Include",381
"JKD2013_e1","JKD2013_e1_3",1,"CueLikelyNew",8,1817.75,2073.822,"Include",382
"JKD2013_e1","JKD2013_e1_3",0,"CueLikelyNew",2,1789.508,2437.93,"Include",383
"JKD2013_e1","JKD2013_e1_3",1,"CueLikelyOld",8,1476.07,1644.124,"Include",384
"JKD2013_e1","JKD2013_e1_3",1,"CueLikelyOld",8,922.3907,1106.016,"Include",385
"JKD2013_e1","JKD2013_e1_3",1,"CueLikelyOld",7,1819.812,2011.477,"Include",386
"JKD2013_e1","JKD2013_e1_3",0,"CueLikelyNew",1,1293.545,1501.57,"Include",387
"JKD2013_e1","JKD2013_e1_3",1,"CueLikelyOld",8,1207.167,1383.016,"Include",388
"JKD2013_e1","JKD2013_e1_3",1,"Uncued",8,1354.044,1506.222,"Include",389
"JKD2013_e1","JKD2013_e1_3",1,"Uncued",7,1778.184,2145.805,"Include",390
"JKD2013_e1","JKD2013_e1_3",0,"CueLikelyNew",1,1448.239,1696.685,"Include",391
"JKD2013_e1","JKD2013_e1_3",1,"CueLikelyOld",6,1735.212,2039.084,"Include",392
"JKD2013_e1","JKD2013_e1_3",1,"CueLikelyOld",8,1011.874,1164.243,"Include",393
"JKD2013_e1","JKD2013_e1_3",1,"Uncued",7,1564.928,1988.89,"Include",394
"JKD2013_e1","JKD2013_e1_3",0,"Uncued",1,1454.52,1606.096,"Include",395
"JKD2013_e1","JKD2013_e1_3",0,"Uncued",1,1359.954,1584.138,"Include",396
"JKD2013_e1","JKD2013_e1_3",1,"Uncued",8,1273.841,1425.386,"Include",397
"JKD2013_e1","JKD2013_e1_3",1,"CueLikelyOld",8,1185.958,1377.638,"Include",398
"JKD2013_e1","JKD2013_e1_3",1,"CueLikelyOld",7,1920.121,2424.575,"Include",399
"JKD2013_e1","JKD2013_e1_3",0,"CueLikelyNew",2,1798.75,2382.566,"Include",400
"JKD2013_e1","JKD2013_e1_3",0,"CueLikelyOld",2,2637.676,2805.151,"Include",401
"JKD2013_e1","JKD2013_e1_3",0,"Uncued",1,1155.264,1315.323,"Include",402
"JKD2013_e1","JKD2013_e1_3",1,"CueLikelyOld",8,1306.507,1466.762,"Include",403
"JKD2013_e1","JKD2013_e1_3",1,"CueLikelyOld",8,1525.775,1701.79,"Include",404
"JKD2013_e1","JKD2013_e1_3",0,"CueLikelyNew",3,2247.034,2703.478,"Include",405
"JKD2013_e1","JKD2013_e1_3",1,"CueLikelyOld",7,1848.666,2448.715,"Include",406
"JKD2013_e1","JKD2013_e1_3",1,"CueLikelyOld",7,1640.495,2088.408,"Include",407
"JKD2013_e1","JKD2013_e1_3",1,"CueLikelyOld",8,830.9766,984.0642,"Include",408
"JKD2013_e1","JKD2013_e1_3",1,"CueLikelyOld",7,1490.682,1874.339,"Include",409
"JKD2013_e1","JKD2013_e1_3",0,"CueLikelyNew",3,1667.644,2027.987,"Include",410
"JKD2013_e1","JKD2013_e1_3",0,"CueLikelyNew",2,1682.148,2514.207,"Include",411
"JKD2013_e1","JKD2013_e1_3",1,"CueLikelyNew",6,1408.452,2000.048,"Include",412
"JKD2013_e1","JKD2013_e1_3",0,"CueLikelyOld",2,2553.651,2873.684,"Include",413
"JKD2013_e1","JKD2013_e1_3",1,"CueLikelyOld",6,2075.312,2563.633,"Include",414
"JKD2013_e1","JKD2013_e1_3",0,"CueLikelyOld",2,1449.347,2561.476,"Include",415
"JKD2013_e1","JKD2013_e1_3",0,"CueLikelyNew",1,1160.436,1984.474,"Include",416
"JKD2013_e1","JKD2013_e1_3",1,"Uncued",8,1722.008,2090.02,"Include",417
"JKD2013_e1","JKD2013_e1_3",0,"CueLikelyNew",3,1787.676,2307.326,"Include",418
"JKD2013_e1","JKD2013_e1_3",1,"Uncued",6,2235.702,2811.546,"Include",419
"JKD2013_e1","JKD2013_e1_3",0,"CueLikelyNew",1,1281.975,1450.314,"Include",420
"JKD2013_e1","JKD2013_e1_3",0,"CueLikelyNew",3,1288.57,2192.899,"Include",421
"JKD2013_e1","JKD2013_e1_3",1,"Uncued",8,1168.81,1352.931,"Include",422
"JKD2013_e1","JKD2013_e1_3",1,"CueLikelyOld",6,1530.822,2258.596,"Include",423
"JKD2013_e1","JKD2013_e1_3",1,"CueLikelyOld",8,1812.167,2508.189,"Include",424
"JKD2013_e1","JKD2013_e1_3",1,"CueLikelyOld",1,2683.076,3285.069,"Exclude",425
"JKD2013_e1","JKD2013_e1_3",1,"CueLikelyOld",8,1247.404,1447.772,"Include",426
"JKD2013_e1","JKD2013_e1_3",1,"CueLikelyOld",8,825.0001,1017.332,"Include",427
"JKD2013_e1","JKD2013_e1_3",0,"CueLikelyNew",2,1346.632,1922.964,"Include",428
"JKD2013_e1","JKD2013_e1_3",0,"CueLikelyOld",3,2068.588,2732.296,"Include",429
"JKD2013_e1","JKD2013_e1_3",0,"CueLikelyOld",4,2043.37,2507.538,"Include",430
"JKD2013_e1","JKD2013_e1_3",0,"CueLikelyNew",2,1201.861,1994.247,"Include",431
"JKD2013_e1","JKD2013_e1_3",0,"Uncued",1,1264.767,1592.576,"Include",432
"JKD2013_e1","JKD2013_e1_3",1,"Uncued",8,927.2765,1103.298,"Include",433
"JKD2013_e1","JKD2013_e1_3",1,"Uncued",6,1556.029,2332.401,"Include",434
