"exp","id","item","trial","isold","condition1","rating","RT","excluding"
"KAWY2013_e2","KAWY2013_e2_1","HIND",1,1,"Full",1,757,"Include"
"KAWY2013_e2","KAWY2013_e2_1","FRICTION",2,1,"Full",6,721,"Include"
"KAWY2013_e2","KAWY2013_e2_1","ERRAND",3,0,"Full",3,1054,"Include"
"KAWY2013_e2","KAWY2013_e2_1","BARK",4,1,"Full",6,667,"Include"
"KAWY2013_e2","KAWY2013_e2_1","BAYONET",5,0,"Full",1,552,"Include"
"KAWY2013_e2","KAWY2013_e2_1","GESTURE",6,0,"Full",4,1253,"Include"
"KAWY2013_e2","KAWY2013_e2_1","STATUE",7,1,"Full",6,642,"Include"
"KAWY2013_e2","KAWY2013_e2_1","LEVER",8,0,"Full",4,1071,"Include"
"KAWY2013_e2","KAWY2013_e2_1","NAIL",9,1,"Full",6,908,"Include"
"KAWY2013_e2","KAWY2013_e2_1","FABRIC",10,1,"Full",6,409,"Include"
"KAWY2013_e2","KAWY2013_e2_1","TUBE",11,1,"Full",6,678,"Include"
"KAWY2013_e2","KAWY2013_e2_1","AISLE",12,0,"Full",1,1396,"Include"
"KAWY2013_e2","KAWY2013_e2_1","BRAIN",13,0,"Full",1,673,"Include"
"KAWY2013_e2","KAWY2013_e2_1","RACKET",14,1,"Full",6,606,"Include"
"KAWY2013_e2","KAWY2013_e2_1","STAKE",15,0,"Full",1,700,"Include"
"KAWY2013_e2","KAWY2013_e2_1","FLOOD",16,0,"Full",2,761,"Include"
"KAWY2013_e2","KAWY2013_e2_1","ACRE",17,0,"Full",2,1014,"Include"
"KAWY2013_e2","KAWY2013_e2_1","DAYLIGHT",18,0,"Full",1,531,"Include"
"KAWY2013_e2","KAWY2013_e2_1","CURB",19,1,"Full",6,528,"Include"
"KAWY2013_e2","KAWY2013_e2_1","GOLF",20,0,"Full",4,1326,"Include"
"KAWY2013_e2","KAWY2013_e2_1","HOLIDAY",21,1,"Full",5,794,"Include"
"KAWY2013_e2","KAWY2013_e2_1","PARTNER",22,0,"Full",6,680,"Include"
"KAWY2013_e2","KAWY2013_e2_1","TRAIL",23,1,"Full",6,532,"Include"
"KAWY2013_e2","KAWY2013_e2_1","BRONZE",24,1,"Full",6,466,"Include"
"KAWY2013_e2","KAWY2013_e2_1","TRAY",25,1,"Full",6,750,"Include"
"KAWY2013_e2","KAWY2013_e2_1","HAIL",26,1,"Full",6,571,"Include"
"KAWY2013_e2","KAWY2013_e2_1","WAVE",27,1,"Full",3,1095,"Include"
"KAWY2013_e2","KAWY2013_e2_1","SALAD",28,0,"Full",2,1125,"Include"
"KAWY2013_e2","KAWY2013_e2_1","WIDOW",29,1,"Full",6,546,"Include"
"KAWY2013_e2","KAWY2013_e2_1","SWAMP",30,0,"Full",1,767,"Include"
"KAWY2013_e2","KAWY2013_e2_1","TROLLEY",31,0,"Full",2,1085,"Include"
"KAWY2013_e2","KAWY2013_e2_1","PUNCH",32,0,"Full",2,1002,"Include"
"KAWY2013_e2","KAWY2013_e2_1","LIQUID",33,1,"Full",6,615,"Include"
"KAWY2013_e2","KAWY2013_e2_1","CONE",34,0,"Full",5,964,"Include"
"KAWY2013_e2","KAWY2013_e2_1","HIDE",35,1,"Full",3,1313,"Include"
"KAWY2013_e2","KAWY2013_e2_1","WALLET",36,1,"Full",6,575,"Include"
"KAWY2013_e2","KAWY2013_e2_1","MOLECULE",37,0,"Full",2,1068,"Include"
"KAWY2013_e2","KAWY2013_e2_1","LUNCH",38,1,"Full",6,633,"Include"
"KAWY2013_e2","KAWY2013_e2_1","CARDINAL",39,1,"Full",6,503,"Include"
"KAWY2013_e2","KAWY2013_e2_1","BRUSH",40,0,"Full",2,1236,"Include"
"KAWY2013_e2","KAWY2013_e2_1","ROAR",41,0,"Full",1,833,"Include"
"KAWY2013_e2","KAWY2013_e2_1","TEMPLE",42,1,"Full",6,815,"Include"
"KAWY2013_e2","KAWY2013_e2_1","TUNE",43,0,"Full",2,796,"Include"
"KAWY2013_e2","KAWY2013_e2_1","COMFORT",44,1,"Full",6,649,"Include"
"KAWY2013_e2","KAWY2013_e2_1","BREEZE",45,0,"Full",1,599,"Include"
"KAWY2013_e2","KAWY2013_e2_1","ANCHOR",46,1,"Full",6,452,"Include"
"KAWY2013_e2","KAWY2013_e2_1","THUNDER",47,0,"Full",2,945,"Include"
"KAWY2013_e2","KAWY2013_e2_1","STROKE",48,1,"Full",6,431,"Include"
"KAWY2013_e2","KAWY2013_e2_1","DEED",49,1,"Full",1,923,"Include"
"KAWY2013_e2","KAWY2013_e2_1","BATH",50,1,"Full",6,697,"Include"
"KAWY2013_e2","KAWY2013_e2_1","CABLE",51,0,"Full",1,902,"Include"
"KAWY2013_e2","KAWY2013_e2_1","SODIUM",52,1,"Full",6,483,"Include"
"KAWY2013_e2","KAWY2013_e2_1","COPPER",53,0,"Full",4,993,"Include"
"KAWY2013_e2","KAWY2013_e2_1","SOLE",54,1,"Full",6,654,"Include"
"KAWY2013_e2","KAWY2013_e2_1","CHAIN",55,1,"Full",6,459,"Include"
"KAWY2013_e2","KAWY2013_e2_1","OVEN",56,1,"Full",6,535,"Include"
"KAWY2013_e2","KAWY2013_e2_1","BUBBLE",57,0,"Full",2,788,"Include"
"KAWY2013_e2","KAWY2013_e2_1","RABBI",58,1,"Full",6,657,"Include"
"KAWY2013_e2","KAWY2013_e2_1","SPLIT",59,0,"Full",1,655,"Include"
"KAWY2013_e2","KAWY2013_e2_1","RECTOR",60,1,"Full",2,1004,"Include"
"KAWY2013_e2","KAWY2013_e2_1","BRASS",61,0,"Full",2,1065,"Include"
"KAWY2013_e2","KAWY2013_e2_1","HEEL",62,0,"Full",1,1126,"Include"
"KAWY2013_e2","KAWY2013_e2_1","DYNASTY",63,1,"Full",6,1139,"Include"
"KAWY2013_e2","KAWY2013_e2_1","QUACK",64,0,"Full",1,751,"Include"
"KAWY2013_e2","KAWY2013_e2_1","FOAM",65,1,"Full",6,508,"Include"
"KAWY2013_e2","KAWY2013_e2_1","NEPHEW",66,0,"Full",1,537,"Include"
"KAWY2013_e2","KAWY2013_e2_1","LENS",67,1,"Full",6,694,"Include"
"KAWY2013_e2","KAWY2013_e2_1","BORDER",68,1,"Full",6,691,"Include"
"KAWY2013_e2","KAWY2013_e2_1","PROFILE",69,0,"Full",1,1055,"Include"
"KAWY2013_e2","KAWY2013_e2_1","AUNT",70,1,"Full",6,476,"Include"
"KAWY2013_e2","KAWY2013_e2_1","POLL",71,0,"Full",2,1273,"Include"
"KAWY2013_e2","KAWY2013_e2_1","DISPLAY",72,1,"Full",2,775,"Include"
"KAWY2013_e2","KAWY2013_e2_1","PISTON",73,1,"Full",6,564,"Include"
"KAWY2013_e2","KAWY2013_e2_1","GRAVEL",74,0,"Full",1,753,"Include"
"KAWY2013_e2","KAWY2013_e2_1","NURSERY",75,0,"Full",2,782,"Include"
"KAWY2013_e2","KAWY2013_e2_1","GLARE",76,0,"Full",3,1019,"Include"
"KAWY2013_e2","KAWY2013_e2_1","MERCURY",77,1,"Full",6,505,"Include"
"KAWY2013_e2","KAWY2013_e2_1","PORT",78,0,"Full",1,933,"Include"
"KAWY2013_e2","KAWY2013_e2_1","CREATURE",79,1,"Full",6,610,"Include"
"KAWY2013_e2","KAWY2013_e2_1","WINK",80,0,"Full",2,719,"Include"
"KAWY2013_e2","KAWY2013_e2_1","EXHAUST",81,0,"Full",3,989,"Include"
"KAWY2013_e2","KAWY2013_e2_1","SACK",82,0,"Full",1,841,"Include"
"KAWY2013_e2","KAWY2013_e2_1","SINGER",83,1,"Full",6,854,"Include"
"KAWY2013_e2","KAWY2013_e2_1","JAIL",84,0,"Full",1,611,"Include"
"KAWY2013_e2","KAWY2013_e2_1","CRAFT",85,0,"Full",2,1152,"Include"
"KAWY2013_e2","KAWY2013_e2_1","TANK",86,0,"Full",3,1116,"Include"
"KAWY2013_e2","KAWY2013_e2_1","SAUCE",87,0,"Full",1,1066,"Include"
"KAWY2013_e2","KAWY2013_e2_1","CEREMONY",88,1,"Full",6,711,"Include"
"KAWY2013_e2","KAWY2013_e2_1","LEAF",89,1,"Full",6,500,"Include"
"KAWY2013_e2","KAWY2013_e2_1","POLISH",90,0,"Full",2,864,"Include"
"KAWY2013_e2","KAWY2013_e2_1","TENNIS",91,0,"Full",1,1277,"Include"
"KAWY2013_e2","KAWY2013_e2_1","GUIDE",92,1,"Full",6,650,"Include"
"KAWY2013_e2","KAWY2013_e2_1","SEAM",93,1,"Full",2,1080,"Include"
"KAWY2013_e2","KAWY2013_e2_1","SALOON",94,1,"Full",6,581,"Include"
"KAWY2013_e2","KAWY2013_e2_1","REFUSE",95,1,"Full",6,498,"Include"
"KAWY2013_e2","KAWY2013_e2_1","PALETTE",96,0,"Full",3,911,"Include"
"KAWY2013_e2","KAWY2013_e2_1","POISON",97,1,"Full",6,492,"Include"
"KAWY2013_e2","KAWY2013_e2_1","BUILDER",98,0,"Full",4,1258,"Include"
"KAWY2013_e2","KAWY2013_e2_1","SATIN",99,0,"Full",3,1271,"Include"
"KAWY2013_e2","KAWY2013_e2_1","REVOLVER",100,0,"Full",3,1012,"Include"
"KAWY2013_e2","KAWY2013_e2_1","BISHOP",1,0,"Divided",2,876,"Include"
"KAWY2013_e2","KAWY2013_e2_1","STEEL",2,0,"Divided",2,915,"Include"
"KAWY2013_e2","KAWY2013_e2_1","FATIGUE",3,0,"Divided",4,1466,"Include"
"KAWY2013_e2","KAWY2013_e2_1","CORAL",4,1,"Divided",6,1409,"Include"
"KAWY2013_e2","KAWY2013_e2_1","CANE",5,0,"Divided",4,1529,"Include"
"KAWY2013_e2","KAWY2013_e2_1","CHUCKLE",6,0,"Divided",4,1376,"Include"
"KAWY2013_e2","KAWY2013_e2_1","CANDLE",7,1,"Divided",5,935,"Include"
"KAWY2013_e2","KAWY2013_e2_1","YARD",8,0,"Divided",2,1341,"Include"
"KAWY2013_e2","KAWY2013_e2_1","GIFT",9,1,"Divided",6,1110,"Include"
"KAWY2013_e2","KAWY2013_e2_1","RIOT",10,1,"Divided",4,1452,"Include"
"KAWY2013_e2","KAWY2013_e2_1","DEPUTY",11,1,"Divided",6,1028,"Include"
"KAWY2013_e2","KAWY2013_e2_1","CURVE",12,0,"Divided",5,1275,"Include"
"KAWY2013_e2","KAWY2013_e2_1","EXPRESS",13,0,"Divided",3,1267,"Include"
"KAWY2013_e2","KAWY2013_e2_1","EDITION",14,0,"Divided",1,1146,"Include"
"KAWY2013_e2","KAWY2013_e2_1","REBEL",15,1,"Divided",4,1233,"Include"
"KAWY2013_e2","KAWY2013_e2_1","CHARTER",16,0,"Divided",4,985,"Include"
"KAWY2013_e2","KAWY2013_e2_1","TROOP",17,0,"Divided",2,1152,"Include"
"KAWY2013_e2","KAWY2013_e2_1","GIANT",18,1,"Divided",1,1111,"Include"
"KAWY2013_e2","KAWY2013_e2_1","BOIL",19,1,"Divided",5,1551,"Include"
"KAWY2013_e2","KAWY2013_e2_1","TIMBER",20,1,"Divided",6,1078,"Include"
"KAWY2013_e2","KAWY2013_e2_1","ORGAN",21,0,"Divided",1,765,"Include"
"KAWY2013_e2","KAWY2013_e2_1","PASTOR",22,1,"Divided",4,1029,"Include"
"KAWY2013_e2","KAWY2013_e2_1","SMELL",23,0,"Divided",1,1020,"Include"
"KAWY2013_e2","KAWY2013_e2_1","ESSAY",24,1,"Divided",1,691,"Include"
"KAWY2013_e2","KAWY2013_e2_1","FREIGHT",25,0,"Divided",1,795,"Include"
"KAWY2013_e2","KAWY2013_e2_1","AXLE",26,0,"Divided",1,579,"Include"
"KAWY2013_e2","KAWY2013_e2_1","SUITE",27,1,"Divided",1,809,"Include"
"KAWY2013_e2","KAWY2013_e2_1","FENCE",28,0,"Divided",2,1281,"Include"
"KAWY2013_e2","KAWY2013_e2_1","BIOLOGY",29,1,"Divided",6,1304,"Include"
"KAWY2013_e2","KAWY2013_e2_1","DOME",30,1,"Divided",6,816,"Include"
"KAWY2013_e2","KAWY2013_e2_1","CROWN",31,1,"Divided",6,1399,"Include"
"KAWY2013_e2","KAWY2013_e2_1","POUND",32,1,"Divided",6,1087,"Include"
"KAWY2013_e2","KAWY2013_e2_1","FOUNTAIN",33,0,"Divided",1,742,"Include"
"KAWY2013_e2","KAWY2013_e2_1","CASH",34,1,"Divided",2,1150,"Include"
"KAWY2013_e2","KAWY2013_e2_1","SCAR",35,0,"Divided",3,1189,"Include"
"KAWY2013_e2","KAWY2013_e2_1","PASSAGE",36,0,"Divided",1,924,"Include"
"KAWY2013_e2","KAWY2013_e2_1","STORM",37,0,"Divided",5,1236,"Include"
"KAWY2013_e2","KAWY2013_e2_1","SUDS",38,1,"Divided",1,874,"Include"
"KAWY2013_e2","KAWY2013_e2_1","MAGAZINE",39,0,"Divided",4,1026,"Include"
"KAWY2013_e2","KAWY2013_e2_1","SHOE",40,0,"Divided",1,1208,"Include"
"KAWY2013_e2","KAWY2013_e2_1","WHEAT",41,1,"Divided",6,784,"Include"
"KAWY2013_e2","KAWY2013_e2_1","INJURY",42,1,"Divided",6,1031,"Include"
"KAWY2013_e2","KAWY2013_e2_1","PLAIN",43,0,"Divided",2,1294,"Include"
"KAWY2013_e2","KAWY2013_e2_1","MAPLE",44,1,"Divided",6,885,"Include"
"KAWY2013_e2","KAWY2013_e2_1","SISTER",45,1,"Divided",6,652,"Include"
"KAWY2013_e2","KAWY2013_e2_1","ROUGH",46,1,"Divided",6,1075,"Include"
"KAWY2013_e2","KAWY2013_e2_1","WRAP",47,0,"Divided",3,1322,"Include"
"KAWY2013_e2","KAWY2013_e2_1","SAINT",48,1,"Divided",5,1010,"Include"
"KAWY2013_e2","KAWY2013_e2_1","CELLAR",49,0,"Divided",2,968,"Include"
"KAWY2013_e2","KAWY2013_e2_1","ARROW",50,1,"Divided",6,1440,"Include"
"KAWY2013_e2","KAWY2013_e2_1","SPONGE",51,0,"Divided",1,1015,"Include"
"KAWY2013_e2","KAWY2013_e2_1","PEER",52,1,"Divided",3,1102,"Include"
"KAWY2013_e2","KAWY2013_e2_1","SCOUT",53,1,"Divided",6,1125,"Include"
"KAWY2013_e2","KAWY2013_e2_1","MAHOGANY",54,1,"Divided",6,781,"Include"
"KAWY2013_e2","KAWY2013_e2_1","COIN",55,0,"Divided",2,964,"Include"
"KAWY2013_e2","KAWY2013_e2_1","SAIL",56,0,"Divided",2,828,"Include"
"KAWY2013_e2","KAWY2013_e2_1","LOAD",57,1,"Divided",2,530,"Include"
"KAWY2013_e2","KAWY2013_e2_1","BOUNDARY",58,0,"Divided",1,858,"Include"
"KAWY2013_e2","KAWY2013_e2_1","LIFT",59,0,"Divided",2,1169,"Include"
"KAWY2013_e2","KAWY2013_e2_1","TURNER",60,1,"Divided",1,1097,"Include"
"KAWY2013_e2","KAWY2013_e2_1","BAIL",61,0,"Divided",4,1184,"Include"
"KAWY2013_e2","KAWY2013_e2_1","ALERT",62,1,"Divided",2,966,"Include"
"KAWY2013_e2","KAWY2013_e2_1","KEEL",63,1,"Divided",6,815,"Include"
"KAWY2013_e2","KAWY2013_e2_1","STOOL",64,0,"Divided",2,740,"Include"
"KAWY2013_e2","KAWY2013_e2_1","TEAR",65,1,"Divided",1,812,"Include"
"KAWY2013_e2","KAWY2013_e2_1","PRINCE",66,1,"Divided",6,755,"Include"
"KAWY2013_e2","KAWY2013_e2_1","RESORT",67,1,"Divided",5,762,"Include"
"KAWY2013_e2","KAWY2013_e2_1","MINK",68,1,"Divided",2,785,"Include"
"KAWY2013_e2","KAWY2013_e2_1","WIRE",69,1,"Divided",6,713,"Include"
"KAWY2013_e2","KAWY2013_e2_1","LAUGHTER",70,0,"Divided",1,736,"Include"
"KAWY2013_e2","KAWY2013_e2_1","WOUND",71,1,"Divided",4,615,"Include"
"KAWY2013_e2","KAWY2013_e2_1","SLEEVE",72,0,"Divided",2,782,"Include"
"KAWY2013_e2","KAWY2013_e2_1","CABINET",73,0,"Divided",3,741,"Include"
"KAWY2013_e2","KAWY2013_e2_1","CART",74,0,"Divided",1,860,"Include"
"KAWY2013_e2","KAWY2013_e2_1","DISASTER",75,0,"Divided",1,660,"Include"
"KAWY2013_e2","KAWY2013_e2_1","DOORWAY",76,0,"Divided",1,635,"Include"
"KAWY2013_e2","KAWY2013_e2_1","CARBON",77,0,"Divided",4,1010,"Include"
"KAWY2013_e2","KAWY2013_e2_1","SPHERE",78,1,"Divided",2,938,"Include"
"KAWY2013_e2","KAWY2013_e2_1","ECHO",79,1,"Divided",1,1073,"Include"
"KAWY2013_e2","KAWY2013_e2_1","ROLL",80,0,"Divided",1,776,"Include"
"KAWY2013_e2","KAWY2013_e2_1","PALACE",81,1,"Divided",2,896,"Include"
"KAWY2013_e2","KAWY2013_e2_1","THINKER",82,0,"Divided",1,679,"Include"
"KAWY2013_e2","KAWY2013_e2_1","DANCER",83,0,"Divided",1,655,"Include"
"KAWY2013_e2","KAWY2013_e2_1","TWIST",84,0,"Divided",2,694,"Include"
"KAWY2013_e2","KAWY2013_e2_1","JUNCTION",85,1,"Divided",5,1022,"Include"
"KAWY2013_e2","KAWY2013_e2_1","POWDER",86,1,"Divided",6,581,"Include"
"KAWY2013_e2","KAWY2013_e2_1","ITCH",87,0,"Divided",1,1085,"Include"
"KAWY2013_e2","KAWY2013_e2_1","TRACK",88,1,"Divided",5,804,"Include"
"KAWY2013_e2","KAWY2013_e2_1","SELF",89,1,"Divided",6,1004,"Include"
"KAWY2013_e2","KAWY2013_e2_1","MAST",90,0,"Divided",1,675,"Include"
"KAWY2013_e2","KAWY2013_e2_1","CARPET",91,0,"Divided",4,906,"Include"
"KAWY2013_e2","KAWY2013_e2_1","CAPE",92,0,"Divided",2,977,"Include"
"KAWY2013_e2","KAWY2013_e2_1","EASEL",93,1,"Divided",1,696,"Include"
"KAWY2013_e2","KAWY2013_e2_1","WORKER",94,1,"Divided",4,1231,"Include"
"KAWY2013_e2","KAWY2013_e2_1","SOAP",95,1,"Divided",6,789,"Include"
"KAWY2013_e2","KAWY2013_e2_1","BUCKLE",96,0,"Divided",4,1404,"Include"
"KAWY2013_e2","KAWY2013_e2_1","CHOIR",97,1,"Divided",6,835,"Include"
"KAWY2013_e2","KAWY2013_e2_1","GUARD",98,0,"Divided",4,858,"Include"
"KAWY2013_e2","KAWY2013_e2_1","STAR",99,1,"Divided",6,801,"Include"
"KAWY2013_e2","KAWY2013_e2_1","FLASH",100,0,"Divided",3,1128,"Include"
"KAWY2013_e2","KAWY2013_e2_1","SPEAR",1,0,"Divided",4,948,"Include"
"KAWY2013_e2","KAWY2013_e2_1","TUNNEL",2,0,"Divided",1,1435,"Include"
"KAWY2013_e2","KAWY2013_e2_1","CANON",3,0,"Divided",1,627,"Include"
"KAWY2013_e2","KAWY2013_e2_1","TOWER",4,1,"Divided",2,1353,"Include"
"KAWY2013_e2","KAWY2013_e2_1","KNIGHT",5,1,"Divided",4,1648,"Include"
"KAWY2013_e2","KAWY2013_e2_1","HARVEST",6,0,"Divided",2,776,"Include"
"KAWY2013_e2","KAWY2013_e2_1","DELL",7,1,"Divided",4,1103,"Include"
"KAWY2013_e2","KAWY2013_e2_1","SQUIRE",8,0,"Divided",2,838,"Include"
"KAWY2013_e2","KAWY2013_e2_1","FLEET",9,0,"Divided",4,1102,"Include"
"KAWY2013_e2","KAWY2013_e2_1","CARRIAGE",10,1,"Divided",3,933,"Include"
"KAWY2013_e2","KAWY2013_e2_1","JUICE",11,0,"Divided",1,653,"Include"
"KAWY2013_e2","KAWY2013_e2_1","BABE",12,1,"Divided",5,1012,"Include"
"KAWY2013_e2","KAWY2013_e2_1","TAPE",13,1,"Divided",4,1100,"Include"
"KAWY2013_e2","KAWY2013_e2_1","WASTE",14,1,"Divided",5,1395,"Include"
"KAWY2013_e2","KAWY2013_e2_1","EMBRACE",15,1,"Divided",5,987,"Include"
"KAWY2013_e2","KAWY2013_e2_1","PARISH",16,0,"Divided",3,1394,"Include"
"KAWY2013_e2","KAWY2013_e2_1","SUNLIGHT",17,0,"Divided",1,890,"Include"
"KAWY2013_e2","KAWY2013_e2_1","CLOSET",18,1,"Divided",4,1185,"Include"
"KAWY2013_e2","KAWY2013_e2_1","BOOT",19,0,"Divided",2,1161,"Include"
"KAWY2013_e2","KAWY2013_e2_1","WITCH",20,1,"Divided",5,991,"Include"
"KAWY2013_e2","KAWY2013_e2_1","POCKET",21,0,"Divided",2,935,"Include"
"KAWY2013_e2","KAWY2013_e2_1","MOSS",22,1,"Divided",6,830,"Include"
"KAWY2013_e2","KAWY2013_e2_1","IODINE",23,0,"Divided",1,1014,"Include"
"KAWY2013_e2","KAWY2013_e2_1","MOLD",24,1,"Divided",5,1037,"Include"
"KAWY2013_e2","KAWY2013_e2_1","TOURIST",25,0,"Divided",2,1029,"Include"
"KAWY2013_e2","KAWY2013_e2_1","MONUMENT",26,0,"Divided",1,604,"Include"
"KAWY2013_e2","KAWY2013_e2_1","CREW",27,1,"Divided",5,948,"Include"
"KAWY2013_e2","KAWY2013_e2_1","NATIVE",28,1,"Divided",1,747,"Include"
"KAWY2013_e2","KAWY2013_e2_1","WHISPER",29,1,"Divided",6,626,"Include"
"KAWY2013_e2","KAWY2013_e2_1","ACCIDENT",30,0,"Divided",1,1098,"Include"
"KAWY2013_e2","KAWY2013_e2_1","DEBT",31,1,"Divided",5,1200,"Include"
"KAWY2013_e2","KAWY2013_e2_1","FERRY",32,1,"Divided",4,1016,"Include"
"KAWY2013_e2","KAWY2013_e2_1","MEDICINE",33,0,"Divided",2,991,"Include"
"KAWY2013_e2","KAWY2013_e2_1","FOOTBALL",34,1,"Divided",6,822,"Include"
"KAWY2013_e2","KAWY2013_e2_1","HOOD",35,0,"Divided",1,863,"Include"
"KAWY2013_e2","KAWY2013_e2_1","QUILL",36,1,"Divided",5,790,"Include"
"KAWY2013_e2","KAWY2013_e2_1","MORTGAGE",37,0,"Divided",1,589,"Include"
"KAWY2013_e2","KAWY2013_e2_1","DAIRY",38,0,"Divided",2,933,"Include"
"KAWY2013_e2","KAWY2013_e2_1","CORRIDOR",39,0,"Divided",2,764,"Include"
"KAWY2013_e2","KAWY2013_e2_1","NAVY",40,1,"Divided",6,757,"Include"
"KAWY2013_e2","KAWY2013_e2_1","MIST",41,1,"Divided",6,621,"Include"
"KAWY2013_e2","KAWY2013_e2_1","PRAIRIE",42,0,"Divided",1,868,"Include"
"KAWY2013_e2","KAWY2013_e2_1","DEPOSIT",43,0,"Divided",5,844,"Include"
"KAWY2013_e2","KAWY2013_e2_1","SEGMENT",44,1,"Divided",6,1107,"Include"
"KAWY2013_e2","KAWY2013_e2_1","BACTERIA",45,0,"Divided",1,1338,"Include"
"KAWY2013_e2","KAWY2013_e2_1","INFANTRY",46,0,"Divided",1,611,"Include"
"KAWY2013_e2","KAWY2013_e2_1","BALLOT",47,0,"Divided",1,922,"Include"
"KAWY2013_e2","KAWY2013_e2_1","MEADOW",48,1,"Divided",4,930,"Include"
"KAWY2013_e2","KAWY2013_e2_1","BANG",49,0,"Divided",1,953,"Include"
"KAWY2013_e2","KAWY2013_e2_1","CAGE",50,1,"Divided",4,1280,"Include"
"KAWY2013_e2","KAWY2013_e2_1","SCRATCH",51,0,"Divided",2,920,"Include"
"KAWY2013_e2","KAWY2013_e2_1","PIANIST",52,1,"Divided",5,783,"Include"
"KAWY2013_e2","KAWY2013_e2_1","CAVE",53,0,"Divided",6,503,"Include"
"KAWY2013_e2","KAWY2013_e2_1","KISS",54,0,"Divided",3,1054,"Include"
"KAWY2013_e2","KAWY2013_e2_1","GULF",55,1,"Divided",1,886,"Include"
"KAWY2013_e2","KAWY2013_e2_1","AVENUE",56,0,"Divided",1,542,"Include"
"KAWY2013_e2","KAWY2013_e2_1","BLONDE",57,1,"Divided",6,693,"Include"
"KAWY2013_e2","KAWY2013_e2_1","STEM",58,1,"Divided",6,748,"Include"
"KAWY2013_e2","KAWY2013_e2_1","SPADE",59,1,"Divided",6,691,"Include"
"KAWY2013_e2","KAWY2013_e2_1","JUMP",60,0,"Divided",1,1035,"Include"
"KAWY2013_e2","KAWY2013_e2_1","BADGE",61,1,"Divided",6,738,"Include"
"KAWY2013_e2","KAWY2013_e2_1","CHANNEL",62,1,"Divided",5,954,"Include"
"KAWY2013_e2","KAWY2013_e2_1","RAKE",63,0,"Divided",3,945,"Include"
"KAWY2013_e2","KAWY2013_e2_1","BLADE",64,0,"Divided",2,825,"Include"
"KAWY2013_e2","KAWY2013_e2_1","DUEL",65,0,"Divided",1,656,"Include"
"KAWY2013_e2","KAWY2013_e2_1","NEST",66,1,"Divided",6,727,"Include"
"KAWY2013_e2","KAWY2013_e2_1","HOUND",67,0,"Divided",2,686,"Include"
"KAWY2013_e2","KAWY2013_e2_1","CHAPEL",68,0,"Divided",2,598,"Include"
"KAWY2013_e2","KAWY2013_e2_1","FRONTAGE",69,0,"Divided",1,621,"Include"
"KAWY2013_e2","KAWY2013_e2_1","ISLE",70,1,"Divided",6,932,"Include"
"KAWY2013_e2","KAWY2013_e2_1","TRUNK",71,1,"Divided",6,1020,"Include"
"KAWY2013_e2","KAWY2013_e2_1","CAFE",72,1,"Divided",6,723,"Include"
"KAWY2013_e2","KAWY2013_e2_1","STRANGER",73,1,"Divided",6,539,"Include"
"KAWY2013_e2","KAWY2013_e2_1","PLANK",74,1,"Divided",4,802,"Include"
"KAWY2013_e2","KAWY2013_e2_1","PACKAGE",75,0,"Divided",3,825,"Include"
"KAWY2013_e2","KAWY2013_e2_1","SONATA",76,0,"Divided",1,1136,"Include"
"KAWY2013_e2","KAWY2013_e2_1","PEPPER",77,1,"Divided",6,711,"Include"
"KAWY2013_e2","KAWY2013_e2_1","IVORY",78,1,"Divided",6,622,"Include"
"KAWY2013_e2","KAWY2013_e2_1","ATOM",79,0,"Divided",1,790,"Include"
"KAWY2013_e2","KAWY2013_e2_1","CHAMPION",80,1,"Divided",4,748,"Include"
"KAWY2013_e2","KAWY2013_e2_1","PATENT",81,0,"Divided",1,692,"Include"
"KAWY2013_e2","KAWY2013_e2_1","PLUG",82,1,"Divided",3,955,"Include"
"KAWY2013_e2","KAWY2013_e2_1","NERVE",83,0,"Divided",1,755,"Include"
"KAWY2013_e2","KAWY2013_e2_1","GALLERY",84,1,"Divided",5,683,"Include"
"KAWY2013_e2","KAWY2013_e2_1","PARADE",85,1,"Divided",4,738,"Include"
"KAWY2013_e2","KAWY2013_e2_1","CAST",86,0,"Divided",4,905,"Include"
"KAWY2013_e2","KAWY2013_e2_1","RELIC",87,0,"Divided",2,752,"Include"
"KAWY2013_e2","KAWY2013_e2_1","MOISTURE",88,1,"Divided",6,648,"Include"
"KAWY2013_e2","KAWY2013_e2_1","FLOWER",89,0,"Divided",3,719,"Include"
"KAWY2013_e2","KAWY2013_e2_1","RING",90,0,"Divided",4,695,"Include"
"KAWY2013_e2","KAWY2013_e2_1","CRADLE",91,1,"Divided",5,798,"Include"
"KAWY2013_e2","KAWY2013_e2_1","LOTION",92,0,"Divided",2,758,"Include"
"KAWY2013_e2","KAWY2013_e2_1","OBSERVER",93,0,"Divided",1,1037,"Include"
"KAWY2013_e2","KAWY2013_e2_1","RAID",94,1,"Divided",4,661,"Include"
"KAWY2013_e2","KAWY2013_e2_1","TOMB",95,0,"Divided",4,700,"Include"
"KAWY2013_e2","KAWY2013_e2_1","STING",96,1,"Divided",4,628,"Include"
"KAWY2013_e2","KAWY2013_e2_1","PREY",97,0,"Divided",2,683,"Include"
"KAWY2013_e2","KAWY2013_e2_1","GOSPEL",98,1,"Divided",5,674,"Include"
"KAWY2013_e2","KAWY2013_e2_1","SHOVEL",99,1,"Divided",3,617,"Include"
"KAWY2013_e2","KAWY2013_e2_1","TOAST",100,1,"Divided",6,561,"Include"
"KAWY2013_e2","KAWY2013_e2_1","GANG",1,1,"Full",2,597,"Include"
"KAWY2013_e2","KAWY2013_e2_1","ANTIQUE",2,1,"Full",3,707,"Include"
"KAWY2013_e2","KAWY2013_e2_1","PRIZE",3,1,"Full",6,512,"Include"
"KAWY2013_e2","KAWY2013_e2_1","TIRE",4,1,"Full",6,493,"Include"
"KAWY2013_e2","KAWY2013_e2_1","PALM",5,0,"Full",1,763,"Include"
"KAWY2013_e2","KAWY2013_e2_1","MILEAGE",6,0,"Full",1,584,"Include"
"KAWY2013_e2","KAWY2013_e2_1","HYMN",7,1,"Full",6,501,"Include"
"KAWY2013_e2","KAWY2013_e2_1","CHART",8,1,"Full",6,851,"Include"
"KAWY2013_e2","KAWY2013_e2_1","SCENT",9,0,"Full",2,832,"Include"
"KAWY2013_e2","KAWY2013_e2_1","LAUNDRY",10,1,"Full",6,477,"Include"
"KAWY2013_e2","KAWY2013_e2_1","MATE",11,0,"Full",1,891,"Include"
"KAWY2013_e2","KAWY2013_e2_1","SHOWER",12,0,"Full",2,792,"Include"
"KAWY2013_e2","KAWY2013_e2_1","CALF",13,0,"Full",2,789,"Include"
"KAWY2013_e2","KAWY2013_e2_1","DIRT",14,0,"Full",3,914,"Include"
"KAWY2013_e2","KAWY2013_e2_1","WOLF",15,1,"Full",6,639,"Include"
"KAWY2013_e2","KAWY2013_e2_1","RAMP",16,0,"Full",5,973,"Include"
"KAWY2013_e2","KAWY2013_e2_1","SOLDIER",17,1,"Full",6,426,"Include"
"KAWY2013_e2","KAWY2013_e2_1","LINK",18,1,"Full",4,775,"Include"
"KAWY2013_e2","KAWY2013_e2_1","CHLORINE",19,0,"Full",1,533,"Include"
"KAWY2013_e2","KAWY2013_e2_1","CITATION",20,0,"Full",1,402,"Include"
"KAWY2013_e2","KAWY2013_e2_1","OCEAN",21,0,"Full",1,607,"Include"
"KAWY2013_e2","KAWY2013_e2_1","LIME",22,0,"Full",1,669,"Include"
"KAWY2013_e2","KAWY2013_e2_1","SKETCH",23,0,"Full",4,746,"Include"
"KAWY2013_e2","KAWY2013_e2_1","STABLE",24,1,"Full",6,663,"Include"
"KAWY2013_e2","KAWY2013_e2_1","APERTURE",25,0,"Full",2,709,"Include"
"KAWY2013_e2","KAWY2013_e2_1","STRIDE",26,1,"Full",2,753,"Include"
"KAWY2013_e2","KAWY2013_e2_1","KEROSENE",27,1,"Full",6,959,"Include"
"KAWY2013_e2","KAWY2013_e2_1","GUEST",28,1,"Full",4,988,"Include"
"KAWY2013_e2","KAWY2013_e2_1","COMPOSER",29,0,"Full",3,873,"Include"
"KAWY2013_e2","KAWY2013_e2_1","DRAIN",30,0,"Full",2,647,"Include"
"KAWY2013_e2","KAWY2013_e2_1","LACE",31,0,"Full",4,612,"Include"
"KAWY2013_e2","KAWY2013_e2_1","DELTA",32,0,"Full",1,929,"Include"
"KAWY2013_e2","KAWY2013_e2_1","BOOTH",33,0,"Full",2,943,"Include"
"KAWY2013_e2","KAWY2013_e2_1","HUNT",34,1,"Full",6,716,"Include"
"KAWY2013_e2","KAWY2013_e2_1","OWNER",35,0,"Full",4,696,"Include"
"KAWY2013_e2","KAWY2013_e2_1","MARGIN",36,1,"Full",6,742,"Include"
"KAWY2013_e2","KAWY2013_e2_1","SPRAY",37,1,"Full",6,532,"Include"
"KAWY2013_e2","KAWY2013_e2_1","MORTAL",38,0,"Full",4,752,"Include"
"KAWY2013_e2","KAWY2013_e2_1","JOURNAL",39,0,"Full",2,734,"Include"
"KAWY2013_e2","KAWY2013_e2_1","SLOPE",40,0,"Full",1,779,"Include"
"KAWY2013_e2","KAWY2013_e2_1","MUSICIAN",41,0,"Full",4,808,"Include"
"KAWY2013_e2","KAWY2013_e2_1","LIMP",42,0,"Full",2,965,"Include"
"KAWY2013_e2","KAWY2013_e2_1","PUZZLE",43,0,"Full",5,962,"Include"
"KAWY2013_e2","KAWY2013_e2_1","NICKEL",44,1,"Full",6,544,"Include"
"KAWY2013_e2","KAWY2013_e2_1","FAINT",45,0,"Full",4,814,"Include"
"KAWY2013_e2","KAWY2013_e2_1","TOLL",46,1,"Full",5,827,"Include"
"KAWY2013_e2","KAWY2013_e2_1","SNAP",47,0,"Full",4,904,"Include"
"KAWY2013_e2","KAWY2013_e2_1","FUSE",48,0,"Full",1,966,"Include"
"KAWY2013_e2","KAWY2013_e2_1","CAPSULE",49,1,"Full",6,658,"Include"
"KAWY2013_e2","KAWY2013_e2_1","FEVER",50,1,"Full",5,672,"Include"
"KAWY2013_e2","KAWY2013_e2_1","TWEED",51,0,"Full",4,973,"Include"
"KAWY2013_e2","KAWY2013_e2_1","TICKET",52,1,"Full",6,507,"Include"
"KAWY2013_e2","KAWY2013_e2_1","ARBITER",53,0,"Full",2,841,"Include"
"KAWY2013_e2","KAWY2013_e2_1","SPRUCE",54,1,"Full",4,662,"Include"
"KAWY2013_e2","KAWY2013_e2_1","SELLER",55,0,"Full",5,771,"Include"
"KAWY2013_e2","KAWY2013_e2_1","RENT",56,0,"Full",4,721,"Include"
"KAWY2013_e2","KAWY2013_e2_1","FOIL",57,0,"Full",2,733,"Include"
"KAWY2013_e2","KAWY2013_e2_1","POPE",58,1,"Full",6,554,"Include"
"KAWY2013_e2","KAWY2013_e2_1","BEECH",59,1,"Full",6,502,"Include"
"KAWY2013_e2","KAWY2013_e2_1","BUREAU",60,0,"Full",1,675,"Include"
"KAWY2013_e2","KAWY2013_e2_1","VERSE",61,1,"Full",4,672,"Include"
"KAWY2013_e2","KAWY2013_e2_1","SEWER",62,0,"Full",2,636,"Include"
"KAWY2013_e2","KAWY2013_e2_1","STOVE",63,1,"Full",6,697,"Include"
"KAWY2013_e2","KAWY2013_e2_1","GALLON",64,1,"Full",6,518,"Include"
"KAWY2013_e2","KAWY2013_e2_1","SERGEANT",65,1,"Full",6,546,"Include"
"KAWY2013_e2","KAWY2013_e2_1","PURSE",66,0,"Full",4,767,"Include"
"KAWY2013_e2","KAWY2013_e2_1","HERB",67,0,"Full",2,652,"Include"
"KAWY2013_e2","KAWY2013_e2_1","LOBBY",68,0,"Full",1,505,"Include"
"KAWY2013_e2","KAWY2013_e2_1","STRAND",69,0,"Full",2,726,"Include"
"KAWY2013_e2","KAWY2013_e2_1","SOPRANO",70,0,"Full",1,580,"Include"
"KAWY2013_e2","KAWY2013_e2_1","KNEE",71,1,"Full",6,817,"Include"
"KAWY2013_e2","KAWY2013_e2_1","PIONEER",72,1,"Full",4,781,"Include"
"KAWY2013_e2","KAWY2013_e2_1","SUPPER",73,1,"Full",6,603,"Include"
"KAWY2013_e2","KAWY2013_e2_1","BOSS",74,1,"Full",6,583,"Include"
"KAWY2013_e2","KAWY2013_e2_1","HIGHWAY",75,1,"Full",6,548,"Include"
"KAWY2013_e2","KAWY2013_e2_1","QUARTER",76,1,"Full",6,610,"Include"
"KAWY2013_e2","KAWY2013_e2_1","HARDWARE",77,1,"Full",6,655,"Include"
"KAWY2013_e2","KAWY2013_e2_1","OYSTER",78,1,"Full",6,556,"Include"
"KAWY2013_e2","KAWY2013_e2_1","PLUMB",79,1,"Full",6,633,"Include"
"KAWY2013_e2","KAWY2013_e2_1","SALARY",80,1,"Full",2,870,"Include"
"KAWY2013_e2","KAWY2013_e2_1","FURNACE",81,0,"Full",1,594,"Include"
"KAWY2013_e2","KAWY2013_e2_1","GRIP",82,0,"Full",1,575,"Include"
"KAWY2013_e2","KAWY2013_e2_1","IRON",83,1,"Full",6,557,"Include"
"KAWY2013_e2","KAWY2013_e2_1","PAINTER",84,1,"Full",6,570,"Include"
"KAWY2013_e2","KAWY2013_e2_1","LOCK",85,0,"Full",3,888,"Include"
"KAWY2013_e2","KAWY2013_e2_1","RANCH",86,1,"Full",6,629,"Include"
"KAWY2013_e2","KAWY2013_e2_1","BUTCHER",87,0,"Full",1,498,"Include"
"KAWY2013_e2","KAWY2013_e2_1","SPARK",88,0,"Full",1,640,"Include"
"KAWY2013_e2","KAWY2013_e2_1","SEAL",89,0,"Full",2,653,"Include"
"KAWY2013_e2","KAWY2013_e2_1","MUSCLE",90,1,"Full",6,634,"Include"
"KAWY2013_e2","KAWY2013_e2_1","BURN",91,1,"Full",6,536,"Include"
"KAWY2013_e2","KAWY2013_e2_1","COMPACT",92,0,"Full",4,1014,"Include"
"KAWY2013_e2","KAWY2013_e2_1","FISH",93,1,"Full",6,1027,"Include"
"KAWY2013_e2","KAWY2013_e2_1","SHUTTER",94,1,"Full",2,1072,"Include"
"KAWY2013_e2","KAWY2013_e2_1","SWIM",95,1,"Full",6,574,"Include"
"KAWY2013_e2","KAWY2013_e2_1","SWELL",96,1,"Full",4,843,"Include"
"KAWY2013_e2","KAWY2013_e2_1","BATON",97,1,"Full",6,553,"Include"
"KAWY2013_e2","KAWY2013_e2_1","REGISTER",98,0,"Full",5,822,"Include"
"KAWY2013_e2","KAWY2013_e2_1","GLITTER",99,0,"Full",3,1043,"Include"
"KAWY2013_e2","KAWY2013_e2_1","CUSTOMER",100,1,"Full",6,625,"Include"
"KAWY2013_e2","KAWY2013_e2_2","BUBBLE",1,1,"Full",1,739,"Include"
"KAWY2013_e2","KAWY2013_e2_2","PACKAGE",2,0,"Full",2,944,"Include"
"KAWY2013_e2","KAWY2013_e2_2","FURNACE",3,1,"Full",2,1053,"Include"
"KAWY2013_e2","KAWY2013_e2_2","MUSICIAN",4,0,"Full",5,1049,"Include"
"KAWY2013_e2","KAWY2013_e2_2","TOWER",5,1,"Full",6,838,"Include"
"KAWY2013_e2","KAWY2013_e2_2","JUNCTION",6,0,"Full",2,1267,"Include"
"KAWY2013_e2","KAWY2013_e2_2","TWIST",7,1,"Full",2,1184,"Include"
"KAWY2013_e2","KAWY2013_e2_2","CITATION",8,0,"Full",1,957,"Include"
"KAWY2013_e2","KAWY2013_e2_2","PRAIRIE",9,0,"Full",5,1258,"Include"
"KAWY2013_e2","KAWY2013_e2_2","NAIL",10,1,"Full",3,1143,"Include"
"KAWY2013_e2","KAWY2013_e2_2","SLOPE",11,0,"Full",2,1077,"Include"
"KAWY2013_e2","KAWY2013_e2_2","POWDER",12,0,"Full",3,1122,"Include"
"KAWY2013_e2","KAWY2013_e2_2","RIOT",13,0,"Full",1,1263,"Include"
"KAWY2013_e2","KAWY2013_e2_2","HOUND",14,1,"Full",6,923,"Include"
"KAWY2013_e2","KAWY2013_e2_2","LOCK",15,1,"Full",2,919,"Include"
"KAWY2013_e2","KAWY2013_e2_2","PLANK",16,1,"Full",2,1685,"Include"
"KAWY2013_e2","KAWY2013_e2_2","ATOM",17,0,"Full",2,1170,"Include"
"KAWY2013_e2","KAWY2013_e2_2","AXLE",18,1,"Full",6,1007,"Include"
"KAWY2013_e2","KAWY2013_e2_2","BUILDER",19,1,"Full",5,1180,"Include"
"KAWY2013_e2","KAWY2013_e2_2","FEVER",20,0,"Full",1,778,"Include"
"KAWY2013_e2","KAWY2013_e2_2","STORM",21,0,"Full",2,1078,"Include"
"KAWY2013_e2","KAWY2013_e2_2","MOISTURE",22,0,"Full",2,755,"Include"
"KAWY2013_e2","KAWY2013_e2_2","HERB",23,0,"Full",3,817,"Include"
"KAWY2013_e2","KAWY2013_e2_2","BOOT",24,1,"Full",5,1070,"Include"
"KAWY2013_e2","KAWY2013_e2_2","VERSE",25,0,"Full",1,827,"Include"
"KAWY2013_e2","KAWY2013_e2_2","HAIL",26,1,"Full",6,921,"Include"
"KAWY2013_e2","KAWY2013_e2_2","SCRATCH",27,0,"Full",3,1158,"Include"
"KAWY2013_e2","KAWY2013_e2_2","CANDLE",28,0,"Full",5,1603,"Include"
"KAWY2013_e2","KAWY2013_e2_2","KNEE",29,1,"Full",1,768,"Include"
"KAWY2013_e2","KAWY2013_e2_2","SALOON",30,1,"Full",6,589,"Include"
"KAWY2013_e2","KAWY2013_e2_2","STOOL",31,1,"Full",4,1178,"Include"
"KAWY2013_e2","KAWY2013_e2_2","LEVER",32,1,"Full",6,775,"Include"
"KAWY2013_e2","KAWY2013_e2_2","TRAIL",33,0,"Full",3,741,"Include"
"KAWY2013_e2","KAWY2013_e2_2","TIRE",34,0,"Full",2,562,"Include"
"KAWY2013_e2","KAWY2013_e2_2","DIRT",35,1,"Full",5,1055,"Include"
"KAWY2013_e2","KAWY2013_e2_2","CAPSULE",36,1,"Full",6,861,"Include"
"KAWY2013_e2","KAWY2013_e2_2","SPARK",37,1,"Full",5,1034,"Include"
"KAWY2013_e2","KAWY2013_e2_2","PATENT",38,0,"Full",2,1031,"Include"
"KAWY2013_e2","KAWY2013_e2_2","PISTON",39,1,"Full",5,772,"Include"
"KAWY2013_e2","KAWY2013_e2_2","SPADE",40,1,"Full",6,817,"Include"
"KAWY2013_e2","KAWY2013_e2_2","APERTURE",41,1,"Full",6,734,"Include"
"KAWY2013_e2","KAWY2013_e2_2","REVOLVER",42,1,"Full",6,363,"Include"
"KAWY2013_e2","KAWY2013_e2_2","WAVE",43,0,"Full",3,1080,"Include"
"KAWY2013_e2","KAWY2013_e2_2","HIND",44,0,"Full",1,1493,"Include"
"KAWY2013_e2","KAWY2013_e2_2","FREIGHT",45,1,"Full",6,963,"Include"
"KAWY2013_e2","KAWY2013_e2_2","WALLET",46,0,"Full",1,1103,"Include"
"KAWY2013_e2","KAWY2013_e2_2","SPRAY",47,0,"Full",2,1197,"Include"
"KAWY2013_e2","KAWY2013_e2_2","HIDE",48,0,"Full",3,553,"Include"
"KAWY2013_e2","KAWY2013_e2_2","CALF",49,0,"Full",1,903,"Include"
"KAWY2013_e2","KAWY2013_e2_2","PAINTER",50,0,"Full",2,1236,"Include"
"KAWY2013_e2","KAWY2013_e2_2","DYNASTY",51,0,"Full",1,785,"Include"
"KAWY2013_e2","KAWY2013_e2_2","INJURY",52,1,"Full",5,1231,"Include"
"KAWY2013_e2","KAWY2013_e2_2","CORRIDOR",53,1,"Full",3,1068,"Include"
"KAWY2013_e2","KAWY2013_e2_2","IRON",54,0,"Full",5,1017,"Include"
"KAWY2013_e2","KAWY2013_e2_2","CAGE",55,1,"Full",6,662,"Include"
"KAWY2013_e2","KAWY2013_e2_2","SWIM",56,1,"Full",3,1284,"Include"
"KAWY2013_e2","KAWY2013_e2_2","YARD",57,0,"Full",3,1040,"Include"
"KAWY2013_e2","KAWY2013_e2_2","PURSE",58,0,"Full",2,734,"Include"
"KAWY2013_e2","KAWY2013_e2_2","CHARTER",59,0,"Full",5,1179,"Include"
"KAWY2013_e2","KAWY2013_e2_2","MATE",60,0,"Full",1,744,"Include"
"KAWY2013_e2","KAWY2013_e2_2","DANCER",61,1,"Full",5,1350,"Include"
"KAWY2013_e2","KAWY2013_e2_2","FENCE",62,0,"Full",6,1284,"Include"
"KAWY2013_e2","KAWY2013_e2_2","DUEL",63,0,"Full",5,1056,"Include"
"KAWY2013_e2","KAWY2013_e2_2","SEGMENT",64,0,"Full",5,1262,"Include"
"KAWY2013_e2","KAWY2013_e2_2","WHISPER",65,0,"Full",1,971,"Include"
"KAWY2013_e2","KAWY2013_e2_2","MEADOW",66,1,"Full",6,536,"Include"
"KAWY2013_e2","KAWY2013_e2_2","PARISH",67,1,"Full",1,774,"Include"
"KAWY2013_e2","KAWY2013_e2_2","BACTERIA",68,0,"Full",1,483,"Include"
"KAWY2013_e2","KAWY2013_e2_2","BAYONET",69,1,"Full",2,560,"Include"
"KAWY2013_e2","KAWY2013_e2_2","EMBRACE",70,1,"Full",4,1246,"Include"
"KAWY2013_e2","KAWY2013_e2_2","BORDER",71,1,"Full",2,715,"Include"
"KAWY2013_e2","KAWY2013_e2_2","PALACE",72,1,"Full",6,744,"Include"
"KAWY2013_e2","KAWY2013_e2_2","SCENT",73,0,"Full",3,982,"Include"
"KAWY2013_e2","KAWY2013_e2_2","COMFORT",74,1,"Full",5,851,"Include"
"KAWY2013_e2","KAWY2013_e2_2","HOLIDAY",75,0,"Full",1,1072,"Include"
"KAWY2013_e2","KAWY2013_e2_2","BABE",76,1,"Full",6,589,"Include"
"KAWY2013_e2","KAWY2013_e2_2","BAIL",77,0,"Full",2,826,"Include"
"KAWY2013_e2","KAWY2013_e2_2","CHAMPION",78,0,"Full",1,888,"Include"
"KAWY2013_e2","KAWY2013_e2_2","QUACK",79,1,"Full",6,613,"Include"
"KAWY2013_e2","KAWY2013_e2_2","QUARTER",80,1,"Full",6,1730,"Include"
"KAWY2013_e2","KAWY2013_e2_2","SPHERE",81,0,"Full",4,912,"Include"
"KAWY2013_e2","KAWY2013_e2_2","STRANGER",82,1,"Full",2,605,"Include"
"KAWY2013_e2","KAWY2013_e2_2","MOSS",83,0,"Full",5,1258,"Include"
"KAWY2013_e2","KAWY2013_e2_2","LAUNDRY",84,1,"Full",1,967,"Include"
"KAWY2013_e2","KAWY2013_e2_2","GLITTER",85,0,"Full",1,452,"Include"
"KAWY2013_e2","KAWY2013_e2_2","LIFT",86,1,"Full",6,642,"Include"
"KAWY2013_e2","KAWY2013_e2_2","SLEEVE",87,1,"Full",6,575,"Include"
"KAWY2013_e2","KAWY2013_e2_2","SINGER",88,0,"Full",5,1132,"Include"
"KAWY2013_e2","KAWY2013_e2_2","SOAP",89,0,"Full",2,490,"Include"
"KAWY2013_e2","KAWY2013_e2_2","DISPLAY",90,1,"Full",6,582,"Include"
"KAWY2013_e2","KAWY2013_e2_2","BRONZE",91,1,"Full",2,1124,"Include"
"KAWY2013_e2","KAWY2013_e2_2","FAINT",92,1,"Full",6,832,"Include"
"KAWY2013_e2","KAWY2013_e2_2","FRONTAGE",93,1,"Full",6,446,"Include"
"KAWY2013_e2","KAWY2013_e2_2","TICKET",94,0,"Full",2,1002,"Include"
"KAWY2013_e2","KAWY2013_e2_2","SUNLIGHT",95,0,"Full",1,935,"Include"
"KAWY2013_e2","KAWY2013_e2_2","SHOVEL",96,0,"Full",6,725,"Include"
"KAWY2013_e2","KAWY2013_e2_2","QUILL",97,1,"Full",2,1105,"Include"
"KAWY2013_e2","KAWY2013_e2_2","PUZZLE",98,0,"Full",3,639,"Include"
"KAWY2013_e2","KAWY2013_e2_2","KEROSENE",99,1,"Full",1,1020,"Include"
"KAWY2013_e2","KAWY2013_e2_2","LUNCH",100,1,"Full",3,1257,"Include"
"KAWY2013_e2","KAWY2013_e2_2","STEEL",1,0,"Divided",4,711,"Include"
"KAWY2013_e2","KAWY2013_e2_2","SHOWER",2,1,"Divided",4,590,"Include"
"KAWY2013_e2","KAWY2013_e2_2","GRIP",3,0,"Divided",2,709,"Include"
"KAWY2013_e2","KAWY2013_e2_2","SWELL",4,0,"Divided",4,749,"Include"
"KAWY2013_e2","KAWY2013_e2_2","SALAD",5,0,"Divided",5,1044,"Include"
"KAWY2013_e2","KAWY2013_e2_2","STOVE",6,1,"Divided",5,939,"Include"
"KAWY2013_e2","KAWY2013_e2_2","JUICE",7,1,"Divided",2,739,"Include"
"KAWY2013_e2","KAWY2013_e2_2","SOPRANO",8,0,"Divided",1,634,"Include"
"KAWY2013_e2","KAWY2013_e2_2","ALERT",9,0,"Divided",1,801,"Include"
"KAWY2013_e2","KAWY2013_e2_2","ROAR",10,1,"Divided",4,1049,"Include"
"KAWY2013_e2","KAWY2013_e2_2","ANCHOR",11,1,"Divided",1,1152,"Include"
"KAWY2013_e2","KAWY2013_e2_2","PRINCE",12,1,"Divided",1,1494,"Include"
"KAWY2013_e2","KAWY2013_e2_2","STAR",13,1,"Divided",2,830,"Include"
"KAWY2013_e2","KAWY2013_e2_2","DELTA",14,0,"Divided",1,741,"Include"
"KAWY2013_e2","KAWY2013_e2_2","REBEL",15,1,"Divided",1,1149,"Include"
"KAWY2013_e2","KAWY2013_e2_2","HUNT",16,0,"Divided",1,772,"Include"
"KAWY2013_e2","KAWY2013_e2_2","BOOTH",17,1,"Divided",5,1275,"Include"
"KAWY2013_e2","KAWY2013_e2_2","SNAP",18,0,"Divided",1,866,"Include"
"KAWY2013_e2","KAWY2013_e2_2","SUPPER",19,1,"Divided",3,1001,"Include"
"KAWY2013_e2","KAWY2013_e2_2","WASTE",20,0,"Divided",1,1105,"Include"
"KAWY2013_e2","KAWY2013_e2_2","DISASTER",21,1,"Divided",2,871,"Include"
"KAWY2013_e2","KAWY2013_e2_2","OCEAN",22,1,"Divided",1,943,"Include"
"KAWY2013_e2","KAWY2013_e2_2","SCAR",23,1,"Divided",3,822,"Include"
"KAWY2013_e2","KAWY2013_e2_2","KEEL",24,0,"Divided",1,1326,"Include"
"KAWY2013_e2","KAWY2013_e2_2","ROUGH",25,0,"Divided",1,677,"Include"
"KAWY2013_e2","KAWY2013_e2_2","BEECH",26,0,"Divided",2,524,"Include"
"KAWY2013_e2","KAWY2013_e2_2","GIFT",27,0,"Divided",4,1219,"Include"
"KAWY2013_e2","KAWY2013_e2_2","NICKEL",28,0,"Divided",1,714,"Include"
"KAWY2013_e2","KAWY2013_e2_2","SAINT",29,1,"Divided",2,865,"Include"
"KAWY2013_e2","KAWY2013_e2_2","DEBT",30,0,"Divided",2,568,"Include"
"KAWY2013_e2","KAWY2013_e2_2","NAVY",31,1,"Divided",2,816,"Include"
"KAWY2013_e2","KAWY2013_e2_2","OBSERVER",32,0,"Divided",2,695,"Include"
"KAWY2013_e2","KAWY2013_e2_2","TOAST",33,1,"Divided",3,542,"Include"
"KAWY2013_e2","KAWY2013_e2_2","PLUG",34,1,"Divided",1,709,"Include"
"KAWY2013_e2","KAWY2013_e2_2","STEM",35,1,"Divided",5,1404,"Include"
"KAWY2013_e2","KAWY2013_e2_2","CAFE",36,0,"Divided",2,644,"Include"
"KAWY2013_e2","KAWY2013_e2_2","BOUNDARY",37,0,"Divided",2,1163,"Include"
"KAWY2013_e2","KAWY2013_e2_2","COPPER",38,1,"Divided",3,963,"Include"
"KAWY2013_e2","KAWY2013_e2_2","BURN",39,0,"Divided",1,1146,"Include"
"KAWY2013_e2","KAWY2013_e2_2","PASSAGE",40,1,"Divided",2,706,"Include"
"KAWY2013_e2","KAWY2013_e2_2","BOIL",41,0,"Divided",3,649,"Include"
"KAWY2013_e2","KAWY2013_e2_2","GOLF",42,1,"Divided",4,784,"Include"
"KAWY2013_e2","KAWY2013_e2_2","SODIUM",43,1,"Divided",1,711,"Include"
"KAWY2013_e2","KAWY2013_e2_2","WIRE",44,1,"Divided",3,751,"Include"
"KAWY2013_e2","KAWY2013_e2_2","LOTION",45,1,"Divided",1,678,"Include"
"KAWY2013_e2","KAWY2013_e2_2","CABINET",46,0,"Divided",2,925,"Include"
"KAWY2013_e2","KAWY2013_e2_2","RAKE",47,0,"Divided",3,501,"Include"
"KAWY2013_e2","KAWY2013_e2_2","EXPRESS",48,0,"Divided",1,796,"Include"
"KAWY2013_e2","KAWY2013_e2_2","PORT",49,1,"Divided",3,1249,"Include"
"KAWY2013_e2","KAWY2013_e2_2","SISTER",50,0,"Divided",1,921,"Include"
"KAWY2013_e2","KAWY2013_e2_2","COMPACT",51,0,"Divided",2,1216,"Include"
"KAWY2013_e2","KAWY2013_e2_2","SPONGE",52,0,"Divided",3,791,"Include"
"KAWY2013_e2","KAWY2013_e2_2","COMPOSER",53,0,"Divided",1,814,"Include"
"KAWY2013_e2","KAWY2013_e2_2","TEAR",54,0,"Divided",3,709,"Include"
"KAWY2013_e2","KAWY2013_e2_2","ESSAY",55,0,"Divided",1,812,"Include"
"KAWY2013_e2","KAWY2013_e2_2","MERCURY",56,1,"Divided",4,931,"Include"
"KAWY2013_e2","KAWY2013_e2_2","ECHO",57,0,"Divided",1,523,"Include"
"KAWY2013_e2","KAWY2013_e2_2","IODINE",58,1,"Divided",3,690,"Include"
"KAWY2013_e2","KAWY2013_e2_2","CARDINAL",59,1,"Divided",4,425,"Include"
"KAWY2013_e2","KAWY2013_e2_2","BADGE",60,0,"Divided",2,416,"Include"
"KAWY2013_e2","KAWY2013_e2_2","PEPPER",61,0,"Divided",4,439,"Include"
"KAWY2013_e2","KAWY2013_e2_2","GANG",62,1,"Divided",2,399,"Include"
"KAWY2013_e2","KAWY2013_e2_2","RANCH",63,0,"Divided",3,486,"Include"
"KAWY2013_e2","KAWY2013_e2_2","PRIZE",64,0,"Divided",4,365,"Include"
"KAWY2013_e2","KAWY2013_e2_2","PEER",65,1,"Divided",1,692,"Include"
"KAWY2013_e2","KAWY2013_e2_2","RAID",66,1,"Divided",2,619,"Include"
"KAWY2013_e2","KAWY2013_e2_2","CART",67,1,"Divided",1,819,"Include"
"KAWY2013_e2","KAWY2013_e2_2","TWEED",68,1,"Divided",3,1050,"Include"
"KAWY2013_e2","KAWY2013_e2_2","CREATURE",69,1,"Divided",3,881,"Include"
"KAWY2013_e2","KAWY2013_e2_2","POUND",70,1,"Divided",3,584,"Include"
"KAWY2013_e2","KAWY2013_e2_2","BUTCHER",71,1,"Divided",4,1264,"Include"
"KAWY2013_e2","KAWY2013_e2_2","ERRAND",72,0,"Divided",5,983,"Include"
"KAWY2013_e2","KAWY2013_e2_2","OWNER",73,0,"Divided",1,1374,"Include"
"KAWY2013_e2","KAWY2013_e2_2","DEPOSIT",74,0,"Divided",2,725,"Include"
"KAWY2013_e2","KAWY2013_e2_2","POLL",75,1,"Divided",2,1324,"Include"
"KAWY2013_e2","KAWY2013_e2_2","SWAMP",76,0,"Divided",1,866,"Include"
"KAWY2013_e2","KAWY2013_e2_2","TRUNK",77,0,"Divided",2,634,"Include"
"KAWY2013_e2","KAWY2013_e2_2","PUNCH",78,1,"Divided",3,497,"Include"
"KAWY2013_e2","KAWY2013_e2_2","SPEAR",79,1,"Divided",3,872,"Include"
"KAWY2013_e2","KAWY2013_e2_2","EDITION",80,1,"Divided",4,959,"Include"
"KAWY2013_e2","KAWY2013_e2_2","DAIRY",81,1,"Divided",5,519,"Include"
"KAWY2013_e2","KAWY2013_e2_2","MOLECULE",82,0,"Divided",1,862,"Include"
"KAWY2013_e2","KAWY2013_e2_2","RESORT",83,1,"Divided",5,518,"Include"
"KAWY2013_e2","KAWY2013_e2_2","CURB",84,1,"Divided",5,813,"Include"
"KAWY2013_e2","KAWY2013_e2_2","JOURNAL",85,0,"Divided",3,964,"Include"
"KAWY2013_e2","KAWY2013_e2_2","MAPLE",86,1,"Divided",1,539,"Include"
"KAWY2013_e2","KAWY2013_e2_2","KNIGHT",87,0,"Divided",5,466,"Include"
"KAWY2013_e2","KAWY2013_e2_2","TAPE",88,0,"Divided",5,1242,"Include"
"KAWY2013_e2","KAWY2013_e2_2","FOUNTAIN",89,0,"Divided",2,1025,"Include"
"KAWY2013_e2","KAWY2013_e2_2","WIDOW",90,0,"Divided",1,776,"Include"
"KAWY2013_e2","KAWY2013_e2_2","TRAY",91,1,"Divided",5,1631,"Include"
"KAWY2013_e2","KAWY2013_e2_2","PLAIN",92,1,"Divided",6,694,"Include"
"KAWY2013_e2","KAWY2013_e2_2","GIANT",93,1,"Divided",5,317,"Include"
"KAWY2013_e2","KAWY2013_e2_2","ORGAN",94,1,"Divided",5,597,"Include"
"KAWY2013_e2","KAWY2013_e2_2","WRAP",95,0,"Divided",2,604,"Include"
"KAWY2013_e2","KAWY2013_e2_2","ARBITER",96,1,"Divided",1,1379,"Include"
"KAWY2013_e2","KAWY2013_e2_2","SHOE",97,0,"Divided",2,1035,"Include"
"KAWY2013_e2","KAWY2013_e2_2","OVEN",98,0,"Divided",3,1025,"Include"
"KAWY2013_e2","KAWY2013_e2_2","FISH",99,0,"Divided",3,680,"Include"
"KAWY2013_e2","KAWY2013_e2_2","BATH",100,1,"Divided",5,928,"Include"
"KAWY2013_e2","KAWY2013_e2_2","HIGHWAY",1,0,"Divided",NA,0,"Exclude"
"KAWY2013_e2","KAWY2013_e2_2","REGISTER",2,1,"Divided",NA,0,"Exclude"
"KAWY2013_e2","KAWY2013_e2_2","CHUCKLE",3,1,"Divided",NA,0,"Exclude"
"KAWY2013_e2","KAWY2013_e2_2","SELF",4,0,"Divided",1,669,"Include"
"KAWY2013_e2","KAWY2013_e2_2","SCOUT",5,0,"Divided",2,756,"Include"
"KAWY2013_e2","KAWY2013_e2_2","CAPE",6,1,"Divided",2,523,"Include"
"KAWY2013_e2","KAWY2013_e2_2","PIONEER",7,0,"Divided",4,706,"Include"
"KAWY2013_e2","KAWY2013_e2_2","FABRIC",8,0,"Divided",2,553,"Include"
"KAWY2013_e2","KAWY2013_e2_2","NURSERY",9,0,"Divided",4,912,"Include"
"KAWY2013_e2","KAWY2013_e2_2","MIST",10,0,"Divided",2,679,"Include"
"KAWY2013_e2","KAWY2013_e2_2","TROLLEY",11,0,"Divided",1,877,"Include"
"KAWY2013_e2","KAWY2013_e2_2","GESTURE",12,0,"Divided",4,564,"Include"
"KAWY2013_e2","KAWY2013_e2_2","GUARD",13,1,"Divided",NA,0,"Exclude"
"KAWY2013_e2","KAWY2013_e2_2","FATIGUE",14,1,"Divided",NA,0,"Exclude"
"KAWY2013_e2","KAWY2013_e2_2","CHLORINE",15,0,"Divided",2,712,"Include"
"KAWY2013_e2","KAWY2013_e2_2","EXHAUST",16,0,"Divided",1,529,"Include"
"KAWY2013_e2","KAWY2013_e2_2","TROOP",17,0,"Divided",1,311,"Include"
"KAWY2013_e2","KAWY2013_e2_2","SKETCH",18,1,"Divided",1,575,"Include"
"KAWY2013_e2","KAWY2013_e2_2","STABLE",19,0,"Divided",1,598,"Include"
"KAWY2013_e2","KAWY2013_e2_2","PIANIST",20,1,"Divided",1,653,"Include"
"KAWY2013_e2","KAWY2013_e2_2","BREEZE",21,0,"Divided",2,804,"Include"
"KAWY2013_e2","KAWY2013_e2_2","WOUND",22,0,"Divided",3,539,"Include"
"KAWY2013_e2","KAWY2013_e2_2","SONATA",23,1,"Divided",4,914,"Include"
"KAWY2013_e2","KAWY2013_e2_2","CRADLE",24,1,"Divided",1,345,"Include"
"KAWY2013_e2","KAWY2013_e2_2","RACKET",25,1,"Divided",3,832,"Include"
"KAWY2013_e2","KAWY2013_e2_2","HOOD",26,1,"Divided",2,727,"Include"
"KAWY2013_e2","KAWY2013_e2_2","BOSS",27,0,"Divided",3,622,"Include"
"KAWY2013_e2","KAWY2013_e2_2","TUNE",28,1,"Divided",4,406,"Include"
"KAWY2013_e2","KAWY2013_e2_2","LAUGHTER",29,1,"Divided",2,860,"Include"
"KAWY2013_e2","KAWY2013_e2_2","GUEST",30,1,"Divided",3,611,"Include"
"KAWY2013_e2","KAWY2013_e2_2","CANON",31,1,"Divided",5,634,"Include"
"KAWY2013_e2","KAWY2013_e2_2","SOLDIER",32,1,"Divided",1,386,"Include"
"KAWY2013_e2","KAWY2013_e2_2","WORKER",33,0,"Divided",2,505,"Include"
"KAWY2013_e2","KAWY2013_e2_2","CARRIAGE",34,1,"Divided",2,432,"Include"
"KAWY2013_e2","KAWY2013_e2_2","PREY",35,1,"Divided",2,438,"Include"
"KAWY2013_e2","KAWY2013_e2_2","RING",36,0,"Divided",1,526,"Include"
"KAWY2013_e2","KAWY2013_e2_2","SPRUCE",37,0,"Divided",1,533,"Include"
"KAWY2013_e2","KAWY2013_e2_2","JAIL",38,0,"Divided",3,509,"Include"
"KAWY2013_e2","KAWY2013_e2_2","GLARE",39,1,"Divided",3,803,"Include"
"KAWY2013_e2","KAWY2013_e2_2","AVENUE",40,0,"Divided",2,938,"Include"
"KAWY2013_e2","KAWY2013_e2_2","ISLE",41,1,"Divided",3,592,"Include"
"KAWY2013_e2","KAWY2013_e2_2","HYMN",42,0,"Divided",2,791,"Include"
"KAWY2013_e2","KAWY2013_e2_2","RENT",43,0,"Divided",3,686,"Include"
"KAWY2013_e2","KAWY2013_e2_2","ROLL",44,0,"Divided",2,918,"Include"
"KAWY2013_e2","KAWY2013_e2_2","FLOWER",45,0,"Divided",4,733,"Include"
"KAWY2013_e2","KAWY2013_e2_2","SQUIRE",46,0,"Divided",2,1301,"Include"
"KAWY2013_e2","KAWY2013_e2_2","PROFILE",47,1,"Divided",6,763,"Include"
"KAWY2013_e2","KAWY2013_e2_2","SPLIT",48,1,"Divided",5,803,"Include"
"KAWY2013_e2","KAWY2013_e2_2","NATIVE",49,1,"Divided",3,1226,"Include"
"KAWY2013_e2","KAWY2013_e2_2","MUSCLE",50,1,"Divided",5,1138,"Include"
"KAWY2013_e2","KAWY2013_e2_2","BRASS",51,0,"Divided",2,745,"Include"
"KAWY2013_e2","KAWY2013_e2_2","FLEET",52,1,"Divided",5,513,"Include"
"KAWY2013_e2","KAWY2013_e2_2","ACRE",53,1,"Divided",4,1048,"Include"
"KAWY2013_e2","KAWY2013_e2_2","BISHOP",54,1,"Divided",6,912,"Include"
"KAWY2013_e2","KAWY2013_e2_2","SUDS",55,0,"Divided",1,919,"Include"
"KAWY2013_e2","KAWY2013_e2_2","BRUSH",56,1,"Divided",5,1135,"Include"
"KAWY2013_e2","KAWY2013_e2_2","BRAIN",57,0,"Divided",1,1095,"Include"
"KAWY2013_e2","KAWY2013_e2_2","TOURIST",58,0,"Divided",2,799,"Include"
"KAWY2013_e2","KAWY2013_e2_2","CONE",59,1,"Divided",4,583,"Include"
"KAWY2013_e2","KAWY2013_e2_2","FRICTION",60,1,"Divided",5,1118,"Include"
"KAWY2013_e2","KAWY2013_e2_2","SAUCE",61,1,"Divided",4,454,"Include"
"KAWY2013_e2","KAWY2013_e2_2","LACE",62,1,"Divided",2,397,"Include"
"KAWY2013_e2","KAWY2013_e2_2","FLASH",63,0,"Divided",2,693,"Include"
"KAWY2013_e2","KAWY2013_e2_2","CROWN",64,1,"Divided",5,285,"Include"
"KAWY2013_e2","KAWY2013_e2_2","SALARY",65,1,"Divided",5,980,"Include"
"KAWY2013_e2","KAWY2013_e2_2","TURNER",66,1,"Divided",4,348,"Include"
"KAWY2013_e2","KAWY2013_e2_2","ARROW",67,0,"Divided",5,963,"Include"
"KAWY2013_e2","KAWY2013_e2_2","DELL",68,0,"Divided",3,346,"Include"
"KAWY2013_e2","KAWY2013_e2_2","BATON",69,1,"Divided",3,338,"Include"
"KAWY2013_e2","KAWY2013_e2_2","LIMP",70,1,"Divided",NA,0,"Exclude"
"KAWY2013_e2","KAWY2013_e2_2","MORTAL",71,0,"Divided",NA,0,"Exclude"
"KAWY2013_e2","KAWY2013_e2_2","CHART",72,0,"Divided",2,328,"Include"
"KAWY2013_e2","KAWY2013_e2_2","GUIDE",73,1,"Divided",3,448,"Include"
"KAWY2013_e2","KAWY2013_e2_2","CANE",74,0,"Divided",2,536,"Include"
"KAWY2013_e2","KAWY2013_e2_2","LOBBY",75,1,"Divided",3,528,"Include"
"KAWY2013_e2","KAWY2013_e2_2","CHAPEL",76,1,"Divided",4,711,"Include"
"KAWY2013_e2","KAWY2013_e2_2","FOOTBALL",77,0,"Divided",2,975,"Include"
"KAWY2013_e2","KAWY2013_e2_2","MORTGAGE",78,1,"Divided",6,1094,"Include"
"KAWY2013_e2","KAWY2013_e2_2","HEEL",79,0,"Divided",2,686,"Include"
"KAWY2013_e2","KAWY2013_e2_2","FUSE",80,0,"Divided",3,1189,"Include"
"KAWY2013_e2","KAWY2013_e2_2","RAMP",81,1,"Divided",2,1245,"Include"
"KAWY2013_e2","KAWY2013_e2_2","BARK",82,1,"Divided",5,1540,"Include"
"KAWY2013_e2","KAWY2013_e2_2","GOSPEL",83,1,"Divided",5,1164,"Include"
"KAWY2013_e2","KAWY2013_e2_2","TOMB",84,1,"Divided",3,1634,"Include"
"KAWY2013_e2","KAWY2013_e2_2","TUBE",85,0,"Divided",1,858,"Include"
"KAWY2013_e2","KAWY2013_e2_2","CARBON",86,1,"Divided",5,1121,"Include"
"KAWY2013_e2","KAWY2013_e2_2","MEDICINE",87,0,"Divided",2,777,"Include"
"KAWY2013_e2","KAWY2013_e2_2","NEPHEW",88,0,"Divided",1,1008,"Include"
"KAWY2013_e2","KAWY2013_e2_2","POLISH",89,0,"Divided",5,744,"Include"
"KAWY2013_e2","KAWY2013_e2_2","FLOOD",90,1,"Divided",2,991,"Include"
"KAWY2013_e2","KAWY2013_e2_2","WINK",91,0,"Divided",3,630,"Include"
"KAWY2013_e2","KAWY2013_e2_2","CUSTOMER",92,0,"Divided",3,541,"Include"
"KAWY2013_e2","KAWY2013_e2_2","GRAVEL",93,1,"Divided",4,420,"Include"
"KAWY2013_e2","KAWY2013_e2_2","BLONDE",94,0,"Divided",2,907,"Include"
"KAWY2013_e2","KAWY2013_e2_2","INFANTRY",95,1,"Divided",5,962,"Include"
"KAWY2013_e2","KAWY2013_e2_2","IVORY",96,0,"Divided",4,1032,"Include"
"KAWY2013_e2","KAWY2013_e2_2","EASEL",97,0,"Divided",2,528,"Include"
"KAWY2013_e2","KAWY2013_e2_2","COIN",98,0,"Divided",3,536,"Include"
"KAWY2013_e2","KAWY2013_e2_2","SMELL",99,1,"Divided",3,1007,"Include"
"KAWY2013_e2","KAWY2013_e2_2","PARADE",100,0,"Divided",4,1207,"Include"
"KAWY2013_e2","KAWY2013_e2_2","MAHOGANY",1,0,"Full",1,773,"Include"
"KAWY2013_e2","KAWY2013_e2_2","PARTNER",2,1,"Full",4,1539,"Include"
"KAWY2013_e2","KAWY2013_e2_2","POISON",3,0,"Full",4,832,"Include"
"KAWY2013_e2","KAWY2013_e2_2","SEWER",4,1,"Full",6,685,"Include"
"KAWY2013_e2","KAWY2013_e2_2","WITCH",5,0,"Full",1,971,"Include"
"KAWY2013_e2","KAWY2013_e2_2","WHEAT",6,1,"Full",3,1032,"Include"
"KAWY2013_e2","KAWY2013_e2_2","RELIC",7,0,"Full",2,965,"Include"
"KAWY2013_e2","KAWY2013_e2_2","TRACK",8,0,"Full",3,1107,"Include"
"KAWY2013_e2","KAWY2013_e2_2","POCKET",9,0,"Full",1,720,"Include"
"KAWY2013_e2","KAWY2013_e2_2","WOLF",10,0,"Full",1,525,"Include"
"KAWY2013_e2","KAWY2013_e2_2","BANG",11,1,"Full",5,969,"Include"
"KAWY2013_e2","KAWY2013_e2_2","MOLD",12,1,"Full",6,1367,"Include"
"KAWY2013_e2","KAWY2013_e2_2","CURVE",13,1,"Full",5,756,"Include"
"KAWY2013_e2","KAWY2013_e2_2","DEED",14,1,"Full",3,737,"Include"
"KAWY2013_e2","KAWY2013_e2_2","PLUMB",15,0,"Full",2,687,"Include"
"KAWY2013_e2","KAWY2013_e2_2","CABLE",16,1,"Full",6,572,"Include"
"KAWY2013_e2","KAWY2013_e2_2","SOLE",17,0,"Full",4,1049,"Include"
"KAWY2013_e2","KAWY2013_e2_2","TIMBER",18,1,"Full",6,631,"Include"
"KAWY2013_e2","KAWY2013_e2_2","BIOLOGY",19,1,"Full",6,532,"Include"
"KAWY2013_e2","KAWY2013_e2_2","CRAFT",20,0,"Full",2,705,"Include"
"KAWY2013_e2","KAWY2013_e2_2","MINK",21,0,"Full",1,718,"Include"
"KAWY2013_e2","KAWY2013_e2_2","CAVE",22,0,"Full",2,1387,"Include"
"KAWY2013_e2","KAWY2013_e2_2","LINK",23,0,"Full",1,761,"Include"
"KAWY2013_e2","KAWY2013_e2_2","BUREAU",24,1,"Full",6,390,"Include"
"KAWY2013_e2","KAWY2013_e2_2","MARGIN",25,0,"Full",4,627,"Include"
"KAWY2013_e2","KAWY2013_e2_2","JUMP",26,1,"Full",4,257,"Include"
"KAWY2013_e2","KAWY2013_e2_2","AISLE",27,1,"Full",3,62,"Include"
"KAWY2013_e2","KAWY2013_e2_2","ITCH",28,0,"Full",3,139,"Include"
"KAWY2013_e2","KAWY2013_e2_2","ACCIDENT",29,1,"Full",3,408,"Include"
"KAWY2013_e2","KAWY2013_e2_2","NERVE",30,1,"Full",5,661,"Include"
"KAWY2013_e2","KAWY2013_e2_2","LENS",31,1,"Full",6,307,"Include"
"KAWY2013_e2","KAWY2013_e2_2","CHAIN",32,0,"Full",4,464,"Include"
"KAWY2013_e2","KAWY2013_e2_2","STATUE",33,1,"Full",2,190,"Include"
"KAWY2013_e2","KAWY2013_e2_2","CHOIR",34,1,"Full",2,523,"Include"
"KAWY2013_e2","KAWY2013_e2_2","MONUMENT",35,0,"Full",6,425,"Include"
"KAWY2013_e2","KAWY2013_e2_2","GALLERY",36,1,"Full",5,342,"Include"
"KAWY2013_e2","KAWY2013_e2_2","RECTOR",37,0,"Full",1,179,"Include"
"KAWY2013_e2","KAWY2013_e2_2","GULF",38,0,"Full",6,1,"Include"
"KAWY2013_e2","KAWY2013_e2_2","TUNNEL",39,0,"Full",5,911,"Include"
"KAWY2013_e2","KAWY2013_e2_2","TEMPLE",40,1,"Full",3,844,"Include"
"KAWY2013_e2","KAWY2013_e2_2","DRAIN",41,1,"Full",4,681,"Include"
"KAWY2013_e2","KAWY2013_e2_2","CARPET",42,1,"Full",6,758,"Include"
"KAWY2013_e2","KAWY2013_e2_2","DOORWAY",43,1,"Full",5,1443,"Include"
"KAWY2013_e2","KAWY2013_e2_2","BLADE",44,0,"Full",2,865,"Include"
"KAWY2013_e2","KAWY2013_e2_2","SEAL",45,1,"Full",3,430,"Include"
"KAWY2013_e2","KAWY2013_e2_2","MILEAGE",46,1,"Full",4,347,"Include"
"KAWY2013_e2","KAWY2013_e2_2","FOAM",47,0,"Full",5,633,"Include"
"KAWY2013_e2","KAWY2013_e2_2","LOAD",48,1,"Full",6,1365,"Include"
"KAWY2013_e2","KAWY2013_e2_2","STRAND",49,0,"Full",2,771,"Include"
"KAWY2013_e2","KAWY2013_e2_2","DEPUTY",50,0,"Full",1,496,"Include"
"KAWY2013_e2","KAWY2013_e2_2","CAST",51,0,"Full",1,621,"Include"
"KAWY2013_e2","KAWY2013_e2_2","FERRY",52,0,"Full",1,1050,"Include"
"KAWY2013_e2","KAWY2013_e2_2","DOME",53,1,"Full",6,552,"Include"
"KAWY2013_e2","KAWY2013_e2_2","OYSTER",54,0,"Full",6,742,"Include"
"KAWY2013_e2","KAWY2013_e2_2","LEAF",55,0,"Full",3,1140,"Include"
"KAWY2013_e2","KAWY2013_e2_2","RABBI",56,1,"Full",5,1089,"Include"
"KAWY2013_e2","KAWY2013_e2_2","STING",57,0,"Full",3,1007,"Include"
"KAWY2013_e2","KAWY2013_e2_2","PALM",58,1,"Full",5,941,"Include"
"KAWY2013_e2","KAWY2013_e2_2","LIME",59,1,"Full",6,505,"Include"
"KAWY2013_e2","KAWY2013_e2_2","STAKE",60,1,"Full",6,1271,"Include"
"KAWY2013_e2","KAWY2013_e2_2","CHANNEL",61,1,"Full",3,1011,"Include"
"KAWY2013_e2","KAWY2013_e2_2","PALETTE",62,0,"Full",1,977,"Include"
"KAWY2013_e2","KAWY2013_e2_2","PASTOR",63,1,"Full",6,767,"Include"
"KAWY2013_e2","KAWY2013_e2_2","CREW",64,1,"Full",6,572,"Include"
"KAWY2013_e2","KAWY2013_e2_2","CORAL",65,1,"Full",6,634,"Include"
"KAWY2013_e2","KAWY2013_e2_2","BUCKLE",66,1,"Full",3,1047,"Include"
"KAWY2013_e2","KAWY2013_e2_2","SELLER",67,1,"Full",4,1060,"Include"
"KAWY2013_e2","KAWY2013_e2_2","CELLAR",68,0,"Full",6,561,"Include"
"KAWY2013_e2","KAWY2013_e2_2","SHUTTER",69,1,"Full",6,495,"Include"
"KAWY2013_e2","KAWY2013_e2_2","LIQUID",70,0,"Full",3,972,"Include"
"KAWY2013_e2","KAWY2013_e2_2","SAIL",71,0,"Full",5,857,"Include"
"KAWY2013_e2","KAWY2013_e2_2","TENNIS",72,0,"Full",1,886,"Include"
"KAWY2013_e2","KAWY2013_e2_2","AUNT",73,1,"Full",2,754,"Include"
"KAWY2013_e2","KAWY2013_e2_2","SUITE",74,0,"Full",2,1134,"Include"
"KAWY2013_e2","KAWY2013_e2_2","NEST",75,0,"Full",1,715,"Include"
"KAWY2013_e2","KAWY2013_e2_2","TOLL",76,0,"Full",1,808,"Include"
"KAWY2013_e2","KAWY2013_e2_2","ANTIQUE",77,0,"Full",2,452,"Include"
"KAWY2013_e2","KAWY2013_e2_2","SERGEANT",78,0,"Full",3,401,"Include"
"KAWY2013_e2","KAWY2013_e2_2","POPE",79,0,"Full",3,1534,"Include"
"KAWY2013_e2","KAWY2013_e2_2","STRIDE",80,0,"Full",4,651,"Include"
"KAWY2013_e2","KAWY2013_e2_2","HARDWARE",81,1,"Full",6,632,"Include"
"KAWY2013_e2","KAWY2013_e2_2","SATIN",82,1,"Full",6,531,"Include"
"KAWY2013_e2","KAWY2013_e2_2","CLOSET",83,0,"Full",2,801,"Include"
"KAWY2013_e2","KAWY2013_e2_2","THINKER",84,0,"Full",1,765,"Include"
"KAWY2013_e2","KAWY2013_e2_2","TANK",85,1,"Full",4,619,"Include"
"KAWY2013_e2","KAWY2013_e2_2","BALLOT",86,0,"Full",5,745,"Include"
"KAWY2013_e2","KAWY2013_e2_2","SEAM",87,0,"Full",2,518,"Include"
"KAWY2013_e2","KAWY2013_e2_2","HARVEST",88,0,"Full",1,418,"Include"
"KAWY2013_e2","KAWY2013_e2_2","CEREMONY",89,1,"Full",6,335,"Include"
"KAWY2013_e2","KAWY2013_e2_2","SACK",90,1,"Full",6,620,"Include"
"KAWY2013_e2","KAWY2013_e2_2","FOIL",91,1,"Full",6,313,"Include"
"KAWY2013_e2","KAWY2013_e2_2","CASH",92,1,"Full",4,278,"Include"
"KAWY2013_e2","KAWY2013_e2_2","KISS",93,1,"Full",3,276,"Include"
"KAWY2013_e2","KAWY2013_e2_2","DAYLIGHT",94,0,"Full",2,1153,"Include"
"KAWY2013_e2","KAWY2013_e2_2","REFUSE",95,1,"Full",1,990,"Include"
"KAWY2013_e2","KAWY2013_e2_2","MAST",96,0,"Full",1,348,"Include"
"KAWY2013_e2","KAWY2013_e2_2","GALLON",97,0,"Full",2,552,"Include"
"KAWY2013_e2","KAWY2013_e2_2","THUNDER",98,0,"Full",5,902,"Include"
"KAWY2013_e2","KAWY2013_e2_2","STROKE",99,1,"Full",5,851,"Include"
"KAWY2013_e2","KAWY2013_e2_2","MAGAZINE",100,1,"Full",6,496,"Include"
"KAWY2013_e2","KAWY2013_e2_3","ARROW",1,1,"Full",6,949,"Include"
"KAWY2013_e2","KAWY2013_e2_3","MAHOGANY",2,0,"Full",1,930,"Include"
"KAWY2013_e2","KAWY2013_e2_3","MONUMENT",3,0,"Full",2,1647,"Include"
"KAWY2013_e2","KAWY2013_e2_3","GUEST",4,1,"Full",6,1148,"Include"
"KAWY2013_e2","KAWY2013_e2_3","ROLL",5,0,"Full",2,1384,"Include"
"KAWY2013_e2","KAWY2013_e2_3","REBEL",6,0,"Full",6,677,"Include"
"KAWY2013_e2","KAWY2013_e2_3","LOAD",7,0,"Full",5,1377,"Include"
"KAWY2013_e2","KAWY2013_e2_3","BRUSH",8,1,"Full",4,781,"Include"
"KAWY2013_e2","KAWY2013_e2_3","HIGHWAY",9,1,"Full",6,906,"Include"
"KAWY2013_e2","KAWY2013_e2_3","DIRT",10,0,"Full",3,1383,"Include"
"KAWY2013_e2","KAWY2013_e2_3","ALERT",11,0,"Full",1,1411,"Include"
"KAWY2013_e2","KAWY2013_e2_3","AUNT",12,0,"Full",5,881,"Include"
"KAWY2013_e2","KAWY2013_e2_3","STOOL",13,1,"Full",6,910,"Include"
"KAWY2013_e2","KAWY2013_e2_3","TURNER",14,1,"Full",6,409,"Include"
"KAWY2013_e2","KAWY2013_e2_3","YARD",15,1,"Full",6,374,"Include"
"KAWY2013_e2","KAWY2013_e2_3","CAGE",16,0,"Full",5,1619,"Include"
"KAWY2013_e2","KAWY2013_e2_3","PATENT",17,1,"Full",6,688,"Include"
"KAWY2013_e2","KAWY2013_e2_3","MAST",18,1,"Full",6,461,"Include"
"KAWY2013_e2","KAWY2013_e2_3","QUARTER",19,1,"Full",6,361,"Include"
"KAWY2013_e2","KAWY2013_e2_3","INFANTRY",20,1,"Full",6,262,"Include"
"KAWY2013_e2","KAWY2013_e2_3","PORT",21,1,"Full",6,930,"Include"
"KAWY2013_e2","KAWY2013_e2_3","REVOLVER",22,0,"Full",6,223,"Include"
"KAWY2013_e2","KAWY2013_e2_3","OWNER",23,0,"Full",1,733,"Include"
"KAWY2013_e2","KAWY2013_e2_3","GESTURE",24,1,"Full",6,249,"Include"
"KAWY2013_e2","KAWY2013_e2_3","CANON",25,0,"Full",2,758,"Include"
"KAWY2013_e2","KAWY2013_e2_3","CHANNEL",26,0,"Full",3,884,"Include"
"KAWY2013_e2","KAWY2013_e2_3","CONE",27,1,"Full",6,368,"Include"
"KAWY2013_e2","KAWY2013_e2_3","POISON",28,0,"Full",6,958,"Include"
"KAWY2013_e2","KAWY2013_e2_3","RECTOR",29,0,"Full",5,714,"Include"
"KAWY2013_e2","KAWY2013_e2_3","MIST",30,0,"Full",6,279,"Include"
"KAWY2013_e2","KAWY2013_e2_3","BURN",31,0,"Full",6,740,"Include"
"KAWY2013_e2","KAWY2013_e2_3","SCRATCH",32,0,"Full",4,912,"Include"
"KAWY2013_e2","KAWY2013_e2_3","SPRAY",33,0,"Full",6,477,"Include"
"KAWY2013_e2","KAWY2013_e2_3","SHUTTER",34,0,"Full",4,538,"Include"
"KAWY2013_e2","KAWY2013_e2_3","ROAR",35,0,"Full",3,631,"Include"
"KAWY2013_e2","KAWY2013_e2_3","LENS",36,0,"Full",3,1012,"Include"
"KAWY2013_e2","KAWY2013_e2_3","LOCK",37,1,"Full",6,801,"Include"
"KAWY2013_e2","KAWY2013_e2_3","SPONGE",38,0,"Full",3,1118,"Include"
"KAWY2013_e2","KAWY2013_e2_3","TWIST",39,0,"Full",3,1355,"Include"
"KAWY2013_e2","KAWY2013_e2_3","BUBBLE",40,0,"Full",3,1225,"Include"
"KAWY2013_e2","KAWY2013_e2_3","ERRAND",41,0,"Full",1,1238,"Include"
"KAWY2013_e2","KAWY2013_e2_3","BLONDE",42,1,"Full",6,803,"Include"
"KAWY2013_e2","KAWY2013_e2_3","TIRE",43,0,"Full",6,736,"Include"
"KAWY2013_e2","KAWY2013_e2_3","BAYONET",44,1,"Full",6,350,"Include"
"KAWY2013_e2","KAWY2013_e2_3","WOLF",45,0,"Full",1,843,"Include"
"KAWY2013_e2","KAWY2013_e2_3","PRIZE",46,0,"Full",1,1144,"Include"
"KAWY2013_e2","KAWY2013_e2_3","RACKET",47,1,"Full",6,453,"Include"
"KAWY2013_e2","KAWY2013_e2_3","MARGIN",48,1,"Full",6,370,"Include"
"KAWY2013_e2","KAWY2013_e2_3","NEST",49,0,"Full",4,862,"Include"
"KAWY2013_e2","KAWY2013_e2_3","LAUNDRY",50,0,"Full",2,939,"Include"
"KAWY2013_e2","KAWY2013_e2_3","CABLE",51,0,"Full",6,391,"Include"
"KAWY2013_e2","KAWY2013_e2_3","NEPHEW",52,1,"Full",6,356,"Include"
"KAWY2013_e2","KAWY2013_e2_3","PIONEER",53,0,"Full",1,1362,"Include"
"KAWY2013_e2","KAWY2013_e2_3","SPARK",54,1,"Full",6,622,"Include"
"KAWY2013_e2","KAWY2013_e2_3","MORTGAGE",55,1,"Full",6,1131,"Include"
"KAWY2013_e2","KAWY2013_e2_3","CREATURE",56,1,"Full",6,664,"Include"
"KAWY2013_e2","KAWY2013_e2_3","ESSAY",57,0,"Full",1,453,"Include"
"KAWY2013_e2","KAWY2013_e2_3","ORGAN",58,1,"Full",6,434,"Include"
"KAWY2013_e2","KAWY2013_e2_3","FRICTION",59,1,"Full",6,543,"Include"
"KAWY2013_e2","KAWY2013_e2_3","MOISTURE",60,1,"Full",6,396,"Include"
"KAWY2013_e2","KAWY2013_e2_3","GIFT",61,1,"Full",1,634,"Include"
"KAWY2013_e2","KAWY2013_e2_3","SUPPER",62,1,"Full",1,359,"Include"
"KAWY2013_e2","KAWY2013_e2_3","LIFT",63,1,"Full",6,580,"Include"
"KAWY2013_e2","KAWY2013_e2_3","TIMBER",64,0,"Full",2,1073,"Include"
"KAWY2013_e2","KAWY2013_e2_3","VERSE",65,1,"Full",6,734,"Include"
"KAWY2013_e2","KAWY2013_e2_3","PRAIRIE",66,0,"Full",3,763,"Include"
"KAWY2013_e2","KAWY2013_e2_3","SEAL",67,0,"Full",4,504,"Include"
"KAWY2013_e2","KAWY2013_e2_3","IODINE",68,1,"Full",6,837,"Include"
"KAWY2013_e2","KAWY2013_e2_3","GIANT",69,1,"Full",6,435,"Include"
"KAWY2013_e2","KAWY2013_e2_3","NICKEL",70,1,"Full",6,352,"Include"
"KAWY2013_e2","KAWY2013_e2_3","TEAR",71,0,"Full",1,973,"Include"
"KAWY2013_e2","KAWY2013_e2_3","SEAM",72,1,"Full",5,970,"Include"
"KAWY2013_e2","KAWY2013_e2_3","STING",73,0,"Full",4,919,"Include"
"KAWY2013_e2","KAWY2013_e2_3","BUREAU",74,1,"Full",6,421,"Include"
"KAWY2013_e2","KAWY2013_e2_3","LIMP",75,1,"Full",6,434,"Include"
"KAWY2013_e2","KAWY2013_e2_3","TUBE",76,0,"Full",3,1167,"Include"
"KAWY2013_e2","KAWY2013_e2_3","SPRUCE",77,0,"Full",2,1196,"Include"
"KAWY2013_e2","KAWY2013_e2_3","CURB",78,0,"Full",3,665,"Include"
"KAWY2013_e2","KAWY2013_e2_3","GRIP",79,1,"Full",6,373,"Include"
"KAWY2013_e2","KAWY2013_e2_3","BIOLOGY",80,0,"Full",1,738,"Include"
"KAWY2013_e2","KAWY2013_e2_3","PALACE",81,1,"Full",6,495,"Include"
"KAWY2013_e2","KAWY2013_e2_3","TRAY",82,0,"Full",1,605,"Include"
"KAWY2013_e2","KAWY2013_e2_3","CART",83,1,"Full",6,794,"Include"
"KAWY2013_e2","KAWY2013_e2_3","FENCE",84,1,"Full",6,695,"Include"
"KAWY2013_e2","KAWY2013_e2_3","LIQUID",85,0,"Full",6,499,"Include"
"KAWY2013_e2","KAWY2013_e2_3","SKETCH",86,1,"Full",6,736,"Include"
"KAWY2013_e2","KAWY2013_e2_3","BRONZE",87,0,"Full",2,1085,"Include"
"KAWY2013_e2","KAWY2013_e2_3","BARK",88,0,"Full",6,746,"Include"
"KAWY2013_e2","KAWY2013_e2_3","PALETTE",89,1,"Full",6,471,"Include"
"KAWY2013_e2","KAWY2013_e2_3","LAUGHTER",90,0,"Full",2,1188,"Include"
"KAWY2013_e2","KAWY2013_e2_3","CHAPEL",91,1,"Full",6,832,"Include"
"KAWY2013_e2","KAWY2013_e2_3","LIME",92,1,"Full",6,654,"Include"
"KAWY2013_e2","KAWY2013_e2_3","SOAP",93,1,"Full",5,555,"Include"
"KAWY2013_e2","KAWY2013_e2_3","WIRE",94,0,"Full",3,951,"Include"
"KAWY2013_e2","KAWY2013_e2_3","CAST",95,0,"Full",5,1269,"Include"
"KAWY2013_e2","KAWY2013_e2_3","DEPOSIT",96,1,"Full",6,913,"Include"
"KAWY2013_e2","KAWY2013_e2_3","ATOM",97,1,"Full",6,479,"Include"
"KAWY2013_e2","KAWY2013_e2_3","QUACK",98,1,"Full",6,556,"Include"
"KAWY2013_e2","KAWY2013_e2_3","EXHAUST",99,1,"Full",3,1289,"Include"
"KAWY2013_e2","KAWY2013_e2_3","SHOWER",100,1,"Full",4,886,"Include"
"KAWY2013_e2","KAWY2013_e2_3","CHUCKLE",1,1,"Divided",1,540,"Include"
"KAWY2013_e2","KAWY2013_e2_3","WIDOW",2,0,"Divided",3,1012,"Include"
"KAWY2013_e2","KAWY2013_e2_3","BATON",3,1,"Divided",1,1147,"Include"
"KAWY2013_e2","KAWY2013_e2_3","TWEED",4,0,"Divided",1,562,"Include"
"KAWY2013_e2","KAWY2013_e2_3","PEER",5,1,"Divided",3,1402,"Include"
"KAWY2013_e2","KAWY2013_e2_3","FOAM",6,1,"Divided",3,1505,"Include"
"KAWY2013_e2","KAWY2013_e2_3","DOME",7,0,"Divided",1,440,"Include"
"KAWY2013_e2","KAWY2013_e2_3","SAIL",8,0,"Divided",NA,0,"Exclude"
"KAWY2013_e2","KAWY2013_e2_3","BRAIN",9,1,"Divided",1,1014,"Include"
"KAWY2013_e2","KAWY2013_e2_3","FLASH",10,1,"Divided",4,989,"Include"
"KAWY2013_e2","KAWY2013_e2_3","EDITION",11,1,"Divided",4,1269,"Include"
"KAWY2013_e2","KAWY2013_e2_3","SCOUT",12,0,"Divided",4,1228,"Include"
"KAWY2013_e2","KAWY2013_e2_3","BLADE",13,1,"Divided",5,1524,"Include"
"KAWY2013_e2","KAWY2013_e2_3","RIOT",14,0,"Divided",NA,0,"Exclude"
"KAWY2013_e2","KAWY2013_e2_3","SEWER",15,0,"Divided",2,1043,"Include"
"KAWY2013_e2","KAWY2013_e2_3","CEREMONY",16,0,"Divided",5,1034,"Include"
"KAWY2013_e2","KAWY2013_e2_3","MERCURY",17,0,"Divided",6,1426,"Include"
"KAWY2013_e2","KAWY2013_e2_3","MEADOW",18,0,"Divided",4,1113,"Include"
"KAWY2013_e2","KAWY2013_e2_3","POPE",19,0,"Divided",4,1361,"Include"
"KAWY2013_e2","KAWY2013_e2_3","TUNE",20,0,"Divided",5,888,"Include"
"KAWY2013_e2","KAWY2013_e2_3","DOORWAY",21,1,"Divided",3,944,"Include"
"KAWY2013_e2","KAWY2013_e2_3","THINKER",22,0,"Divided",5,470,"Include"
"KAWY2013_e2","KAWY2013_e2_3","DISPLAY",23,1,"Divided",4,1053,"Include"
"KAWY2013_e2","KAWY2013_e2_3","SOLDIER",24,0,"Divided",3,964,"Include"
"KAWY2013_e2","KAWY2013_e2_3","ROUGH",25,0,"Divided",3,971,"Include"
"KAWY2013_e2","KAWY2013_e2_3","CORAL",26,1,"Divided",3,1394,"Include"
"KAWY2013_e2","KAWY2013_e2_3","PARISH",27,1,"Divided",4,953,"Include"
"KAWY2013_e2","KAWY2013_e2_3","GALLERY",28,1,"Divided",6,705,"Include"
"KAWY2013_e2","KAWY2013_e2_3","LOTION",29,0,"Divided",2,1192,"Include"
"KAWY2013_e2","KAWY2013_e2_3","CHART",30,0,"Divided",2,1199,"Include"
"KAWY2013_e2","KAWY2013_e2_3","AVENUE",31,0,"Divided",2,1877,"Include"
"KAWY2013_e2","KAWY2013_e2_3","PLUG",32,0,"Divided",2,605,"Include"
"KAWY2013_e2","KAWY2013_e2_3","GALLON",33,1,"Divided",2,916,"Include"
"KAWY2013_e2","KAWY2013_e2_3","GULF",34,0,"Divided",1,1083,"Include"
"KAWY2013_e2","KAWY2013_e2_3","PUNCH",35,1,"Divided",1,1139,"Include"
"KAWY2013_e2","KAWY2013_e2_3","POWDER",36,1,"Divided",1,650,"Include"
"KAWY2013_e2","KAWY2013_e2_3","PASTOR",37,0,"Divided",5,1248,"Include"
"KAWY2013_e2","KAWY2013_e2_3","CRAFT",38,1,"Divided",5,887,"Include"
"KAWY2013_e2","KAWY2013_e2_3","BADGE",39,0,"Divided",2,1550,"Include"
"KAWY2013_e2","KAWY2013_e2_3","SHOE",40,0,"Divided",2,1142,"Include"
"KAWY2013_e2","KAWY2013_e2_3","SATIN",41,1,"Divided",1,1341,"Include"
"KAWY2013_e2","KAWY2013_e2_3","KEEL",42,1,"Divided",6,868,"Include"
"KAWY2013_e2","KAWY2013_e2_3","COIN",43,1,"Divided",1,763,"Include"
"KAWY2013_e2","KAWY2013_e2_3","MEDICINE",44,1,"Divided",1,882,"Include"
"KAWY2013_e2","KAWY2013_e2_3","CUSTOMER",45,0,"Divided",1,858,"Include"
"KAWY2013_e2","KAWY2013_e2_3","COMPACT",46,1,"Divided",1,688,"Include"
"KAWY2013_e2","KAWY2013_e2_3","EASEL",47,0,"Divided",2,503,"Include"
"KAWY2013_e2","KAWY2013_e2_3","WINK",48,1,"Divided",6,1102,"Include"
"KAWY2013_e2","KAWY2013_e2_3","HIDE",49,0,"Divided",1,918,"Include"
"KAWY2013_e2","KAWY2013_e2_3","HEEL",50,1,"Divided",6,1421,"Include"
"KAWY2013_e2","KAWY2013_e2_3","WHISPER",51,1,"Divided",5,1012,"Include"
"KAWY2013_e2","KAWY2013_e2_3","BOUNDARY",52,0,"Divided",1,1068,"Include"
"KAWY2013_e2","KAWY2013_e2_3","SERGEANT",53,1,"Divided",6,803,"Include"
"KAWY2013_e2","KAWY2013_e2_3","OYSTER",54,0,"Divided",5,186,"Include"
"KAWY2013_e2","KAWY2013_e2_3","CARDINAL",55,1,"Divided",3,304,"Include"
"KAWY2013_e2","KAWY2013_e2_3","LOBBY",56,0,"Divided",2,534,"Include"
"KAWY2013_e2","KAWY2013_e2_3","SOPRANO",57,1,"Divided",5,797,"Include"
"KAWY2013_e2","KAWY2013_e2_3","SQUIRE",58,1,"Divided",6,645,"Include"
"KAWY2013_e2","KAWY2013_e2_3","PUZZLE",59,0,"Divided",3,1436,"Include"
"KAWY2013_e2","KAWY2013_e2_3","FOIL",60,1,"Divided",2,964,"Include"
"KAWY2013_e2","KAWY2013_e2_3","CAFE",61,0,"Divided",3,970,"Include"
"KAWY2013_e2","KAWY2013_e2_3","CHOIR",62,0,"Divided",2,1169,"Include"
"KAWY2013_e2","KAWY2013_e2_3","DRAIN",63,0,"Divided",2,568,"Include"
"KAWY2013_e2","KAWY2013_e2_3","RANCH",64,0,"Divided",2,831,"Include"
"KAWY2013_e2","KAWY2013_e2_3","SINGER",65,1,"Divided",4,1942,"Include"
"KAWY2013_e2","KAWY2013_e2_3","GANG",66,1,"Divided",6,1324,"Include"
"KAWY2013_e2","KAWY2013_e2_3","BORDER",67,1,"Divided",6,516,"Include"
"KAWY2013_e2","KAWY2013_e2_3","SELLER",68,0,"Divided",5,491,"Include"
"KAWY2013_e2","KAWY2013_e2_3","FAINT",69,0,"Divided",4,610,"Include"
"KAWY2013_e2","KAWY2013_e2_3","GLARE",70,1,"Divided",3,1482,"Include"
"KAWY2013_e2","KAWY2013_e2_3","MOLECULE",71,0,"Divided",3,337,"Include"
"KAWY2013_e2","KAWY2013_e2_3","KNIGHT",72,1,"Divided",1,664,"Include"
"KAWY2013_e2","KAWY2013_e2_3","MORTAL",73,1,"Divided",3,367,"Include"
"KAWY2013_e2","KAWY2013_e2_3","STEM",74,0,"Divided",3,390,"Include"
"KAWY2013_e2","KAWY2013_e2_3","EMBRACE",75,0,"Divided",1,557,"Include"
"KAWY2013_e2","KAWY2013_e2_3","FURNACE",76,1,"Divided",1,1061,"Include"
"KAWY2013_e2","KAWY2013_e2_3","TAPE",77,1,"Divided",1,1708,"Include"
"KAWY2013_e2","KAWY2013_e2_3","KISS",78,1,"Divided",1,996,"Include"
"KAWY2013_e2","KAWY2013_e2_3","CRADLE",79,0,"Divided",2,1003,"Include"
"KAWY2013_e2","KAWY2013_e2_3","SEGMENT",80,1,"Divided",6,690,"Include"
"KAWY2013_e2","KAWY2013_e2_3","NAIL",81,1,"Divided",1,889,"Include"
"KAWY2013_e2","KAWY2013_e2_3","IVORY",82,0,"Divided",NA,0,"Exclude"
"KAWY2013_e2","KAWY2013_e2_3","IRON",83,0,"Divided",5,1016,"Include"
"KAWY2013_e2","KAWY2013_e2_3","BISHOP",84,0,"Divided",1,751,"Include"
"KAWY2013_e2","KAWY2013_e2_3","PREY",85,1,"Divided",6,967,"Include"
"KAWY2013_e2","KAWY2013_e2_3","REFUSE",86,1,"Divided",1,654,"Include"
"KAWY2013_e2","KAWY2013_e2_3","TRAIL",87,1,"Divided",2,325,"Include"
"KAWY2013_e2","KAWY2013_e2_3","ACCIDENT",88,0,"Divided",NA,0,"Exclude"
"KAWY2013_e2","KAWY2013_e2_3","RELIC",89,0,"Divided",1,516,"Include"
"KAWY2013_e2","KAWY2013_e2_3","ECHO",90,0,"Divided",1,603,"Include"
"KAWY2013_e2","KAWY2013_e2_3","SOLE",91,1,"Divided",2,786,"Include"
"KAWY2013_e2","KAWY2013_e2_3","BOOTH",92,1,"Divided",2,554,"Include"
"KAWY2013_e2","KAWY2013_e2_3","BUILDER",93,0,"Divided",3,1537,"Include"
"KAWY2013_e2","KAWY2013_e2_3","ISLE",94,0,"Divided",2,807,"Include"
"KAWY2013_e2","KAWY2013_e2_3","FLOOD",95,0,"Divided",2,526,"Include"
"KAWY2013_e2","KAWY2013_e2_3","DEBT",96,1,"Divided",6,1205,"Include"
"KAWY2013_e2","KAWY2013_e2_3","SISTER",97,1,"Divided",2,588,"Include"
"KAWY2013_e2","KAWY2013_e2_3","STABLE",98,1,"Divided",4,1475,"Include"
"KAWY2013_e2","KAWY2013_e2_3","POLISH",99,0,"Divided",2,571,"Include"
"KAWY2013_e2","KAWY2013_e2_3","SLOPE",100,1,"Divided",2,130,"Include"
"KAWY2013_e2","KAWY2013_e2_3","BRASS",1,0,"Divided",2,821,"Include"
"KAWY2013_e2","KAWY2013_e2_3","TRACK",2,1,"Divided",3,1310,"Include"
"KAWY2013_e2","KAWY2013_e2_3","DEPUTY",3,0,"Divided",3,388,"Include"
"KAWY2013_e2","KAWY2013_e2_3","TROLLEY",4,1,"Divided",NA,0,"Exclude"
"KAWY2013_e2","KAWY2013_e2_3","SUITE",5,1,"Divided",3,674,"Include"
"KAWY2013_e2","KAWY2013_e2_3","SUNLIGHT",6,1,"Divided",5,857,"Include"
"KAWY2013_e2","KAWY2013_e2_3","PEPPER",7,0,"Divided",2,288,"Include"
"KAWY2013_e2","KAWY2013_e2_3","CARBON",8,1,"Divided",5,488,"Include"
"KAWY2013_e2","KAWY2013_e2_3","CREW",9,0,"Divided",2,447,"Include"
"KAWY2013_e2","KAWY2013_e2_3","RENT",10,0,"Divided",5,615,"Include"
"KAWY2013_e2","KAWY2013_e2_3","REGISTER",11,1,"Divided",5,863,"Include"
"KAWY2013_e2","KAWY2013_e2_3","BATH",12,0,"Divided",2,1094,"Include"
"KAWY2013_e2","KAWY2013_e2_3","BUTCHER",13,1,"Divided",2,558,"Include"
"KAWY2013_e2","KAWY2013_e2_3","TROOP",14,1,"Divided",2,933,"Include"
"KAWY2013_e2","KAWY2013_e2_3","TANK",15,0,"Divided",2,557,"Include"
"KAWY2013_e2","KAWY2013_e2_3","JUMP",16,0,"Divided",2,853,"Include"
"KAWY2013_e2","KAWY2013_e2_3","JUNCTION",17,0,"Divided",2,333,"Include"
"KAWY2013_e2","KAWY2013_e2_3","MUSICIAN",18,0,"Divided",2,1108,"Include"
"KAWY2013_e2","KAWY2013_e2_3","SWIM",19,1,"Divided",2,860,"Include"
"KAWY2013_e2","KAWY2013_e2_3","DISASTER",20,1,"Divided",2,356,"Include"
"KAWY2013_e2","KAWY2013_e2_3","PACKAGE",21,1,"Divided",NA,0,"Exclude"
"KAWY2013_e2","KAWY2013_e2_3","ITCH",22,0,"Divided",NA,0,"Exclude"
"KAWY2013_e2","KAWY2013_e2_3","FOUNTAIN",23,0,"Divided",3,811,"Include"
"KAWY2013_e2","KAWY2013_e2_3","WALLET",24,0,"Divided",3,435,"Include"
"KAWY2013_e2","KAWY2013_e2_3","FISH",25,1,"Divided",4,218,"Include"
"KAWY2013_e2","KAWY2013_e2_3","BOOT",26,1,"Divided",4,1266,"Include"
"KAWY2013_e2","KAWY2013_e2_3","PARTNER",27,1,"Divided",5,538,"Include"
"KAWY2013_e2","KAWY2013_e2_3","PLAIN",28,0,"Divided",2,482,"Include"
"KAWY2013_e2","KAWY2013_e2_3","HARDWARE",29,1,"Divided",1,986,"Include"
"KAWY2013_e2","KAWY2013_e2_3","TOURIST",30,0,"Divided",1,512,"Include"
"KAWY2013_e2","KAWY2013_e2_3","NERVE",31,0,"Divided",3,999,"Include"
"KAWY2013_e2","KAWY2013_e2_3","CHLORINE",32,1,"Divided",1,992,"Include"
"KAWY2013_e2","KAWY2013_e2_3","NURSERY",33,0,"Divided",1,375,"Include"
"KAWY2013_e2","KAWY2013_e2_3","WHEAT",34,1,"Divided",1,895,"Include"
"KAWY2013_e2","KAWY2013_e2_3","GUARD",35,1,"Divided",1,727,"Include"
"KAWY2013_e2","KAWY2013_e2_3","FREIGHT",36,0,"Divided",4,222,"Include"
"KAWY2013_e2","KAWY2013_e2_3","MUSCLE",37,0,"Divided",3,421,"Include"
"KAWY2013_e2","KAWY2013_e2_3","ACRE",38,0,"Divided",2,1038,"Include"
"KAWY2013_e2","KAWY2013_e2_3","COMFORT",39,0,"Divided",2,725,"Include"
"KAWY2013_e2","KAWY2013_e2_3","STRANGER",40,1,"Divided",2,445,"Include"
"KAWY2013_e2","KAWY2013_e2_3","RESORT",41,0,"Divided",3,1204,"Include"
"KAWY2013_e2","KAWY2013_e2_3","CAPE",42,1,"Divided",2,1035,"Include"
"KAWY2013_e2","KAWY2013_e2_3","AISLE",43,0,"Divided",3,932,"Include"
"KAWY2013_e2","KAWY2013_e2_3","STRIDE",44,0,"Divided",3,506,"Include"
"KAWY2013_e2","KAWY2013_e2_3","PLUMB",45,1,"Divided",2,705,"Include"
"KAWY2013_e2","KAWY2013_e2_3","RAKE",46,0,"Divided",3,761,"Include"
"KAWY2013_e2","KAWY2013_e2_3","HOUND",47,0,"Divided",3,592,"Include"
"KAWY2013_e2","KAWY2013_e2_3","DAIRY",48,1,"Divided",6,1078,"Include"
"KAWY2013_e2","KAWY2013_e2_3","MILEAGE",49,1,"Divided",3,1438,"Include"
"KAWY2013_e2","KAWY2013_e2_3","SAINT",50,1,"Divided",4,837,"Include"
"KAWY2013_e2","KAWY2013_e2_3","PISTON",51,0,"Divided",4,764,"Include"
"KAWY2013_e2","KAWY2013_e2_3","TOLL",52,0,"Divided",3,802,"Include"
"KAWY2013_e2","KAWY2013_e2_3","STORM",53,1,"Divided",3,458,"Include"
"KAWY2013_e2","KAWY2013_e2_3","MINK",54,1,"Divided",6,913,"Include"
"KAWY2013_e2","KAWY2013_e2_3","WITCH",55,0,"Divided",3,984,"Include"
"KAWY2013_e2","KAWY2013_e2_3","EXPRESS",56,0,"Divided",2,543,"Include"
"KAWY2013_e2","KAWY2013_e2_3","SCENT",57,0,"Divided",2,758,"Include"
"KAWY2013_e2","KAWY2013_e2_3","GOLF",58,0,"Divided",2,813,"Include"
"KAWY2013_e2","KAWY2013_e2_3","HAIL",59,1,"Divided",2,677,"Include"
"KAWY2013_e2","KAWY2013_e2_3","FERRY",60,0,"Divided",2,219,"Include"
"KAWY2013_e2","KAWY2013_e2_3","SONATA",61,1,"Divided",2,386,"Include"
"KAWY2013_e2","KAWY2013_e2_3","CABINET",62,0,"Divided",2,569,"Include"
"KAWY2013_e2","KAWY2013_e2_3","HERB",63,0,"Divided",1,833,"Include"
"KAWY2013_e2","KAWY2013_e2_3","JAIL",64,1,"Divided",2,648,"Include"
"KAWY2013_e2","KAWY2013_e2_3","DAYLIGHT",65,1,"Divided",6,688,"Include"
"KAWY2013_e2","KAWY2013_e2_3","HARVEST",66,1,"Divided",6,631,"Include"
"KAWY2013_e2","KAWY2013_e2_3","CORRIDOR",67,1,"Divided",6,446,"Include"
"KAWY2013_e2","KAWY2013_e2_3","BANG",68,1,"Divided",5,310,"Include"
"KAWY2013_e2","KAWY2013_e2_3","SELF",69,1,"Divided",5,461,"Include"
"KAWY2013_e2","KAWY2013_e2_3","BUCKLE",70,0,"Divided",2,677,"Include"
"KAWY2013_e2","KAWY2013_e2_3","STEEL",71,1,"Divided",2,1260,"Include"
"KAWY2013_e2","KAWY2013_e2_3","DEED",72,1,"Divided",6,980,"Include"
"KAWY2013_e2","KAWY2013_e2_3","DELL",73,0,"Divided",1,827,"Include"
"KAWY2013_e2","KAWY2013_e2_3","SNAP",74,0,"Divided",1,643,"Include"
"KAWY2013_e2","KAWY2013_e2_3","HUNT",75,1,"Divided",3,1146,"Include"
"KAWY2013_e2","KAWY2013_e2_3","COMPOSER",76,1,"Divided",6,1025,"Include"
"KAWY2013_e2","KAWY2013_e2_3","STOVE",77,1,"Divided",3,776,"Include"
"KAWY2013_e2","KAWY2013_e2_3","SACK",78,0,"Divided",3,479,"Include"
"KAWY2013_e2","KAWY2013_e2_3","STROKE",79,0,"Divided",2,791,"Include"
"KAWY2013_e2","KAWY2013_e2_3","KNEE",80,1,"Divided",6,910,"Include"
"KAWY2013_e2","KAWY2013_e2_3","CALF",81,0,"Divided",2,661,"Include"
"KAWY2013_e2","KAWY2013_e2_3","MAGAZINE",82,1,"Divided",6,861,"Include"
"KAWY2013_e2","KAWY2013_e2_3","HOLIDAY",83,0,"Divided",2,499,"Include"
"KAWY2013_e2","KAWY2013_e2_3","BAIL",84,0,"Divided",2,490,"Include"
"KAWY2013_e2","KAWY2013_e2_3","POCKET",85,0,"Divided",3,689,"Include"
"KAWY2013_e2","KAWY2013_e2_3","GOSPEL",86,0,"Divided",2,969,"Include"
"KAWY2013_e2","KAWY2013_e2_3","SALAD",87,1,"Divided",2,641,"Include"
"KAWY2013_e2","KAWY2013_e2_3","TUNNEL",88,0,"Divided",1,633,"Include"
"KAWY2013_e2","KAWY2013_e2_3","FLEET",89,1,"Divided",5,785,"Include"
"KAWY2013_e2","KAWY2013_e2_3","RABBI",90,1,"Divided",6,1112,"Include"
"KAWY2013_e2","KAWY2013_e2_3","TICKET",91,1,"Divided",4,719,"Include"
"KAWY2013_e2","KAWY2013_e2_3","BOIL",92,0,"Divided",3,966,"Include"
"KAWY2013_e2","KAWY2013_e2_3","TENNIS",93,0,"Divided",1,750,"Include"
"KAWY2013_e2","KAWY2013_e2_3","CAPSULE",94,1,"Divided",1,678,"Include"
"KAWY2013_e2","KAWY2013_e2_3","WOUND",95,1,"Divided",3,941,"Include"
"KAWY2013_e2","KAWY2013_e2_3","LEAF",96,1,"Divided",2,1588,"Include"
"KAWY2013_e2","KAWY2013_e2_3","STAKE",97,1,"Divided",5,779,"Include"
"KAWY2013_e2","KAWY2013_e2_3","FATIGUE",98,1,"Divided",1,515,"Include"
"KAWY2013_e2","KAWY2013_e2_3","MOSS",99,0,"Divided",1,553,"Include"
"KAWY2013_e2","KAWY2013_e2_3","ARBITER",100,0,"Divided",1,641,"Include"
"KAWY2013_e2","KAWY2013_e2_3","LACE",1,0,"Full",1,355,"Include"
"KAWY2013_e2","KAWY2013_e2_3","INJURY",2,0,"Full",2,639,"Include"
"KAWY2013_e2","KAWY2013_e2_3","PROFILE",3,0,"Full",3,76,"Include"
"KAWY2013_e2","KAWY2013_e2_3","PRINCE",4,0,"Full",2,121,"Include"
"KAWY2013_e2","KAWY2013_e2_3","DANCER",5,0,"Full",1,70,"Include"
"KAWY2013_e2","KAWY2013_e2_3","SAUCE",6,0,"Full",1,163,"Include"
"KAWY2013_e2","KAWY2013_e2_3","STRAND",7,1,"Full",4,560,"Include"
"KAWY2013_e2","KAWY2013_e2_3","FABRIC",8,0,"Full",2,333,"Include"
"KAWY2013_e2","KAWY2013_e2_3","CARRIAGE",9,1,"Full",5,778,"Include"
"KAWY2013_e2","KAWY2013_e2_3","BEECH",10,1,"Full",3,616,"Include"
"KAWY2013_e2","KAWY2013_e2_3","MATE",11,1,"Full",5,693,"Include"
"KAWY2013_e2","KAWY2013_e2_3","TEMPLE",12,1,"Full",6,610,"Include"
"KAWY2013_e2","KAWY2013_e2_3","THUNDER",13,0,"Full",1,478,"Include"
"KAWY2013_e2","KAWY2013_e2_3","CHAMPION",14,1,"Full",1,795,"Include"
"KAWY2013_e2","KAWY2013_e2_3","WASTE",15,1,"Full",1,504,"Include"
"KAWY2013_e2","KAWY2013_e2_3","SUDS",16,0,"Full",2,422,"Include"
"KAWY2013_e2","KAWY2013_e2_3","FRONTAGE",17,0,"Full",1,451,"Include"
"KAWY2013_e2","KAWY2013_e2_3","BABE",18,1,"Full",6,704,"Include"
"KAWY2013_e2","KAWY2013_e2_3","PASSAGE",19,1,"Full",5,926,"Include"
"KAWY2013_e2","KAWY2013_e2_3","POUND",20,0,"Full",4,603,"Include"
"KAWY2013_e2","KAWY2013_e2_3","SPLIT",21,1,"Full",4,440,"Include"
"KAWY2013_e2","KAWY2013_e2_3","SWAMP",22,1,"Full",6,806,"Include"
"KAWY2013_e2","KAWY2013_e2_3","NAVY",23,1,"Full",6,530,"Include"
"KAWY2013_e2","KAWY2013_e2_3","NATIVE",24,1,"Full",6,384,"Include"
"KAWY2013_e2","KAWY2013_e2_3","TOMB",25,0,"Full",2,381,"Include"
"KAWY2013_e2","KAWY2013_e2_3","WRAP",26,0,"Full",2,330,"Include"
"KAWY2013_e2","KAWY2013_e2_3","PIANIST",27,1,"Full",5,888,"Include"
"KAWY2013_e2","KAWY2013_e2_3","CITATION",28,1,"Full",1,725,"Include"
"KAWY2013_e2","KAWY2013_e2_3","HIND",29,1,"Full",1,434,"Include"
"KAWY2013_e2","KAWY2013_e2_3","CURVE",30,1,"Full",6,528,"Include"
"KAWY2013_e2","KAWY2013_e2_3","CARPET",31,0,"Full",4,654,"Include"
"KAWY2013_e2","KAWY2013_e2_3","FOOTBALL",32,0,"Full",4,843,"Include"
"KAWY2013_e2","KAWY2013_e2_3","TOWER",33,0,"Full",3,1081,"Include"
"KAWY2013_e2","KAWY2013_e2_3","CHARTER",34,1,"Full",3,855,"Include"
"KAWY2013_e2","KAWY2013_e2_3","SPEAR",35,1,"Full",6,708,"Include"
"KAWY2013_e2","KAWY2013_e2_3","POLL",36,1,"Full",6,913,"Include"
"KAWY2013_e2","KAWY2013_e2_3","JUICE",37,1,"Full",4,1550,"Include"
"KAWY2013_e2","KAWY2013_e2_3","CLOSET",38,0,"Full",5,955,"Include"
"KAWY2013_e2","KAWY2013_e2_3","STAR",39,1,"Full",6,617,"Include"
"KAWY2013_e2","KAWY2013_e2_3","SPADE",40,0,"Full",2,1095,"Include"
"KAWY2013_e2","KAWY2013_e2_3","BREEZE",41,0,"Full",2,740,"Include"
"KAWY2013_e2","KAWY2013_e2_3","RAMP",42,0,"Full",2,577,"Include"
"KAWY2013_e2","KAWY2013_e2_3","FLOWER",43,1,"Full",6,750,"Include"
"KAWY2013_e2","KAWY2013_e2_3","KEROSENE",44,0,"Full",1,908,"Include"
"KAWY2013_e2","KAWY2013_e2_3","OCEAN",45,1,"Full",6,457,"Include"
"KAWY2013_e2","KAWY2013_e2_3","PLANK",46,0,"Full",1,550,"Include"
"KAWY2013_e2","KAWY2013_e2_3","PARADE",47,0,"Full",1,452,"Include"
"KAWY2013_e2","KAWY2013_e2_3","MOLD",48,0,"Full",3,721,"Include"
"KAWY2013_e2","KAWY2013_e2_3","SHOVEL",49,0,"Full",3,478,"Include"
"KAWY2013_e2","KAWY2013_e2_3","APERTURE",50,0,"Full",3,491,"Include"
"KAWY2013_e2","KAWY2013_e2_3","BACTERIA",51,1,"Full",5,728,"Include"
"KAWY2013_e2","KAWY2013_e2_3","MAPLE",52,1,"Full",6,533,"Include"
"KAWY2013_e2","KAWY2013_e2_3","SCAR",53,1,"Full",6,434,"Include"
"KAWY2013_e2","KAWY2013_e2_3","JOURNAL",54,1,"Full",5,528,"Include"
"KAWY2013_e2","KAWY2013_e2_3","TRUNK",55,0,"Full",4,909,"Include"
"KAWY2013_e2","KAWY2013_e2_3","DELTA",56,1,"Full",3,314,"Include"
"KAWY2013_e2","KAWY2013_e2_3","PALM",57,1,"Full",5,552,"Include"
"KAWY2013_e2","KAWY2013_e2_3","OVEN",58,0,"Full",1,725,"Include"
"KAWY2013_e2","KAWY2013_e2_3","CELLAR",59,0,"Full",2,562,"Include"
"KAWY2013_e2","KAWY2013_e2_3","DUEL",60,1,"Full",2,719,"Include"
"KAWY2013_e2","KAWY2013_e2_3","ANCHOR",61,0,"Full",1,780,"Include"
"KAWY2013_e2","KAWY2013_e2_3","QUILL",62,0,"Full",1,586,"Include"
"KAWY2013_e2","KAWY2013_e2_3","CHAIN",63,1,"Full",1,359,"Include"
"KAWY2013_e2","KAWY2013_e2_3","SODIUM",64,0,"Full",4,1204,"Include"
"KAWY2013_e2","KAWY2013_e2_3","HOOD",65,0,"Full",3,1154,"Include"
"KAWY2013_e2","KAWY2013_e2_3","TOAST",66,0,"Full",3,559,"Include"
"KAWY2013_e2","KAWY2013_e2_3","GRAVEL",67,0,"Full",3,604,"Include"
"KAWY2013_e2","KAWY2013_e2_3","BALLOT",68,1,"Full",3,794,"Include"
"KAWY2013_e2","KAWY2013_e2_3","CAVE",69,0,"Full",5,1080,"Include"
"KAWY2013_e2","KAWY2013_e2_3","SALOON",70,0,"Full",3,629,"Include"
"KAWY2013_e2","KAWY2013_e2_3","BOSS",71,0,"Full",2,210,"Include"
"KAWY2013_e2","KAWY2013_e2_3","CANE",72,1,"Full",6,448,"Include"
"KAWY2013_e2","KAWY2013_e2_3","GLITTER",73,1,"Full",6,381,"Include"
"KAWY2013_e2","KAWY2013_e2_3","SMELL",74,1,"Full",4,666,"Include"
"KAWY2013_e2","KAWY2013_e2_3","WORKER",75,1,"Full",3,151,"Include"
"KAWY2013_e2","KAWY2013_e2_3","SWELL",76,1,"Full",2,579,"Include"
"KAWY2013_e2","KAWY2013_e2_3","SPHERE",77,0,"Full",2,481,"Include"
"KAWY2013_e2","KAWY2013_e2_3","PURSE",78,1,"Full",2,302,"Include"
"KAWY2013_e2","KAWY2013_e2_3","STATUE",79,1,"Full",1,412,"Include"
"KAWY2013_e2","KAWY2013_e2_3","RAID",80,0,"Full",1,697,"Include"
"KAWY2013_e2","KAWY2013_e2_3","PAINTER",81,1,"Full",1,934,"Include"
"KAWY2013_e2","KAWY2013_e2_3","AXLE",82,0,"Full",1,563,"Include"
"KAWY2013_e2","KAWY2013_e2_3","LEVER",83,1,"Full",2,657,"Include"
"KAWY2013_e2","KAWY2013_e2_3","CANDLE",84,1,"Full",2,1246,"Include"
"KAWY2013_e2","KAWY2013_e2_3","CROWN",85,0,"Full",1,540,"Include"
"KAWY2013_e2","KAWY2013_e2_3","FUSE",86,0,"Full",3,505,"Include"
"KAWY2013_e2","KAWY2013_e2_3","RING",87,1,"Full",3,694,"Include"
"KAWY2013_e2","KAWY2013_e2_3","CASH",88,0,"Full",2,660,"Include"
"KAWY2013_e2","KAWY2013_e2_3","ANTIQUE",89,0,"Full",2,513,"Include"
"KAWY2013_e2","KAWY2013_e2_3","DYNASTY",90,1,"Full",2,606,"Include"
"KAWY2013_e2","KAWY2013_e2_3","GUIDE",91,1,"Full",1,1724,"Include"
"KAWY2013_e2","KAWY2013_e2_3","SALARY",92,0,"Full",1,361,"Include"
"KAWY2013_e2","KAWY2013_e2_3","FEVER",93,1,"Full",1,454,"Include"
"KAWY2013_e2","KAWY2013_e2_3","LINK",94,0,"Full",1,1188,"Include"
"KAWY2013_e2","KAWY2013_e2_3","SLEEVE",95,0,"Full",1,689,"Include"
"KAWY2013_e2","KAWY2013_e2_3","LUNCH",96,1,"Full",2,606,"Include"
"KAWY2013_e2","KAWY2013_e2_3","WAVE",97,0,"Full",2,940,"Include"
"KAWY2013_e2","KAWY2013_e2_3","OBSERVER",98,1,"Full",3,841,"Include"
"KAWY2013_e2","KAWY2013_e2_3","HYMN",99,0,"Full",1,902,"Include"
"KAWY2013_e2","KAWY2013_e2_3","COPPER",100,1,"Full",5,1076,"Include"
"KAWY2013_e2","KAWY2013_e2_4","STABLE",1,1,"Full",6,744,"Include"
"KAWY2013_e2","KAWY2013_e2_4","PALACE",2,1,"Full",3,1861,"Include"
"KAWY2013_e2","KAWY2013_e2_4","NERVE",3,0,"Full",4,1344,"Include"
"KAWY2013_e2","KAWY2013_e2_4","CONE",4,1,"Full",4,925,"Include"
"KAWY2013_e2","KAWY2013_e2_4","PASSAGE",5,1,"Full",5,713,"Include"
"KAWY2013_e2","KAWY2013_e2_4","SOAP",6,0,"Full",3,918,"Include"
"KAWY2013_e2","KAWY2013_e2_4","GRAVEL",7,0,"Full",5,995,"Include"
"KAWY2013_e2","KAWY2013_e2_4","EMBRACE",8,1,"Full",6,1039,"Include"
"KAWY2013_e2","KAWY2013_e2_4","SACK",9,1,"Full",6,668,"Include"
"KAWY2013_e2","KAWY2013_e2_4","TWIST",10,1,"Full",6,742,"Include"
"KAWY2013_e2","KAWY2013_e2_4","FATIGUE",11,1,"Full",6,483,"Include"
"KAWY2013_e2","KAWY2013_e2_4","LOAD",12,0,"Full",6,830,"Include"
"KAWY2013_e2","KAWY2013_e2_4","DRAIN",13,1,"Full",3,1275,"Include"
"KAWY2013_e2","KAWY2013_e2_4","ROLL",14,1,"Full",3,839,"Include"
"KAWY2013_e2","KAWY2013_e2_4","WASTE",15,0,"Full",3,516,"Include"
"KAWY2013_e2","KAWY2013_e2_4","LOTION",16,1,"Full",6,480,"Include"
"KAWY2013_e2","KAWY2013_e2_4","PLAIN",17,1,"Full",6,396,"Include"
"KAWY2013_e2","KAWY2013_e2_4","CHAPEL",18,0,"Full",6,569,"Include"
"KAWY2013_e2","KAWY2013_e2_4","TAPE",19,0,"Full",3,789,"Include"
"KAWY2013_e2","KAWY2013_e2_4","SUPPER",20,1,"Full",3,353,"Include"
"KAWY2013_e2","KAWY2013_e2_4","SNAP",21,1,"Full",3,574,"Include"
"KAWY2013_e2","KAWY2013_e2_4","POPE",22,0,"Full",1,1242,"Include"
"KAWY2013_e2","KAWY2013_e2_4","DELL",23,1,"Full",6,662,"Include"
"KAWY2013_e2","KAWY2013_e2_4","DAYLIGHT",24,1,"Full",6,483,"Include"
"KAWY2013_e2","KAWY2013_e2_4","BEECH",25,1,"Full",3,1152,"Include"
"KAWY2013_e2","KAWY2013_e2_4","TROLLEY",26,1,"Full",2,973,"Include"
"KAWY2013_e2","KAWY2013_e2_4","CANE",27,0,"Full",4,1466,"Include"
"KAWY2013_e2","KAWY2013_e2_4","IVORY",28,0,"Full",3,695,"Include"
"KAWY2013_e2","KAWY2013_e2_4","SOLE",29,1,"Full",3,1348,"Include"
"KAWY2013_e2","KAWY2013_e2_4","STRANGER",30,0,"Full",3,752,"Include"
"KAWY2013_e2","KAWY2013_e2_4","BREEZE",31,1,"Full",6,828,"Include"
"KAWY2013_e2","KAWY2013_e2_4","BADGE",32,0,"Full",3,633,"Include"
"KAWY2013_e2","KAWY2013_e2_4","MOSS",33,0,"Full",2,598,"Include"
"KAWY2013_e2","KAWY2013_e2_4","BATON",34,0,"Full",6,883,"Include"
"KAWY2013_e2","KAWY2013_e2_4","SEGMENT",35,0,"Full",2,751,"Include"
"KAWY2013_e2","KAWY2013_e2_4","STRAND",36,1,"Full",2,555,"Include"
"KAWY2013_e2","KAWY2013_e2_4","DEPOSIT",37,0,"Full",2,359,"Include"
"KAWY2013_e2","KAWY2013_e2_4","SCOUT",38,0,"Full",2,403,"Include"
"KAWY2013_e2","KAWY2013_e2_4","STOOL",39,1,"Full",5,894,"Include"
"KAWY2013_e2","KAWY2013_e2_4","WRAP",40,1,"Full",5,666,"Include"
"KAWY2013_e2","KAWY2013_e2_4","FLASH",41,0,"Full",3,710,"Include"
"KAWY2013_e2","KAWY2013_e2_4","KNEE",42,0,"Full",3,627,"Include"
"KAWY2013_e2","KAWY2013_e2_4","PALM",43,0,"Full",4,1071,"Include"
"KAWY2013_e2","KAWY2013_e2_4","NEST",44,1,"Full",3,684,"Include"
"KAWY2013_e2","KAWY2013_e2_4","BRASS",45,1,"Full",6,616,"Include"
"KAWY2013_e2","KAWY2013_e2_4","CAGE",46,0,"Full",3,918,"Include"
"KAWY2013_e2","KAWY2013_e2_4","GIFT",47,1,"Full",6,354,"Include"
"KAWY2013_e2","KAWY2013_e2_4","EXHAUST",48,0,"Full",2,1551,"Include"
"KAWY2013_e2","KAWY2013_e2_4","CAVE",49,0,"Full",5,876,"Include"
"KAWY2013_e2","KAWY2013_e2_4","COMPACT",50,0,"Full",2,889,"Include"
"KAWY2013_e2","KAWY2013_e2_4","SAIL",51,1,"Full",6,549,"Include"
"KAWY2013_e2","KAWY2013_e2_4","NAVY",52,1,"Full",6,226,"Include"
"KAWY2013_e2","KAWY2013_e2_4","CORRIDOR",53,1,"Full",6,461,"Include"
"KAWY2013_e2","KAWY2013_e2_4","TOAST",54,1,"Full",6,490,"Include"
"KAWY2013_e2","KAWY2013_e2_4","CAPSULE",55,0,"Full",2,823,"Include"
"KAWY2013_e2","KAWY2013_e2_4","AISLE",56,1,"Full",4,835,"Include"
"KAWY2013_e2","KAWY2013_e2_4","LAUNDRY",57,0,"Full",4,768,"Include"
"KAWY2013_e2","KAWY2013_e2_4","OWNER",58,1,"Full",3,380,"Include"
"KAWY2013_e2","KAWY2013_e2_4","NAIL",59,1,"Full",5,1512,"Include"
"KAWY2013_e2","KAWY2013_e2_4","THUNDER",60,0,"Full",3,915,"Include"
"KAWY2013_e2","KAWY2013_e2_4","TOMB",61,0,"Full",4,623,"Include"
"KAWY2013_e2","KAWY2013_e2_4","HERB",62,0,"Full",3,619,"Include"
"KAWY2013_e2","KAWY2013_e2_4","FURNACE",63,1,"Full",3,537,"Include"
"KAWY2013_e2","KAWY2013_e2_4","SKETCH",64,1,"Full",3,597,"Include"
"KAWY2013_e2","KAWY2013_e2_4","CLOSET",65,1,"Full",3,385,"Include"
"KAWY2013_e2","KAWY2013_e2_4","CORAL",66,1,"Full",6,558,"Include"
"KAWY2013_e2","KAWY2013_e2_4","SCRATCH",67,1,"Full",6,442,"Include"
"KAWY2013_e2","KAWY2013_e2_4","FLEET",68,1,"Full",3,326,"Include"
"KAWY2013_e2","KAWY2013_e2_4","LOCK",69,0,"Full",3,499,"Include"
"KAWY2013_e2","KAWY2013_e2_4","ANCHOR",70,0,"Full",3,336,"Include"
"KAWY2013_e2","KAWY2013_e2_4","FREIGHT",71,0,"Full",3,605,"Include"
"KAWY2013_e2","KAWY2013_e2_4","PARADE",72,0,"Full",3,585,"Include"
"KAWY2013_e2","KAWY2013_e2_4","CEREMONY",73,0,"Full",3,309,"Include"
"KAWY2013_e2","KAWY2013_e2_4","TRACK",74,0,"Full",4,1136,"Include"
"KAWY2013_e2","KAWY2013_e2_4","LOBBY",75,1,"Full",6,587,"Include"
"KAWY2013_e2","KAWY2013_e2_4","YARD",76,0,"Full",3,647,"Include"
"KAWY2013_e2","KAWY2013_e2_4","PRINCE",77,1,"Full",6,500,"Include"
"KAWY2013_e2","KAWY2013_e2_4","JOURNAL",78,1,"Full",6,1120,"Include"
"KAWY2013_e2","KAWY2013_e2_4","SHOVEL",79,1,"Full",6,523,"Include"
"KAWY2013_e2","KAWY2013_e2_4","FENCE",80,0,"Full",3,808,"Include"
"KAWY2013_e2","KAWY2013_e2_4","STING",81,1,"Full",4,1061,"Include"
"KAWY2013_e2","KAWY2013_e2_4","HOOD",82,0,"Full",3,592,"Include"
"KAWY2013_e2","KAWY2013_e2_4","PROFILE",83,0,"Full",3,365,"Include"
"KAWY2013_e2","KAWY2013_e2_4","LIME",84,0,"Full",3,473,"Include"
"KAWY2013_e2","KAWY2013_e2_4","SALAD",85,0,"Full",3,454,"Include"
"KAWY2013_e2","KAWY2013_e2_4","STOVE",86,0,"Full",3,578,"Include"
"KAWY2013_e2","KAWY2013_e2_4","LIMP",87,1,"Full",3,1119,"Include"
"KAWY2013_e2","KAWY2013_e2_4","CURB",88,0,"Full",3,1132,"Include"
"KAWY2013_e2","KAWY2013_e2_4","RAKE",89,1,"Full",4,759,"Include"
"KAWY2013_e2","KAWY2013_e2_4","CUSTOMER",90,0,"Full",3,449,"Include"
"KAWY2013_e2","KAWY2013_e2_4","CABLE",91,0,"Full",4,1102,"Include"
"KAWY2013_e2","KAWY2013_e2_4","FLOWER",92,1,"Full",6,778,"Include"
"KAWY2013_e2","KAWY2013_e2_4","VERSE",93,1,"Full",3,838,"Include"
"KAWY2013_e2","KAWY2013_e2_4","FOUNTAIN",94,1,"Full",6,274,"Include"
"KAWY2013_e2","KAWY2013_e2_4","WHEAT",95,0,"Full",3,350,"Include"
"KAWY2013_e2","KAWY2013_e2_4","PLUG",96,0,"Full",3,360,"Include"
"KAWY2013_e2","KAWY2013_e2_4","BABE",97,1,"Full",6,404,"Include"
"KAWY2013_e2","KAWY2013_e2_4","COMPOSER",98,0,"Full",6,1216,"Include"
"KAWY2013_e2","KAWY2013_e2_4","STATUE",99,0,"Full",4,1086,"Include"
"KAWY2013_e2","KAWY2013_e2_4","FUSE",100,0,"Full",3,426,"Include"
"KAWY2013_e2","KAWY2013_e2_4","PIANIST",1,1,"Divided",6,865,"Include"
"KAWY2013_e2","KAWY2013_e2_4","PEER",2,1,"Divided",5,760,"Include"
"KAWY2013_e2","KAWY2013_e2_4","SAINT",3,0,"Divided",5,1613,"Include"
"KAWY2013_e2","KAWY2013_e2_4","WOLF",4,1,"Divided",4,1412,"Include"
"KAWY2013_e2","KAWY2013_e2_4","JUMP",5,1,"Divided",NA,0,"Exclude"
"KAWY2013_e2","KAWY2013_e2_4","CALF",6,1,"Divided",6,897,"Include"
"KAWY2013_e2","KAWY2013_e2_4","TOWER",7,1,"Divided",6,1848,"Include"
"KAWY2013_e2","KAWY2013_e2_4","STEM",8,1,"Divided",6,814,"Include"
"KAWY2013_e2","KAWY2013_e2_4","MEDICINE",9,1,"Divided",4,1620,"Include"
"KAWY2013_e2","KAWY2013_e2_4","WALLET",10,1,"Divided",6,1291,"Include"
"KAWY2013_e2","KAWY2013_e2_4","DEBT",11,0,"Divided",3,1426,"Include"
"KAWY2013_e2","KAWY2013_e2_4","BANG",12,0,"Divided",3,824,"Include"
"KAWY2013_e2","KAWY2013_e2_4","HUNT",13,0,"Divided",5,1470,"Include"
"KAWY2013_e2","KAWY2013_e2_4","ECHO",14,0,"Divided",3,981,"Include"
"KAWY2013_e2","KAWY2013_e2_4","SISTER",15,0,"Divided",3,1564,"Include"
"KAWY2013_e2","KAWY2013_e2_4","POUND",16,1,"Divided",3,1155,"Include"
"KAWY2013_e2","KAWY2013_e2_4","POISON",17,1,"Divided",3,889,"Include"
"KAWY2013_e2","KAWY2013_e2_4","QUACK",18,1,"Divided",4,1200,"Include"
"KAWY2013_e2","KAWY2013_e2_4","HEEL",19,0,"Divided",5,1287,"Include"
"KAWY2013_e2","KAWY2013_e2_4","SLOPE",20,0,"Divided",3,765,"Include"
"KAWY2013_e2","KAWY2013_e2_4","TICKET",21,0,"Divided",4,1380,"Include"
"KAWY2013_e2","KAWY2013_e2_4","SPLIT",22,1,"Divided",4,746,"Include"
"KAWY2013_e2","KAWY2013_e2_4","WITCH",23,1,"Divided",6,1424,"Include"
"KAWY2013_e2","KAWY2013_e2_4","DOME",24,0,"Divided",4,823,"Include"
"KAWY2013_e2","KAWY2013_e2_4","KISS",25,1,"Divided",4,1405,"Include"
"KAWY2013_e2","KAWY2013_e2_4","HARDWARE",26,1,"Divided",3,836,"Include"
"KAWY2013_e2","KAWY2013_e2_4","BARK",27,1,"Divided",5,1451,"Include"
"KAWY2013_e2","KAWY2013_e2_4","JAIL",28,0,"Divided",5,882,"Include"
"KAWY2013_e2","KAWY2013_e2_4","THINKER",29,0,"Divided",3,1065,"Include"
"KAWY2013_e2","KAWY2013_e2_4","SEAL",30,1,"Divided",5,912,"Include"
"KAWY2013_e2","KAWY2013_e2_4","RENT",31,0,"Divided",2,1046,"Include"
"KAWY2013_e2","KAWY2013_e2_4","TUNNEL",32,0,"Divided",2,845,"Include"
"KAWY2013_e2","KAWY2013_e2_4","HYMN",33,0,"Divided",2,1061,"Include"
"KAWY2013_e2","KAWY2013_e2_4","BAYONET",34,1,"Divided",2,844,"Include"
"KAWY2013_e2","KAWY2013_e2_4","OVEN",35,0,"Divided",2,946,"Include"
"KAWY2013_e2","KAWY2013_e2_4","WOUND",36,0,"Divided",2,712,"Include"
"KAWY2013_e2","KAWY2013_e2_4","MOLD",37,0,"Divided",2,878,"Include"
"KAWY2013_e2","KAWY2013_e2_4","OYSTER",38,0,"Divided",2,1158,"Include"
"KAWY2013_e2","KAWY2013_e2_4","ARBITER",39,0,"Divided",2,1036,"Include"
"KAWY2013_e2","KAWY2013_e2_4","SEAM",40,0,"Divided",4,915,"Include"
"KAWY2013_e2","KAWY2013_e2_4","LIQUID",41,1,"Divided",4,1545,"Include"
"KAWY2013_e2","KAWY2013_e2_4","CHOIR",42,1,"Divided",5,1136,"Include"
"KAWY2013_e2","KAWY2013_e2_4","TUBE",43,0,"Divided",4,1287,"Include"
"KAWY2013_e2","KAWY2013_e2_4","DYNASTY",44,1,"Divided",6,877,"Include"
"KAWY2013_e2","KAWY2013_e2_4","SCAR",45,1,"Divided",6,756,"Include"
"KAWY2013_e2","KAWY2013_e2_4","SATIN",46,1,"Divided",6,699,"Include"
"KAWY2013_e2","KAWY2013_e2_4","SINGER",47,0,"Divided",3,737,"Include"
"KAWY2013_e2","KAWY2013_e2_4","MUSCLE",48,1,"Divided",6,648,"Include"
"KAWY2013_e2","KAWY2013_e2_4","INJURY",49,0,"Divided",3,607,"Include"
"KAWY2013_e2","KAWY2013_e2_4","CARPET",50,1,"Divided",3,518,"Include"
"KAWY2013_e2","KAWY2013_e2_4","CURVE",51,1,"Divided",4,717,"Include"
"KAWY2013_e2","KAWY2013_e2_4","CARBON",52,0,"Divided",3,371,"Include"
"KAWY2013_e2","KAWY2013_e2_4","STROKE",53,1,"Divided",3,761,"Include"
"KAWY2013_e2","KAWY2013_e2_4","BLADE",54,1,"Divided",4,704,"Include"
"KAWY2013_e2","KAWY2013_e2_4","PAINTER",55,0,"Divided",3,519,"Include"
"KAWY2013_e2","KAWY2013_e2_4","IODINE",56,1,"Divided",6,878,"Include"
"KAWY2013_e2","KAWY2013_e2_4","DEED",57,0,"Divided",3,709,"Include"
"KAWY2013_e2","KAWY2013_e2_4","ACCIDENT",58,0,"Divided",3,379,"Include"
"KAWY2013_e2","KAWY2013_e2_4","SPEAR",59,1,"Divided",4,626,"Include"
"KAWY2013_e2","KAWY2013_e2_4","SODIUM",60,1,"Divided",6,745,"Include"
"KAWY2013_e2","KAWY2013_e2_4","PLANK",61,1,"Divided",4,736,"Include"
"KAWY2013_e2","KAWY2013_e2_4","COIN",62,0,"Divided",3,790,"Include"
"KAWY2013_e2","KAWY2013_e2_4","RECTOR",63,0,"Divided",4,749,"Include"
"KAWY2013_e2","KAWY2013_e2_4","ANTIQUE",64,0,"Divided",3,308,"Include"
"KAWY2013_e2","KAWY2013_e2_4","PARTNER",65,0,"Divided",3,570,"Include"
"KAWY2013_e2","KAWY2013_e2_4","BAIL",66,1,"Divided",3,610,"Include"
"KAWY2013_e2","KAWY2013_e2_4","ALERT",67,0,"Divided",3,488,"Include"
"KAWY2013_e2","KAWY2013_e2_4","ERRAND",68,1,"Divided",4,702,"Include"
"KAWY2013_e2","KAWY2013_e2_4","PATENT",69,1,"Divided",3,261,"Include"
"KAWY2013_e2","KAWY2013_e2_4","FLOOD",70,1,"Divided",3,379,"Include"
"KAWY2013_e2","KAWY2013_e2_4","RELIC",71,0,"Divided",3,610,"Include"
"KAWY2013_e2","KAWY2013_e2_4","WINK",72,0,"Divided",3,408,"Include"
"KAWY2013_e2","KAWY2013_e2_4","LINK",73,1,"Divided",3,686,"Include"
"KAWY2013_e2","KAWY2013_e2_4","BOOT",74,1,"Divided",6,965,"Include"
"KAWY2013_e2","KAWY2013_e2_4","SHOE",75,0,"Divided",3,668,"Include"
"KAWY2013_e2","KAWY2013_e2_4","SPARK",76,0,"Divided",3,435,"Include"
"KAWY2013_e2","KAWY2013_e2_4","REVOLVER",77,0,"Divided",3,442,"Include"
"KAWY2013_e2","KAWY2013_e2_4","CAST",78,1,"Divided",4,1377,"Include"
"KAWY2013_e2","KAWY2013_e2_4","TEMPLE",79,1,"Divided",6,871,"Include"
"KAWY2013_e2","KAWY2013_e2_4","MUSICIAN",80,0,"Divided",3,317,"Include"
"KAWY2013_e2","KAWY2013_e2_4","RING",81,0,"Divided",3,355,"Include"
"KAWY2013_e2","KAWY2013_e2_4","PUNCH",82,1,"Divided",3,601,"Include"
"KAWY2013_e2","KAWY2013_e2_4","MILEAGE",83,0,"Divided",3,479,"Include"
"KAWY2013_e2","KAWY2013_e2_4","GALLERY",84,0,"Divided",3,853,"Include"
"KAWY2013_e2","KAWY2013_e2_4","CITATION",85,1,"Divided",3,316,"Include"
"KAWY2013_e2","KAWY2013_e2_4","BOUNDARY",86,0,"Divided",3,290,"Include"
"KAWY2013_e2","KAWY2013_e2_4","COMFORT",87,1,"Divided",3,216,"Include"
"KAWY2013_e2","KAWY2013_e2_4","CHANNEL",88,1,"Divided",5,1166,"Include"
"KAWY2013_e2","KAWY2013_e2_4","OCEAN",89,0,"Divided",3,709,"Include"
"KAWY2013_e2","KAWY2013_e2_4","RAMP",90,0,"Divided",3,715,"Include"
"KAWY2013_e2","KAWY2013_e2_4","NURSERY",91,1,"Divided",6,817,"Include"
"KAWY2013_e2","KAWY2013_e2_4","CHAMPION",92,1,"Divided",6,550,"Include"
"KAWY2013_e2","KAWY2013_e2_4","WORKER",93,1,"Divided",3,445,"Include"
"KAWY2013_e2","KAWY2013_e2_4","MERCURY",94,0,"Divided",3,676,"Include"
"KAWY2013_e2","KAWY2013_e2_4","CAPE",95,1,"Divided",6,907,"Include"
"KAWY2013_e2","KAWY2013_e2_4","PURSE",96,0,"Divided",3,385,"Include"
"KAWY2013_e2","KAWY2013_e2_4","TIMBER",97,0,"Divided",3,759,"Include"
"KAWY2013_e2","KAWY2013_e2_4","REFUSE",98,0,"Divided",3,286,"Include"
"KAWY2013_e2","KAWY2013_e2_4","WHISPER",99,0,"Divided",3,324,"Include"
"KAWY2013_e2","KAWY2013_e2_4","LACE",100,1,"Divided",6,1002,"Include"
"KAWY2013_e2","KAWY2013_e2_4","GUIDE",1,1,"Divided",6,421,"Include"
"KAWY2013_e2","KAWY2013_e2_4","REBEL",2,1,"Divided",NA,0,"Exclude"
"KAWY2013_e2","KAWY2013_e2_4","SPONGE",3,0,"Divided",NA,0,"Exclude"
"KAWY2013_e2","KAWY2013_e2_4","CELLAR",4,1,"Divided",4,1095,"Include"
"KAWY2013_e2","KAWY2013_e2_4","TRAY",5,0,"Divided",3,414,"Include"
"KAWY2013_e2","KAWY2013_e2_4","RANCH",6,0,"Divided",3,213,"Include"
"KAWY2013_e2","KAWY2013_e2_4","ROUGH",7,1,"Divided",3,365,"Include"
"KAWY2013_e2","KAWY2013_e2_4","BOIL",8,1,"Divided",NA,0,"Exclude"
"KAWY2013_e2","KAWY2013_e2_4","LAUGHTER",9,1,"Divided",NA,0,"Exclude"
"KAWY2013_e2","KAWY2013_e2_4","MIST",10,1,"Divided",3,1009,"Include"
"KAWY2013_e2","KAWY2013_e2_4","MATE",11,1,"Divided",3,279,"Include"
"KAWY2013_e2","KAWY2013_e2_4","IRON",12,1,"Divided",3,603,"Include"
"KAWY2013_e2","KAWY2013_e2_4","CHLORINE",13,1,"Divided",3,514,"Include"
"KAWY2013_e2","KAWY2013_e2_4","INFANTRY",14,1,"Divided",3,728,"Include"
"KAWY2013_e2","KAWY2013_e2_4","ROAR",15,1,"Divided",3,415,"Include"
"KAWY2013_e2","KAWY2013_e2_4","FRICTION",16,1,"Divided",4,133,"Include"
"KAWY2013_e2","KAWY2013_e2_4","DEPUTY",17,0,"Divided",3,269,"Include"
"KAWY2013_e2","KAWY2013_e2_4","HOLIDAY",18,0,"Divided",3,899,"Include"
"KAWY2013_e2","KAWY2013_e2_4","SUNLIGHT",19,1,"Divided",4,154,"Include"
"KAWY2013_e2","KAWY2013_e2_4","PEPPER",20,1,"Divided",3,225,"Include"
"KAWY2013_e2","KAWY2013_e2_4","RABBI",21,1,"Divided",NA,0,"Exclude"
"KAWY2013_e2","KAWY2013_e2_4","MAPLE",22,0,"Divided",3,78,"Include"
"KAWY2013_e2","KAWY2013_e2_4","STEEL",23,1,"Divided",3,260,"Include"
"KAWY2013_e2","KAWY2013_e2_4","MAST",24,0,"Divided",3,315,"Include"
"KAWY2013_e2","KAWY2013_e2_4","SALARY",25,0,"Divided",NA,0,"Exclude"
"KAWY2013_e2","KAWY2013_e2_4","CASH",26,0,"Divided",4,121,"Include"
"KAWY2013_e2","KAWY2013_e2_4","PUZZLE",27,1,"Divided",3,240,"Include"
"KAWY2013_e2","KAWY2013_e2_4","ITCH",28,1,"Divided",NA,0,"Exclude"
"KAWY2013_e2","KAWY2013_e2_4","GUEST",29,0,"Divided",3,188,"Include"
"KAWY2013_e2","KAWY2013_e2_4","DISPLAY",30,0,"Divided",3,131,"Include"
"KAWY2013_e2","KAWY2013_e2_4","SAUCE",31,1,"Divided",3,74,"Include"
"KAWY2013_e2","KAWY2013_e2_4","SERGEANT",32,1,"Divided",6,48,"Include"
"KAWY2013_e2","KAWY2013_e2_4","GRIP",33,0,"Divided",3,198,"Include"
"KAWY2013_e2","KAWY2013_e2_4","TWEED",34,1,"Divided",4,237,"Include"
"KAWY2013_e2","KAWY2013_e2_4","CRADLE",35,1,"Divided",NA,0,"Exclude"
"KAWY2013_e2","KAWY2013_e2_4","FRONTAGE",36,0,"Divided",3,409,"Include"
"KAWY2013_e2","KAWY2013_e2_4","MORTAL",37,1,"Divided",3,512,"Include"
"KAWY2013_e2","KAWY2013_e2_4","PASTOR",38,0,"Divided",6,950,"Include"
"KAWY2013_e2","KAWY2013_e2_4","RESORT",39,0,"Divided",3,189,"Include"
"KAWY2013_e2","KAWY2013_e2_4","HIGHWAY",40,0,"Divided",NA,0,"Exclude"
"KAWY2013_e2","KAWY2013_e2_4","SOPRANO",41,1,"Divided",6,761,"Include"
"KAWY2013_e2","KAWY2013_e2_4","GIANT",42,1,"Divided",6,496,"Include"
"KAWY2013_e2","KAWY2013_e2_4","PRAIRIE",43,0,"Divided",3,501,"Include"
"KAWY2013_e2","KAWY2013_e2_4","SHUTTER",44,0,"Divided",4,268,"Include"
"KAWY2013_e2","KAWY2013_e2_4","MAGAZINE",45,1,"Divided",3,243,"Include"
"KAWY2013_e2","KAWY2013_e2_4","COPPER",46,0,"Divided",NA,0,"Exclude"
"KAWY2013_e2","KAWY2013_e2_4","SPRUCE",47,0,"Divided",3,383,"Include"
"KAWY2013_e2","KAWY2013_e2_4","ACRE",48,1,"Divided",4,870,"Include"
"KAWY2013_e2","KAWY2013_e2_4","SALOON",49,0,"Divided",3,349,"Include"
"KAWY2013_e2","KAWY2013_e2_4","SELF",50,0,"Divided",NA,0,"Exclude"
"KAWY2013_e2","KAWY2013_e2_4","NATIVE",51,1,"Divided",3,138,"Include"
"KAWY2013_e2","KAWY2013_e2_4","HOUND",52,0,"Divided",NA,0,"Exclude"
"KAWY2013_e2","KAWY2013_e2_4","POLISH",53,0,"Divided",3,392,"Include"
"KAWY2013_e2","KAWY2013_e2_4","AUNT",54,0,"Divided",3,557,"Include"
"KAWY2013_e2","KAWY2013_e2_4","CHUCKLE",55,0,"Divided",NA,0,"Exclude"
"KAWY2013_e2","KAWY2013_e2_4","SLEEVE",56,0,"Divided",4,282,"Include"
"KAWY2013_e2","KAWY2013_e2_4","POCKET",57,1,"Divided",3,1170,"Include"
"KAWY2013_e2","KAWY2013_e2_4","CAFE",58,1,"Divided",3,265,"Include"
"KAWY2013_e2","KAWY2013_e2_4","FEVER",59,0,"Divided",3,255,"Include"
"KAWY2013_e2","KAWY2013_e2_4","CART",60,1,"Divided",NA,0,"Exclude"
"KAWY2013_e2","KAWY2013_e2_4","EDITION",61,1,"Divided",NA,0,"Exclude"
"KAWY2013_e2","KAWY2013_e2_4","MOLECULE",62,1,"Divided",NA,0,"Exclude"
"KAWY2013_e2","KAWY2013_e2_4","DOORWAY",63,1,"Divided",NA,0,"Exclude"
"KAWY2013_e2","KAWY2013_e2_4","AXLE",64,0,"Divided",NA,0,"Exclude"
"KAWY2013_e2","KAWY2013_e2_4","BLONDE",65,0,"Divided",NA,0,"Exclude"
