"exp","id","item","trial","isold","condition1","rating","RT","excluding"
"KAWY2013_e4","KAWY2013_e4_1","LOCK",1,0,"Immediate",6,3430,"Include"
"KAWY2013_e4","KAWY2013_e4_1","WALLET",2,1,"Immediate",6,2908,"Include"
"KAWY2013_e4","KAWY2013_e4_1","ROUGH",3,1,"Immediate",6,1269,"Include"
"KAWY2013_e4","KAWY2013_e4_1","CARDINAL",4,1,"Immediate",5,3516,"Include"
"KAWY2013_e4","KAWY2013_e4_1","COMFORT",5,0,"Immediate",6,2046,"Include"
"KAWY2013_e4","KAWY2013_e4_1","BULLET",6,1,"Immediate",6,951,"Include"
"KAWY2013_e4","KAWY2013_e4_1","WRAP",7,0,"Immediate",6,3834,"Include"
"KAWY2013_e4","KAWY2013_e4_1","ISLE",8,1,"Immediate",6,880,"Include"
"KAWY2013_e4","KAWY2013_e4_1","BRONZE",9,1,"Immediate",6,884,"Include"
"KAWY2013_e4","KAWY2013_e4_1","CELLAR",10,1,"Immediate",6,2345,"Include"
"KAWY2013_e4","KAWY2013_e4_1","DAYLIGHT",11,1,"Immediate",1,2007,"Include"
"KAWY2013_e4","KAWY2013_e4_1","PARISH",12,0,"Immediate",1,1794,"Include"
"KAWY2013_e4","KAWY2013_e4_1","ENGINE",13,1,"Immediate",6,1157,"Include"
"KAWY2013_e4","KAWY2013_e4_1","DITCH",14,1,"Immediate",6,2512,"Include"
"KAWY2013_e4","KAWY2013_e4_1","POLE",15,1,"Immediate",6,839,"Include"
"KAWY2013_e4","KAWY2013_e4_1","TENNIS",16,0,"Immediate",1,1342,"Include"
"KAWY2013_e4","KAWY2013_e4_1","SAINT",17,0,"Immediate",2,4498,"Include"
"KAWY2013_e4","KAWY2013_e4_1","GUARD",18,1,"Immediate",6,7680,"Include"
"KAWY2013_e4","KAWY2013_e4_1","AISLE",19,1,"Immediate",6,1974,"Include"
"KAWY2013_e4","KAWY2013_e4_1","MAHOGANY",20,0,"Immediate",1,1395,"Include"
"KAWY2013_e4","KAWY2013_e4_1","BUFFER",21,0,"Immediate",1,1604,"Include"
"KAWY2013_e4","KAWY2013_e4_1","KISS",22,0,"Immediate",1,1870,"Include"
"KAWY2013_e4","KAWY2013_e4_1","COFFIN",23,0,"Immediate",1,3694,"Include"
"KAWY2013_e4","KAWY2013_e4_1","BUREAU",24,1,"Immediate",6,1562,"Include"
"KAWY2013_e4","KAWY2013_e4_1","JOCKEY",25,0,"Immediate",1,2614,"Include"
"KAWY2013_e4","KAWY2013_e4_1","LIME",26,1,"Immediate",6,1242,"Include"
"KAWY2013_e4","KAWY2013_e4_1","MUSCLE",27,0,"Immediate",1,1601,"Include"
"KAWY2013_e4","KAWY2013_e4_1","CANON",28,1,"Immediate",6,1259,"Include"
"KAWY2013_e4","KAWY2013_e4_1","GIANT",29,1,"Immediate",5,2898,"Include"
"KAWY2013_e4","KAWY2013_e4_1","STAR",30,0,"Immediate",3,5948,"Include"
"KAWY2013_e4","KAWY2013_e4_1","RABBI",31,0,"Immediate",6,5459,"Include"
"KAWY2013_e4","KAWY2013_e4_1","ACRE",32,0,"Immediate",1,4045,"Include"
"KAWY2013_e4","KAWY2013_e4_1","LIQUID",33,0,"Immediate",1,6011,"Include"
"KAWY2013_e4","KAWY2013_e4_1","SPEAR",34,1,"Immediate",5,3377,"Include"
"KAWY2013_e4","KAWY2013_e4_1","SCENT",35,0,"Immediate",6,1240,"Include"
"KAWY2013_e4","KAWY2013_e4_1","COPPER",36,0,"Immediate",5,2864,"Include"
"KAWY2013_e4","KAWY2013_e4_1","ROBBERY",37,0,"Immediate",1,1482,"Include"
"KAWY2013_e4","KAWY2013_e4_1","COIN",38,0,"Immediate",4,5736,"Include"
"KAWY2013_e4","KAWY2013_e4_1","COAL",39,0,"Immediate",4,3464,"Include"
"KAWY2013_e4","KAWY2013_e4_1","ARBITER",40,1,"Immediate",4,2572,"Include"
"KAWY2013_e4","KAWY2013_e4_1","SHOE",41,0,"Immediate",1,1218,"Include"
"KAWY2013_e4","KAWY2013_e4_1","RESORT",42,0,"Immediate",1,3706,"Include"
"KAWY2013_e4","KAWY2013_e4_1","PLUG",43,0,"Immediate",2,1574,"Include"
"KAWY2013_e4","KAWY2013_e4_1","CRAFT",44,1,"Immediate",6,2305,"Include"
"KAWY2013_e4","KAWY2013_e4_1","COLONY",45,0,"Immediate",5,1905,"Include"
"KAWY2013_e4","KAWY2013_e4_1","PROP",46,0,"Immediate",1,1616,"Include"
"KAWY2013_e4","KAWY2013_e4_1","ALBUMIN",47,0,"Immediate",1,2057,"Include"
"KAWY2013_e4","KAWY2013_e4_1","SCAR",48,1,"Immediate",6,1634,"Include"
"KAWY2013_e4","KAWY2013_e4_1","ESSAY",49,0,"Immediate",4,5947,"Include"
"KAWY2013_e4","KAWY2013_e4_1","STAIN",50,1,"Immediate",6,1155,"Include"
"KAWY2013_e4","KAWY2013_e4_1","PROPHET",51,1,"Immediate",4,5725,"Include"
"KAWY2013_e4","KAWY2013_e4_1","POPE",52,0,"Immediate",6,1485,"Include"
"KAWY2013_e4","KAWY2013_e4_1","GALLON",53,1,"Immediate",2,4811,"Include"
"KAWY2013_e4","KAWY2013_e4_1","MAIL",54,1,"Immediate",3,3278,"Include"
"KAWY2013_e4","KAWY2013_e4_1","SLICE",55,0,"Immediate",1,2809,"Include"
"KAWY2013_e4","KAWY2013_e4_1","TOWER",56,1,"Immediate",6,2405,"Include"
"KAWY2013_e4","KAWY2013_e4_1","INFANTRY",57,0,"Immediate",5,5569,"Include"
"KAWY2013_e4","KAWY2013_e4_1","BOOTH",58,0,"Immediate",5,1671,"Include"
"KAWY2013_e4","KAWY2013_e4_1","FOAM",59,1,"Immediate",6,959,"Include"
"KAWY2013_e4","KAWY2013_e4_1","TOOL",60,0,"Immediate",5,7584,"Include"
"KAWY2013_e4","KAWY2013_e4_1","ORGAN",61,1,"Immediate",2,1643,"Include"
"KAWY2013_e4","KAWY2013_e4_1","NEPHEW",62,0,"Immediate",1,1603,"Include"
"KAWY2013_e4","KAWY2013_e4_1","DRIVER",63,0,"Immediate",2,2637,"Include"
"KAWY2013_e4","KAWY2013_e4_1","PRISONER",64,0,"Immediate",2,2177,"Include"
"KAWY2013_e4","KAWY2013_e4_1","LINEN",65,1,"Immediate",2,2597,"Include"
"KAWY2013_e4","KAWY2013_e4_1","TRAIL",66,1,"Immediate",4,8346,"Include"
"KAWY2013_e4","KAWY2013_e4_1","CIRCUIT",67,1,"Immediate",6,2344,"Include"
"KAWY2013_e4","KAWY2013_e4_1","FLOOD",68,1,"Immediate",6,1686,"Include"
"KAWY2013_e4","KAWY2013_e4_1","CHEEK",69,0,"Immediate",1,1805,"Include"
"KAWY2013_e4","KAWY2013_e4_1","OVEN",70,0,"Immediate",1,1599,"Include"
"KAWY2013_e4","KAWY2013_e4_1","INSECT",71,1,"Immediate",1,905,"Include"
"KAWY2013_e4","KAWY2013_e4_1","RESIDUE",72,0,"Immediate",1,1453,"Include"
"KAWY2013_e4","KAWY2013_e4_1","TWEED",73,0,"Immediate",1,3244,"Include"
"KAWY2013_e4","KAWY2013_e4_1","BLONDE",74,1,"Immediate",6,1017,"Include"
"KAWY2013_e4","KAWY2013_e4_1","SPECK",75,1,"Immediate",6,1096,"Include"
"KAWY2013_e4","KAWY2013_e4_1","SPIRE",76,1,"Immediate",6,1222,"Include"
"KAWY2013_e4","KAWY2013_e4_1","MUTTON",77,0,"Immediate",1,1230,"Include"
"KAWY2013_e4","KAWY2013_e4_1","ENVELOPE",78,0,"Immediate",2,2150,"Include"
"KAWY2013_e4","KAWY2013_e4_1","STOOL",79,1,"Immediate",5,4091,"Include"
"KAWY2013_e4","KAWY2013_e4_1","DISC",80,0,"Immediate",1,1176,"Include"
"KAWY2013_e4","KAWY2013_e4_1","TOILET",81,1,"Immediate",6,1218,"Include"
"KAWY2013_e4","KAWY2013_e4_1","NEST",82,0,"Immediate",1,3738,"Include"
"KAWY2013_e4","KAWY2013_e4_1","MAZE",83,1,"Immediate",6,1125,"Include"
"KAWY2013_e4","KAWY2013_e4_1","JOURNAL",84,1,"Immediate",2,7152,"Include"
"KAWY2013_e4","KAWY2013_e4_1","LURE",85,0,"Immediate",1,1690,"Include"
"KAWY2013_e4","KAWY2013_e4_1","SALARY",86,0,"Immediate",1,3201,"Include"
"KAWY2013_e4","KAWY2013_e4_1","WRECK",87,0,"Immediate",1,6511,"Include"
"KAWY2013_e4","KAWY2013_e4_1","DELL",88,0,"Immediate",1,1650,"Include"
"KAWY2013_e4","KAWY2013_e4_1","MIST",89,1,"Immediate",5,1354,"Include"
"KAWY2013_e4","KAWY2013_e4_1","SODIUM",90,0,"Immediate",2,4669,"Include"
"KAWY2013_e4","KAWY2013_e4_1","CAFE",91,0,"Immediate",1,1573,"Include"
"KAWY2013_e4","KAWY2013_e4_1","CAST",92,1,"Immediate",5,1552,"Include"
"KAWY2013_e4","KAWY2013_e4_1","EDITION",93,0,"Immediate",2,2684,"Include"
"KAWY2013_e4","KAWY2013_e4_1","THIEF",94,0,"Immediate",3,2365,"Include"
"KAWY2013_e4","KAWY2013_e4_1","GUIDE",95,1,"Immediate",6,2603,"Include"
"KAWY2013_e4","KAWY2013_e4_1","FRICTION",96,1,"Immediate",6,1231,"Include"
"KAWY2013_e4","KAWY2013_e4_1","PROFILE",97,1,"Immediate",6,1351,"Include"
"KAWY2013_e4","KAWY2013_e4_1","DUKE",98,1,"Immediate",5,2058,"Include"
"KAWY2013_e4","KAWY2013_e4_1","WILLOW",99,0,"Immediate",3,4387,"Include"
"KAWY2013_e4","KAWY2013_e4_1","MENU",100,0,"Immediate",3,7541,"Include"
"KAWY2013_e4","KAWY2013_e4_1","KNIGHT",101,0,"Immediate",1,3474,"Include"
"KAWY2013_e4","KAWY2013_e4_1","LEATHER",102,0,"Immediate",1,1558,"Include"
"KAWY2013_e4","KAWY2013_e4_1","PEER",103,0,"Immediate",1,1362,"Include"
"KAWY2013_e4","KAWY2013_e4_1","HOUND",104,1,"Immediate",1,2165,"Include"
"KAWY2013_e4","KAWY2013_e4_1","CUSTOMER",105,0,"Immediate",1,1082,"Include"
"KAWY2013_e4","KAWY2013_e4_1","SHADOW",106,0,"Immediate",1,1239,"Include"
"KAWY2013_e4","KAWY2013_e4_1","PUZZLE",107,1,"Immediate",6,1439,"Include"
"KAWY2013_e4","KAWY2013_e4_1","PUNCH",108,0,"Immediate",2,4239,"Include"
"KAWY2013_e4","KAWY2013_e4_1","PISTON",109,1,"Immediate",6,1093,"Include"
"KAWY2013_e4","KAWY2013_e4_1","DRIZZLE",110,0,"Immediate",1,2179,"Include"
"KAWY2013_e4","KAWY2013_e4_1","CHAIN",111,1,"Immediate",4,9879,"Include"
"KAWY2013_e4","KAWY2013_e4_1","CARRIAGE",112,0,"Immediate",4,1676,"Include"
"KAWY2013_e4","KAWY2013_e4_1","BRAIN",113,1,"Immediate",6,1187,"Include"
"KAWY2013_e4","KAWY2013_e4_1","TIMBER",114,1,"Immediate",2,3468,"Include"
"KAWY2013_e4","KAWY2013_e4_1","HUNGER",115,1,"Immediate",6,1025,"Include"
"KAWY2013_e4","KAWY2013_e4_1","CHUCKLE",116,1,"Immediate",6,1952,"Include"
"KAWY2013_e4","KAWY2013_e4_1","BOSS",117,0,"Immediate",1,1277,"Include"
"KAWY2013_e4","KAWY2013_e4_1","CHOIR",118,0,"Immediate",2,13140,"Include"
"KAWY2013_e4","KAWY2013_e4_1","CRAWL",119,1,"Immediate",4,3055,"Include"
"KAWY2013_e4","KAWY2013_e4_1","ROUTE",120,0,"Immediate",5,2035,"Include"
"KAWY2013_e4","KAWY2013_e4_1","SINGER",121,1,"Immediate",5,1388,"Include"
"KAWY2013_e4","KAWY2013_e4_1","SQUIRE",122,1,"Immediate",6,862,"Include"
"KAWY2013_e4","KAWY2013_e4_1","SPHERE",123,0,"Immediate",3,2868,"Include"
"KAWY2013_e4","KAWY2013_e4_1","SISTER",124,1,"Immediate",6,1535,"Include"
"KAWY2013_e4","KAWY2013_e4_1","SWORD",125,0,"Immediate",3,3067,"Include"
"KAWY2013_e4","KAWY2013_e4_1","COTTAGE",126,0,"Immediate",4,6511,"Include"
"KAWY2013_e4","KAWY2013_e4_1","CARAVAN",127,1,"Immediate",5,2945,"Include"
"KAWY2013_e4","KAWY2013_e4_1","NICKEL",128,0,"Immediate",2,2152,"Include"
"KAWY2013_e4","KAWY2013_e4_1","AXLE",129,0,"Immediate",1,5149,"Include"
"KAWY2013_e4","KAWY2013_e4_1","TROLLEY",130,1,"Immediate",1,2659,"Include"
"KAWY2013_e4","KAWY2013_e4_1","REVOLVER",131,1,"Immediate",6,981,"Include"
"KAWY2013_e4","KAWY2013_e4_1","TRUNK",132,0,"Immediate",3,5366,"Include"
"KAWY2013_e4","KAWY2013_e4_1","DISPLAY",133,1,"Immediate",6,1668,"Include"
"KAWY2013_e4","KAWY2013_e4_1","LAWYER",134,1,"Immediate",6,1435,"Include"
"KAWY2013_e4","KAWY2013_e4_1","RECEIVER",135,1,"Immediate",6,1195,"Include"
"KAWY2013_e4","KAWY2013_e4_1","HYMN",136,0,"Immediate",1,1141,"Include"
"KAWY2013_e4","KAWY2013_e4_1","CAPE",137,1,"Immediate",4,3184,"Include"
"KAWY2013_e4","KAWY2013_e4_1","SILVER",138,0,"Immediate",4,1423,"Include"
"KAWY2013_e4","KAWY2013_e4_1","COUCH",139,0,"Immediate",4,3295,"Include"
"KAWY2013_e4","KAWY2013_e4_1","MANKIND",140,0,"Immediate",1,1034,"Include"
"KAWY2013_e4","KAWY2013_e4_1","WOUND",141,0,"Immediate",1,857,"Include"
"KAWY2013_e4","KAWY2013_e4_1","MERCHANT",142,0,"Immediate",1,2623,"Include"
"KAWY2013_e4","KAWY2013_e4_1","IRON",143,0,"Immediate",3,2051,"Include"
"KAWY2013_e4","KAWY2013_e4_1","QUACK",144,1,"Immediate",6,2092,"Include"
"KAWY2013_e4","KAWY2013_e4_1","LACE",145,1,"Immediate",6,1220,"Include"
"KAWY2013_e4","KAWY2013_e4_1","PECK",146,0,"Immediate",1,4172,"Include"
"KAWY2013_e4","KAWY2013_e4_1","CEREMONY",147,1,"Immediate",1,2246,"Include"
"KAWY2013_e4","KAWY2013_e4_1","DAMAGE",148,0,"Immediate",1,1383,"Include"
"KAWY2013_e4","KAWY2013_e4_1","LECTURE",149,1,"Immediate",6,1145,"Include"
"KAWY2013_e4","KAWY2013_e4_1","TOKEN",150,1,"Immediate",3,3317,"Include"
"KAWY2013_e4","KAWY2013_e4_1","DRUG",151,1,"Immediate",1,1199,"Include"
"KAWY2013_e4","KAWY2013_e4_1","QUARTER",152,1,"Immediate",1,2247,"Include"
"KAWY2013_e4","KAWY2013_e4_1","PEARL",153,1,"Immediate",3,4873,"Include"
"KAWY2013_e4","KAWY2013_e4_1","STOVE",154,1,"Immediate",4,3161,"Include"
"KAWY2013_e4","KAWY2013_e4_1","PALACE",155,0,"Immediate",1,5416,"Include"
"KAWY2013_e4","KAWY2013_e4_1","CHLORINE",156,1,"Immediate",6,1107,"Include"
"KAWY2013_e4","KAWY2013_e4_1","YARD",157,1,"Immediate",4,9952,"Include"
"KAWY2013_e4","KAWY2013_e4_1","REVOLT",158,1,"Immediate",6,1618,"Include"
"KAWY2013_e4","KAWY2013_e4_1","FLOCK",159,1,"Immediate",6,2699,"Include"
"KAWY2013_e4","KAWY2013_e4_1","DEPUTY",160,0,"Immediate",1,1228,"Include"
"KAWY2013_e4","KAWY2013_e4_1","CORRIDOR",161,0,"Immediate",6,2340,"Include"
"KAWY2013_e4","KAWY2013_e4_1","CIRCUS",162,0,"Immediate",2,3427,"Include"
"KAWY2013_e4","KAWY2013_e4_1","BALLOT",163,0,"Immediate",5,7816,"Include"
"KAWY2013_e4","KAWY2013_e4_1","STRANGER",164,0,"Immediate",3,6346,"Include"
"KAWY2013_e4","KAWY2013_e4_1","COLONEL",165,1,"Immediate",4,2803,"Include"
"KAWY2013_e4","KAWY2013_e4_1","PIONEER",166,0,"Immediate",6,1792,"Include"
"KAWY2013_e4","KAWY2013_e4_1","ANCHOR",167,0,"Immediate",2,2004,"Include"
"KAWY2013_e4","KAWY2013_e4_1","DONOR",168,0,"Immediate",2,1343,"Include"
"KAWY2013_e4","KAWY2013_e4_1","SONATA",169,1,"Immediate",6,1490,"Include"
"KAWY2013_e4","KAWY2013_e4_1","LAWN",170,0,"Immediate",3,6961,"Include"
"KAWY2013_e4","KAWY2013_e4_1","HOOD",171,0,"Immediate",4,2179,"Include"
"KAWY2013_e4","KAWY2013_e4_1","SEWER",172,1,"Immediate",3,1623,"Include"
"KAWY2013_e4","KAWY2013_e4_1","WITCH",173,0,"Immediate",1,2000,"Include"
"KAWY2013_e4","KAWY2013_e4_1","BURIAL",174,0,"Immediate",1,1403,"Include"
"KAWY2013_e4","KAWY2013_e4_1","SAUCE",175,0,"Immediate",1,1436,"Include"
"KAWY2013_e4","KAWY2013_e4_1","WHEAT",176,1,"Immediate",1,1484,"Include"
"KAWY2013_e4","KAWY2013_e4_1","CHART",177,1,"Immediate",6,13018,"Include"
"KAWY2013_e4","KAWY2013_e4_1","INJURY",178,1,"Immediate",6,4185,"Include"
"KAWY2013_e4","KAWY2013_e4_1","SOLDIER",179,0,"Immediate",6,1683,"Include"
"KAWY2013_e4","KAWY2013_e4_1","MAST",180,0,"Immediate",5,6218,"Include"
"KAWY2013_e4","KAWY2013_e4_1","SLEEVE",181,0,"Immediate",2,2391,"Include"
"KAWY2013_e4","KAWY2013_e4_1","ATHLETE",182,1,"Immediate",6,2004,"Include"
"KAWY2013_e4","KAWY2013_e4_1","STING",183,1,"Immediate",6,1359,"Include"
"KAWY2013_e4","KAWY2013_e4_1","SLIDE",184,1,"Immediate",1,2306,"Include"
"KAWY2013_e4","KAWY2013_e4_1","TWIST",185,1,"Immediate",6,1314,"Include"
"KAWY2013_e4","KAWY2013_e4_1","AUTUMN",186,1,"Immediate",5,2630,"Include"
"KAWY2013_e4","KAWY2013_e4_1","DAIRY",187,1,"Immediate",6,1770,"Include"
"KAWY2013_e4","KAWY2013_e4_1","CRADLE",188,0,"Immediate",2,2797,"Include"
"KAWY2013_e4","KAWY2013_e4_1","CHIN",189,0,"Immediate",1,2379,"Include"
"KAWY2013_e4","KAWY2013_e4_1","CAPITOL",190,1,"Immediate",6,1367,"Include"
"KAWY2013_e4","KAWY2013_e4_1","FOOTBALL",191,1,"Immediate",6,4970,"Include"
"KAWY2013_e4","KAWY2013_e4_1","BEECH",192,1,"Immediate",6,870,"Include"
"KAWY2013_e4","KAWY2013_e4_1","MEADOW",193,1,"Immediate",6,1451,"Include"
"KAWY2013_e4","KAWY2013_e4_1","TRACK",194,1,"Immediate",2,1418,"Include"
"KAWY2013_e4","KAWY2013_e4_1","LEAF",195,1,"Immediate",4,5083,"Include"
"KAWY2013_e4","KAWY2013_e4_1","FERRY",196,0,"Immediate",1,1315,"Include"
"KAWY2013_e4","KAWY2013_e4_1","POLL",197,1,"Immediate",5,6248,"Include"
"KAWY2013_e4","KAWY2013_e4_1","SPRUCE",198,0,"Immediate",2,7571,"Include"
"KAWY2013_e4","KAWY2013_e4_1","SMELL",199,0,"Immediate",1,2911,"Include"
"KAWY2013_e4","KAWY2013_e4_1","LUNCH",200,0,"Immediate",1,983,"Include"
"KAWY2013_e4","KAWY2013_e4_1","CALF",201,1,"Immediate",6,1144,"Include"
"KAWY2013_e4","KAWY2013_e4_1","TAPE",202,0,"Immediate",5,4116,"Include"
"KAWY2013_e4","KAWY2013_e4_1","SHOWER",203,1,"Immediate",4,2896,"Include"
"KAWY2013_e4","KAWY2013_e4_1","STORM",204,1,"Immediate",6,2745,"Include"
"KAWY2013_e4","KAWY2013_e4_1","APERTURE",205,0,"Immediate",1,3256,"Include"
"KAWY2013_e4","KAWY2013_e4_1","HEAP",206,0,"Immediate",1,1237,"Include"
"KAWY2013_e4","KAWY2013_e4_1","EASEL",207,0,"Immediate",1,860,"Include"
"KAWY2013_e4","KAWY2013_e4_1","CITIZEN",208,1,"Immediate",5,1794,"Include"
"KAWY2013_e4","KAWY2013_e4_1","BREEZE",209,0,"Immediate",2,3685,"Include"
"KAWY2013_e4","KAWY2013_e4_1","ABDOMEN",210,1,"Immediate",6,1921,"Include"
"KAWY2013_e4","KAWY2013_e4_1","NATIVE",211,1,"Immediate",3,6032,"Include"
"KAWY2013_e4","KAWY2013_e4_1","PLANK",212,1,"Immediate",5,2132,"Include"
"KAWY2013_e4","KAWY2013_e4_1","ATOM",213,1,"Immediate",6,1674,"Include"
"KAWY2013_e4","KAWY2013_e4_1","WHIP",214,0,"Immediate",2,1682,"Include"
"KAWY2013_e4","KAWY2013_e4_1","PHYSICS",215,1,"Immediate",6,1929,"Include"
"KAWY2013_e4","KAWY2013_e4_1","ARROW",216,0,"Immediate",3,4790,"Include"
"KAWY2013_e4","KAWY2013_e4_1","HIDE",217,0,"Immediate",1,5433,"Include"
"KAWY2013_e4","KAWY2013_e4_1","ROLL",218,1,"Immediate",2,2308,"Include"
"KAWY2013_e4","KAWY2013_e4_1","GOLF",219,1,"Immediate",6,1380,"Include"
"KAWY2013_e4","KAWY2013_e4_1","REFUSE",220,1,"Immediate",6,11733,"Include"
"KAWY2013_e4","KAWY2013_e4_1","CORE",221,1,"Immediate",6,853,"Include"
"KAWY2013_e4","KAWY2013_e4_1","DOCK",222,1,"Immediate",6,2220,"Include"
"KAWY2013_e4","KAWY2013_e4_1","SHRIEK",223,1,"Immediate",6,798,"Include"
"KAWY2013_e4","KAWY2013_e4_1","HIGHWAY",224,1,"Immediate",6,1382,"Include"
"KAWY2013_e4","KAWY2013_e4_1","LOOP",225,1,"Immediate",6,1112,"Include"
"KAWY2013_e4","KAWY2013_e4_1","JUICE",226,0,"Immediate",1,3460,"Include"
"KAWY2013_e4","KAWY2013_e4_1","BUNCH",227,0,"Immediate",1,1048,"Include"
"KAWY2013_e4","KAWY2013_e4_1","MUSICIAN",228,0,"Immediate",1,1095,"Include"
"KAWY2013_e4","KAWY2013_e4_1","STEEPLE",229,0,"Immediate",6,1604,"Include"
"KAWY2013_e4","KAWY2013_e4_1","OBSERVER",230,1,"Immediate",6,894,"Include"
"KAWY2013_e4","KAWY2013_e4_1","FLAME",231,1,"Immediate",2,3458,"Include"
"KAWY2013_e4","KAWY2013_e4_1","IGNITION",232,1,"Immediate",1,1591,"Include"
"KAWY2013_e4","KAWY2013_e4_1","PORTRAIT",233,0,"Immediate",1,2449,"Include"
"KAWY2013_e4","KAWY2013_e4_1","LIMP",234,0,"Immediate",4,11500,"Include"
"KAWY2013_e4","KAWY2013_e4_1","SALAD",235,0,"Immediate",4,3700,"Include"
"KAWY2013_e4","KAWY2013_e4_1","BOOT",236,0,"Immediate",4,1072,"Include"
"KAWY2013_e4","KAWY2013_e4_1","VESSEL",237,0,"Immediate",3,1678,"Include"
"KAWY2013_e4","KAWY2013_e4_1","MAGAZINE",238,1,"Immediate",2,2165,"Include"
"KAWY2013_e4","KAWY2013_e4_1","GULF",239,1,"Immediate",6,3610,"Include"
"KAWY2013_e4","KAWY2013_e4_1","HIND",240,0,"Immediate",2,1865,"Include"
"KAWY2013_e4","KAWY2013_e4_1","ACCIDENT",241,0,"Immediate",4,4521,"Include"
"KAWY2013_e4","KAWY2013_e4_1","INCH",242,1,"Immediate",5,2358,"Include"
"KAWY2013_e4","KAWY2013_e4_1","ANTIQUE",243,0,"Immediate",1,4196,"Include"
"KAWY2013_e4","KAWY2013_e4_1","SERGEANT",244,0,"Immediate",1,4205,"Include"
"KAWY2013_e4","KAWY2013_e4_1","FLEET",245,0,"Immediate",6,1062,"Include"
"KAWY2013_e4","KAWY2013_e4_1","BOIL",246,1,"Immediate",1,1204,"Include"
"KAWY2013_e4","KAWY2013_e4_1","BURN",247,1,"Immediate",5,2908,"Include"
"KAWY2013_e4","KAWY2013_e4_1","GLARE",248,1,"Immediate",1,5750,"Include"
"KAWY2013_e4","KAWY2013_e4_1","GOWN",249,0,"Immediate",1,997,"Include"
"KAWY2013_e4","KAWY2013_e4_1","IVORY",250,1,"Immediate",6,997,"Include"
"KAWY2013_e4","KAWY2013_e4_1","BOLT",251,0,"Immediate",6,2741,"Include"
"KAWY2013_e4","KAWY2013_e4_1","FAINT",252,1,"Immediate",5,3685,"Include"
"KAWY2013_e4","KAWY2013_e4_1","SPECIMEN",253,0,"Immediate",4,2737,"Include"
"KAWY2013_e4","KAWY2013_e4_1","RAIL",254,0,"Immediate",5,1217,"Include"
"KAWY2013_e4","KAWY2013_e4_1","TOUGH",255,1,"Immediate",6,1305,"Include"
"KAWY2013_e4","KAWY2013_e4_1","OUTFIT",256,1,"Immediate",6,846,"Include"
"KAWY2013_e4","KAWY2013_e4_1","CARPET",257,0,"Immediate",2,1589,"Include"
"KAWY2013_e4","KAWY2013_e4_1","SPEAKER",258,1,"Immediate",5,2079,"Include"
"KAWY2013_e4","KAWY2013_e4_1","PURSE",259,1,"Immediate",1,1431,"Include"
"KAWY2013_e4","KAWY2013_e4_1","BRUTE",260,0,"Immediate",1,2151,"Include"
"KAWY2013_e4","KAWY2013_e4_1","BABE",261,0,"Immediate",1,829,"Include"
"KAWY2013_e4","KAWY2013_e4_1","SWELL",262,0,"Immediate",1,916,"Include"
"KAWY2013_e4","KAWY2013_e4_1","MOLD",263,0,"Immediate",1,743,"Include"
"KAWY2013_e4","KAWY2013_e4_1","SHUTTER",264,1,"Immediate",4,2993,"Include"
"KAWY2013_e4","KAWY2013_e4_1","TRAY",265,1,"Immediate",4,8871,"Include"
"KAWY2013_e4","KAWY2013_e4_1","CABINET",266,1,"Immediate",3,1298,"Include"
"KAWY2013_e4","KAWY2013_e4_1","STRIDE",267,0,"Immediate",2,9927,"Include"
"KAWY2013_e4","KAWY2013_e4_1","THUNDER",268,1,"Immediate",5,3066,"Include"
"KAWY2013_e4","KAWY2013_e4_1","RECITAL",269,0,"Immediate",6,2461,"Include"
"KAWY2013_e4","KAWY2013_e4_1","SAIL",270,1,"Immediate",3,10117,"Include"
"KAWY2013_e4","KAWY2013_e4_1","SUPPER",271,0,"Immediate",1,1890,"Include"
"KAWY2013_e4","KAWY2013_e4_1","CITATION",272,0,"Immediate",1,1681,"Include"
"KAWY2013_e4","KAWY2013_e4_1","DEPOSIT",273,1,"Immediate",6,1112,"Include"
"KAWY2013_e4","KAWY2013_e4_1","ASSAULT",274,0,"Immediate",4,9588,"Include"
"KAWY2013_e4","KAWY2013_e4_1","PAINTER",275,1,"Immediate",3,2948,"Include"
"KAWY2013_e4","KAWY2013_e4_1","CHESTNUT",276,1,"Immediate",5,3804,"Include"
"KAWY2013_e4","KAWY2013_e4_1","HERB",277,0,"Immediate",1,1028,"Include"
"KAWY2013_e4","KAWY2013_e4_1","SELLER",278,0,"Immediate",1,1347,"Include"
"KAWY2013_e4","KAWY2013_e4_1","LEVER",279,1,"Immediate",1,839,"Include"
"KAWY2013_e4","KAWY2013_e4_1","POLISH",280,1,"Immediate",6,1069,"Include"
"KAWY2013_e4","KAWY2013_e4_1","CLOTH",281,0,"Immediate",1,1035,"Include"
"KAWY2013_e4","KAWY2013_e4_1","GRAPHITE",282,1,"Immediate",6,906,"Include"
"KAWY2013_e4","KAWY2013_e4_1","COMPOSER",283,1,"Immediate",6,862,"Include"
"KAWY2013_e4","KAWY2013_e4_1","COMPACT",284,0,"Immediate",2,1764,"Include"
"KAWY2013_e4","KAWY2013_e4_1","MONUMENT",285,0,"Immediate",2,2247,"Include"
"KAWY2013_e4","KAWY2013_e4_1","WIRE",286,0,"Immediate",1,3449,"Include"
"KAWY2013_e4","KAWY2013_e4_1","PASTOR",287,0,"Immediate",6,1086,"Include"
"KAWY2013_e4","KAWY2013_e4_1","BOULDER",288,1,"Immediate",2,2011,"Include"
"KAWY2013_e4","KAWY2013_e4_1","TUNNEL",289,1,"Immediate",6,6966,"Include"
"KAWY2013_e4","KAWY2013_e4_1","RACKET",290,1,"Immediate",6,311,"Include"
"KAWY2013_e4","KAWY2013_e4_1","NURSERY",291,1,"Immediate",6,4498,"Include"
"KAWY2013_e4","KAWY2013_e4_1","PASTURE",292,1,"Immediate",6,992,"Include"
"KAWY2013_e4","KAWY2013_e4_1","CAVE",293,1,"Immediate",5,4465,"Include"
"KAWY2013_e4","KAWY2013_e4_1","ARCH",294,1,"Immediate",6,1328,"Include"
"KAWY2013_e4","KAWY2013_e4_1","DYNASTY",295,0,"Immediate",4,3747,"Include"
"KAWY2013_e4","KAWY2013_e4_1","OPPONENT",296,1,"Immediate",2,1485,"Include"
"KAWY2013_e4","KAWY2013_e4_1","SHEAR",297,0,"Immediate",2,2251,"Include"
"KAWY2013_e4","KAWY2013_e4_1","PIANIST",298,0,"Immediate",6,2381,"Include"
"KAWY2013_e4","KAWY2013_e4_1","ALERT",299,1,"Immediate",1,1530,"Include"
"KAWY2013_e4","KAWY2013_e4_1","ROOT",300,0,"Immediate",1,1862,"Include"
"KAWY2013_e4","KAWY2013_e4_1","SPARK",1,0,"Delayed",4,4856,"Include"
"KAWY2013_e4","KAWY2013_e4_1","RAKE",2,1,"Delayed",2,1161,"Include"
"KAWY2013_e4","KAWY2013_e4_1","STABLE",3,0,"Delayed",1,5986,"Include"
"KAWY2013_e4","KAWY2013_e4_1","PORT",4,1,"Delayed",2,3400,"Include"
"KAWY2013_e4","KAWY2013_e4_1","FREIGHT",5,1,"Delayed",2,2767,"Include"
"KAWY2013_e4","KAWY2013_e4_1","SUNLIGHT",6,0,"Delayed",1,2558,"Include"
"KAWY2013_e4","KAWY2013_e4_1","GANG",7,1,"Delayed",1,996,"Include"
"KAWY2013_e4","KAWY2013_e4_1","THROW",8,0,"Delayed",1,1749,"Include"
"KAWY2013_e4","KAWY2013_e4_1","SPONGE",9,0,"Delayed",1,2089,"Include"
"KAWY2013_e4","KAWY2013_e4_1","SUDS",10,0,"Delayed",1,2929,"Include"
"KAWY2013_e4","KAWY2013_e4_1","DRAIN",11,1,"Delayed",2,1417,"Include"
"KAWY2013_e4","KAWY2013_e4_1","BLIND",12,0,"Delayed",2,3882,"Include"
"KAWY2013_e4","KAWY2013_e4_1","MUSTARD",13,0,"Delayed",1,959,"Include"
"KAWY2013_e4","KAWY2013_e4_1","SLOPE",14,0,"Delayed",1,1457,"Include"
"KAWY2013_e4","KAWY2013_e4_1","GROVE",15,0,"Delayed",1,1920,"Include"
"KAWY2013_e4","KAWY2013_e4_1","NAVY",16,1,"Delayed",3,5647,"Include"
"KAWY2013_e4","KAWY2013_e4_1","GLITTER",17,0,"Delayed",2,3874,"Include"
"KAWY2013_e4","KAWY2013_e4_1","LUNG",18,1,"Delayed",1,1127,"Include"
"KAWY2013_e4","KAWY2013_e4_1","FEVER",19,0,"Delayed",1,930,"Include"
"KAWY2013_e4","KAWY2013_e4_1","PREY",20,0,"Delayed",1,1878,"Include"
"KAWY2013_e4","KAWY2013_e4_1","BACTERIA",21,0,"Delayed",1,854,"Include"
"KAWY2013_e4","KAWY2013_e4_1","RATTLE",22,0,"Delayed",1,1691,"Include"
"KAWY2013_e4","KAWY2013_e4_1","PLANET",23,0,"Delayed",1,914,"Include"
"KAWY2013_e4","KAWY2013_e4_1","RECTOR",24,0,"Delayed",1,1014,"Include"
"KAWY2013_e4","KAWY2013_e4_1","HOSE",25,0,"Delayed",1,902,"Include"
"KAWY2013_e4","KAWY2013_e4_1","CROWN",26,0,"Delayed",1,1066,"Include"
"KAWY2013_e4","KAWY2013_e4_1","PEPPER",27,1,"Delayed",2,5063,"Include"
"KAWY2013_e4","KAWY2013_e4_1","RENT",28,0,"Delayed",3,2832,"Include"
"KAWY2013_e4","KAWY2013_e4_1","BISHOP",29,1,"Delayed",5,3836,"Include"
"KAWY2013_e4","KAWY2013_e4_1","RIDGE",30,1,"Delayed",5,3379,"Include"
"KAWY2013_e4","KAWY2013_e4_1","SATIN",31,0,"Delayed",1,5625,"Include"
"KAWY2013_e4","KAWY2013_e4_1","MUZZLE",32,0,"Delayed",1,941,"Include"
"KAWY2013_e4","KAWY2013_e4_1","PORCH",33,1,"Delayed",1,800,"Include"
"KAWY2013_e4","KAWY2013_e4_1","SOLE",34,0,"Delayed",4,3560,"Include"
"KAWY2013_e4","KAWY2013_e4_1","CANE",35,0,"Delayed",2,6008,"Include"
"KAWY2013_e4","KAWY2013_e4_1","MORTAL",36,1,"Delayed",1,3054,"Include"
"KAWY2013_e4","KAWY2013_e4_1","WHISPER",37,0,"Delayed",3,3282,"Include"
"KAWY2013_e4","KAWY2013_e4_1","COSTUME",38,0,"Delayed",1,1837,"Include"
"KAWY2013_e4","KAWY2013_e4_1","DAWN",39,0,"Delayed",1,1278,"Include"
"KAWY2013_e4","KAWY2013_e4_1","FACTORY",40,0,"Delayed",1,660,"Include"
"KAWY2013_e4","KAWY2013_e4_1","STAKE",41,1,"Delayed",2,3601,"Include"
"KAWY2013_e4","KAWY2013_e4_1","NERVE",42,0,"Delayed",1,1025,"Include"
"KAWY2013_e4","KAWY2013_e4_1","REED",43,0,"Delayed",1,928,"Include"
"KAWY2013_e4","KAWY2013_e4_1","FLOWER",44,0,"Delayed",1,932,"Include"
"KAWY2013_e4","KAWY2013_e4_1","BUBBLE",45,0,"Delayed",1,791,"Include"
"KAWY2013_e4","KAWY2013_e4_1","RUST",46,0,"Delayed",1,2655,"Include"
"KAWY2013_e4","KAWY2013_e4_1","QUILL",47,0,"Delayed",1,898,"Include"
"KAWY2013_e4","KAWY2013_e4_1","NAIL",48,0,"Delayed",1,950,"Include"
"KAWY2013_e4","KAWY2013_e4_1","LESSON",49,1,"Delayed",5,4504,"Include"
"KAWY2013_e4","KAWY2013_e4_1","GESTURE",50,0,"Delayed",5,4166,"Include"
"KAWY2013_e4","KAWY2013_e4_1","MINERAL",51,1,"Delayed",3,4112,"Include"
"KAWY2013_e4","KAWY2013_e4_1","ECHO",52,1,"Delayed",4,2493,"Include"
"KAWY2013_e4","KAWY2013_e4_1","BOUNDARY",53,0,"Delayed",2,2646,"Include"
"KAWY2013_e4","KAWY2013_e4_1","GARMENT",54,1,"Delayed",6,3672,"Include"
"KAWY2013_e4","KAWY2013_e4_1","RANCH",55,1,"Delayed",2,6389,"Include"
"KAWY2013_e4","KAWY2013_e4_1","LIFT",56,0,"Delayed",1,2060,"Include"
"KAWY2013_e4","KAWY2013_e4_1","BASEMENT",57,0,"Delayed",1,838,"Include"
"KAWY2013_e4","KAWY2013_e4_1","TIRE",58,1,"Delayed",1,987,"Include"
"KAWY2013_e4","KAWY2013_e4_1","CHAPEL",59,0,"Delayed",6,1196,"Include"
"KAWY2013_e4","KAWY2013_e4_1","STADIUM",60,0,"Delayed",2,11733,"Include"
"KAWY2013_e4","KAWY2013_e4_1","STRAND",61,0,"Delayed",1,2773,"Include"
"KAWY2013_e4","KAWY2013_e4_1","PARADE",62,1,"Delayed",6,1892,"Include"
"KAWY2013_e4","KAWY2013_e4_1","RUBBER",63,0,"Delayed",6,6147,"Include"
"KAWY2013_e4","KAWY2013_e4_1","STEM",64,1,"Delayed",2,1828,"Include"
"KAWY2013_e4","KAWY2013_e4_1","MEDICINE",65,0,"Delayed",1,821,"Include"
"KAWY2013_e4","KAWY2013_e4_1","BUILDER",66,1,"Delayed",1,1692,"Include"
"KAWY2013_e4","KAWY2013_e4_1","SLIP",67,1,"Delayed",1,2355,"Include"
"KAWY2013_e4","KAWY2013_e4_1","KNEE",68,0,"Delayed",1,961,"Include"
"KAWY2013_e4","KAWY2013_e4_1","STROKE",69,1,"Delayed",5,1779,"Include"
"KAWY2013_e4","KAWY2013_e4_1","LINK",70,0,"Delayed",1,2534,"Include"
"KAWY2013_e4","KAWY2013_e4_1","DUEL",71,0,"Delayed",1,861,"Include"
"KAWY2013_e4","KAWY2013_e4_1","DOLL",72,0,"Delayed",1,995,"Include"
"KAWY2013_e4","KAWY2013_e4_1","TOLL",73,1,"Delayed",1,596,"Include"
"KAWY2013_e4","KAWY2013_e4_1","SALOON",74,0,"Delayed",2,1860,"Include"
"KAWY2013_e4","KAWY2013_e4_1","MANTLE",75,0,"Delayed",2,7572,"Include"
"KAWY2013_e4","KAWY2013_e4_1","WAVE",76,0,"Delayed",4,2111,"Include"
"KAWY2013_e4","KAWY2013_e4_1","HAIL",77,0,"Delayed",1,1174,"Include"
"KAWY2013_e4","KAWY2013_e4_1","TUBE",78,1,"Delayed",1,720,"Include"
"KAWY2013_e4","KAWY2013_e4_1","TIDE",79,0,"Delayed",1,907,"Include"
"KAWY2013_e4","KAWY2013_e4_1","DIET",80,0,"Delayed",1,655,"Include"
"KAWY2013_e4","KAWY2013_e4_1","BATON",81,1,"Delayed",5,6540,"Include"
"KAWY2013_e4","KAWY2013_e4_1","LANE",82,1,"Delayed",5,1758,"Include"
"KAWY2013_e4","KAWY2013_e4_1","BUCKLE",83,1,"Delayed",5,1633,"Include"
"KAWY2013_e4","KAWY2013_e4_1","QUEEN",84,1,"Delayed",5,1003,"Include"
"KAWY2013_e4","KAWY2013_e4_1","THINKER",85,0,"Delayed",2,2266,"Include"
"KAWY2013_e4","KAWY2013_e4_1","SINK",86,0,"Delayed",5,2603,"Include"
"KAWY2013_e4","KAWY2013_e4_1","MOLECULE",87,1,"Delayed",6,3232,"Include"
"KAWY2013_e4","KAWY2013_e4_1","SCHOLAR",88,1,"Delayed",6,1661,"Include"
"KAWY2013_e4","KAWY2013_e4_1","BANNER",89,0,"Delayed",2,1493,"Include"
"KAWY2013_e4","KAWY2013_e4_1","DOORWAY",90,1,"Delayed",5,1763,"Include"
"KAWY2013_e4","KAWY2013_e4_1","DIVE",91,0,"Delayed",1,2999,"Include"
"KAWY2013_e4","KAWY2013_e4_1","MATCH",92,0,"Delayed",5,1180,"Include"
"KAWY2013_e4","KAWY2013_e4_1","TANK",93,1,"Delayed",2,1462,"Include"
"KAWY2013_e4","KAWY2013_e4_1","SPRAY",94,0,"Delayed",4,4757,"Include"
"KAWY2013_e4","KAWY2013_e4_1","ALGAE",95,1,"Delayed",5,3769,"Include"
"KAWY2013_e4","KAWY2013_e4_1","ERRAND",96,1,"Delayed",1,2242,"Include"
"KAWY2013_e4","KAWY2013_e4_1","SILK",97,0,"Delayed",1,933,"Include"
"KAWY2013_e4","KAWY2013_e4_1","POCKET",98,1,"Delayed",1,1495,"Include"
"KAWY2013_e4","KAWY2013_e4_1","HAZE",99,1,"Delayed",2,9910,"Include"
"KAWY2013_e4","KAWY2013_e4_1","HARNESS",100,0,"Delayed",2,1529,"Include"
"KAWY2013_e4","KAWY2013_e4_1","BERRY",101,1,"Delayed",1,1238,"Include"
"KAWY2013_e4","KAWY2013_e4_1","SCOUT",102,0,"Delayed",1,813,"Include"
"KAWY2013_e4","KAWY2013_e4_1","SWIM",103,1,"Delayed",1,837,"Include"
"KAWY2013_e4","KAWY2013_e4_1","MOVIE",104,1,"Delayed",1,843,"Include"
"KAWY2013_e4","KAWY2013_e4_1","HOLIDAY",105,0,"Delayed",1,626,"Include"
"KAWY2013_e4","KAWY2013_e4_1","LOAD",106,1,"Delayed",1,880,"Include"
"KAWY2013_e4","KAWY2013_e4_1","CLOSET",107,0,"Delayed",6,1621,"Include"
"KAWY2013_e4","KAWY2013_e4_1","OCEAN",108,0,"Delayed",1,1471,"Include"
"KAWY2013_e4","KAWY2013_e4_1","TOURIST",109,0,"Delayed",1,1101,"Include"
"KAWY2013_e4","KAWY2013_e4_1","BRASS",110,1,"Delayed",6,1434,"Include"
"KAWY2013_e4","KAWY2013_e4_1","BLOOM",111,1,"Delayed",6,1370,"Include"
"KAWY2013_e4","KAWY2013_e4_1","BATH",112,1,"Delayed",1,1373,"Include"
"KAWY2013_e4","KAWY2013_e4_1","GIFT",113,1,"Delayed",1,767,"Include"
"KAWY2013_e4","KAWY2013_e4_1","FENCE",114,0,"Delayed",1,744,"Include"
"KAWY2013_e4","KAWY2013_e4_1","ROAR",115,1,"Delayed",6,1122,"Include"
"KAWY2013_e4","KAWY2013_e4_1","AVENUE",116,0,"Delayed",1,1118,"Include"
"KAWY2013_e4","KAWY2013_e4_1","CIGAR",117,0,"Delayed",1,794,"Include"
"KAWY2013_e4","KAWY2013_e4_1","BAIL",118,0,"Delayed",2,2305,"Include"
"KAWY2013_e4","KAWY2013_e4_1","OYSTER",119,1,"Delayed",1,818,"Include"
"KAWY2013_e4","KAWY2013_e4_1","TURNER",120,0,"Delayed",1,888,"Include"
"KAWY2013_e4","KAWY2013_e4_1","JUNCTION",121,1,"Delayed",1,1150,"Include"
"KAWY2013_e4","KAWY2013_e4_1","WITNESS",122,1,"Delayed",5,1495,"Include"
"KAWY2013_e4","KAWY2013_e4_1","MERCURY",123,1,"Delayed",6,1253,"Include"
"KAWY2013_e4","KAWY2013_e4_1","HAMLET",124,0,"Delayed",5,3324,"Include"
"KAWY2013_e4","KAWY2013_e4_1","MEAT",125,0,"Delayed",1,982,"Include"
"KAWY2013_e4","KAWY2013_e4_1","OWNER",126,1,"Delayed",2,11719,"Include"
"KAWY2013_e4","KAWY2013_e4_1","CONE",127,0,"Delayed",1,823,"Include"
"KAWY2013_e4","KAWY2013_e4_1","CHAMPION",128,1,"Delayed",6,1022,"Include"
"KAWY2013_e4","KAWY2013_e4_1","REGISTER",129,0,"Delayed",1,2461,"Include"
"KAWY2013_e4","KAWY2013_e4_1","TEAR",130,0,"Delayed",1,711,"Include"
"KAWY2013_e4","KAWY2013_e4_1","ITCH",131,1,"Delayed",5,1506,"Include"
"KAWY2013_e4","KAWY2013_e4_1","FARE",132,0,"Delayed",5,992,"Include"
"KAWY2013_e4","KAWY2013_e4_1","TOMB",133,1,"Delayed",5,1057,"Include"
"KAWY2013_e4","KAWY2013_e4_1","HARDWARE",134,0,"Delayed",1,1263,"Include"
"KAWY2013_e4","KAWY2013_e4_1","STATUE",135,1,"Delayed",5,1638,"Include"
"KAWY2013_e4","KAWY2013_e4_1","KEEL",136,0,"Delayed",1,1135,"Include"
"KAWY2013_e4","KAWY2013_e4_1","LUMBER",137,0,"Delayed",1,1530,"Include"
"KAWY2013_e4","KAWY2013_e4_1","TOAST",138,0,"Delayed",1,662,"Include"
"KAWY2013_e4","KAWY2013_e4_1","CLOVER",139,0,"Delayed",1,595,"Include"
"KAWY2013_e4","KAWY2013_e4_1","EMPIRE",140,1,"Delayed",6,1123,"Include"
"KAWY2013_e4","KAWY2013_e4_1","RELIC",141,0,"Delayed",1,1087,"Include"
"KAWY2013_e4","KAWY2013_e4_1","AUTHOR",142,1,"Delayed",1,5436,"Include"
"KAWY2013_e4","KAWY2013_e4_1","WASTE",143,1,"Delayed",1,1479,"Include"
"KAWY2013_e4","KAWY2013_e4_1","BRANDY",144,0,"Delayed",1,1894,"Include"
"KAWY2013_e4","KAWY2013_e4_1","MAPLE",145,1,"Delayed",6,949,"Include"
"KAWY2013_e4","KAWY2013_e4_1","RING",146,1,"Delayed",1,2535,"Include"
"KAWY2013_e4","KAWY2013_e4_1","PLATE",147,1,"Delayed",5,1438,"Include"
"KAWY2013_e4","KAWY2013_e4_1","CRYSTAL",148,1,"Delayed",6,1742,"Include"
"KAWY2013_e4","KAWY2013_e4_1","CABLE",149,0,"Delayed",5,2899,"Include"
"KAWY2013_e4","KAWY2013_e4_1","CLOCK",150,1,"Delayed",5,1293,"Include"
"KAWY2013_e4","KAWY2013_e4_1","DEED",151,1,"Delayed",2,1282,"Include"
"KAWY2013_e4","KAWY2013_e4_1","LATCH",152,1,"Delayed",2,1640,"Include"
"KAWY2013_e4","KAWY2013_e4_1","PACKAGE",153,0,"Delayed",1,1120,"Include"
"KAWY2013_e4","KAWY2013_e4_1","SPADE",154,1,"Delayed",6,1468,"Include"
"KAWY2013_e4","KAWY2013_e4_1","SACK",155,0,"Delayed",1,1818,"Include"
"KAWY2013_e4","KAWY2013_e4_1","WIDOW",156,1,"Delayed",6,1069,"Include"
"KAWY2013_e4","KAWY2013_e4_1","BANG",157,1,"Delayed",6,1146,"Include"
"KAWY2013_e4","KAWY2013_e4_1","BLOSSOM",158,1,"Delayed",6,790,"Include"
"KAWY2013_e4","KAWY2013_e4_1","VERSE",159,1,"Delayed",2,1757,"Include"
"KAWY2013_e4","KAWY2013_e4_1","SKETCH",160,1,"Delayed",5,1746,"Include"
"KAWY2013_e4","KAWY2013_e4_1","MOISTURE",161,0,"Delayed",1,1606,"Include"
"KAWY2013_e4","KAWY2013_e4_1","FORK",162,1,"Delayed",5,1936,"Include"
"KAWY2013_e4","KAWY2013_e4_1","HUNT",163,1,"Delayed",2,7117,"Include"
"KAWY2013_e4","KAWY2013_e4_1","DIRT",164,1,"Delayed",5,3049,"Include"
"KAWY2013_e4","KAWY2013_e4_1","COACH",165,0,"Delayed",4,2221,"Include"
"KAWY2013_e4","KAWY2013_e4_1","WARRIOR",166,1,"Delayed",3,4496,"Include"
"KAWY2013_e4","KAWY2013_e4_1","SELF",167,1,"Delayed",2,3934,"Include"
"KAWY2013_e4","KAWY2013_e4_1","SWEEP",168,0,"Delayed",2,1041,"Include"
"KAWY2013_e4","KAWY2013_e4_1","SNAP",169,1,"Delayed",2,672,"Include"
"KAWY2013_e4","KAWY2013_e4_1","JUMP",170,1,"Delayed",2,764,"Include"
"KAWY2013_e4","KAWY2013_e4_1","LOBBY",171,0,"Delayed",2,4358,"Include"
"KAWY2013_e4","KAWY2013_e4_1","COMBINE",172,1,"Delayed",1,2665,"Include"
"KAWY2013_e4","KAWY2013_e4_1","MEDAL",173,1,"Delayed",5,2523,"Include"
"KAWY2013_e4","KAWY2013_e4_1","MAKER",174,0,"Delayed",1,1123,"Include"
"KAWY2013_e4","KAWY2013_e4_1","SEGMENT",175,1,"Delayed",1,815,"Include"
"KAWY2013_e4","KAWY2013_e4_1","SEAM",176,0,"Delayed",1,694,"Include"
"KAWY2013_e4","KAWY2013_e4_1","DUSK",177,1,"Delayed",5,1186,"Include"
"KAWY2013_e4","KAWY2013_e4_1","CREATURE",178,0,"Delayed",1,1067,"Include"
"KAWY2013_e4","KAWY2013_e4_1","FOUNTAIN",179,1,"Delayed",3,8457,"Include"
"KAWY2013_e4","KAWY2013_e4_1","POWDER",180,0,"Delayed",1,8898,"Include"
"KAWY2013_e4","KAWY2013_e4_1","HOOK",181,1,"Delayed",2,1245,"Include"
"KAWY2013_e4","KAWY2013_e4_1","BUCKET",182,0,"Delayed",5,1331,"Include"
"KAWY2013_e4","KAWY2013_e4_1","BARREL",183,1,"Delayed",5,1351,"Include"
"KAWY2013_e4","KAWY2013_e4_1","DANCER",184,0,"Delayed",2,1242,"Include"
"KAWY2013_e4","KAWY2013_e4_1","PATENT",185,1,"Delayed",5,1330,"Include"
"KAWY2013_e4","KAWY2013_e4_1","TICKET",186,0,"Delayed",1,1349,"Include"
"KAWY2013_e4","KAWY2013_e4_1","SCRATCH",187,0,"Delayed",1,1529,"Include"
"KAWY2013_e4","KAWY2013_e4_1","FUSE",188,0,"Delayed",1,870,"Include"
"KAWY2013_e4","KAWY2013_e4_1","CURVE",189,1,"Delayed",5,1515,"Include"
"KAWY2013_e4","KAWY2013_e4_1","FURNACE",190,1,"Delayed",1,1896,"Include"
"KAWY2013_e4","KAWY2013_e4_1","FLUSH",191,0,"Delayed",2,2246,"Include"
"KAWY2013_e4","KAWY2013_e4_1","SHOOT",192,1,"Delayed",5,1480,"Include"
"KAWY2013_e4","KAWY2013_e4_1","GRAVEL",193,1,"Delayed",2,1254,"Include"
"KAWY2013_e4","KAWY2013_e4_1","CART",194,1,"Delayed",2,14301,"Include"
"KAWY2013_e4","KAWY2013_e4_1","HARVEST",195,1,"Delayed",6,1533,"Include"
"KAWY2013_e4","KAWY2013_e4_1","BRUSH",196,0,"Delayed",2,2777,"Include"
"KAWY2013_e4","KAWY2013_e4_1","GRADUATE",197,0,"Delayed",5,1191,"Include"
"KAWY2013_e4","KAWY2013_e4_1","PASSAGE",198,0,"Delayed",1,1089,"Include"
"KAWY2013_e4","KAWY2013_e4_1","SWAMP",199,0,"Delayed",1,830,"Include"
"KAWY2013_e4","KAWY2013_e4_1","BADGE",200,0,"Delayed",5,1397,"Include"
"KAWY2013_e4","KAWY2013_e4_1","MARGIN",201,1,"Delayed",1,1014,"Include"
"KAWY2013_e4","KAWY2013_e4_1","KICK",202,1,"Delayed",5,1094,"Include"
"KAWY2013_e4","KAWY2013_e4_1","EXTERIOR",203,1,"Delayed",1,1411,"Include"
"KAWY2013_e4","KAWY2013_e4_1","PRAIRIE",204,1,"Delayed",1,996,"Include"
"KAWY2013_e4","KAWY2013_e4_1","RIBBON",205,1,"Delayed",1,1109,"Include"
"KAWY2013_e4","KAWY2013_e4_1","BRANCH",206,1,"Delayed",1,738,"Include"
"KAWY2013_e4","KAWY2013_e4_1","BONE",207,1,"Delayed",1,700,"Include"
"KAWY2013_e4","KAWY2013_e4_1","CASH",208,0,"Delayed",1,679,"Include"
"KAWY2013_e4","KAWY2013_e4_1","DECK",209,1,"Delayed",1,868,"Include"
"KAWY2013_e4","KAWY2013_e4_1","GOSPEL",210,0,"Delayed",1,809,"Include"
"KAWY2013_e4","KAWY2013_e4_1","JAIL",211,0,"Delayed",1,897,"Include"
"KAWY2013_e4","KAWY2013_e4_1","RAID",212,0,"Delayed",1,741,"Include"
"KAWY2013_e4","KAWY2013_e4_1","BARK",213,0,"Delayed",6,1359,"Include"
"KAWY2013_e4","KAWY2013_e4_1","TEMPLE",214,0,"Delayed",1,2114,"Include"
"KAWY2013_e4","KAWY2013_e4_1","BAYONET",215,1,"Delayed",6,809,"Include"
"KAWY2013_e4","KAWY2013_e4_1","BUTCHER",216,1,"Delayed",1,1857,"Include"
"KAWY2013_e4","KAWY2013_e4_1","CLIFF",217,1,"Delayed",5,1232,"Include"
"KAWY2013_e4","KAWY2013_e4_1","SOPRANO",218,1,"Delayed",1,2761,"Include"
"KAWY2013_e4","KAWY2013_e4_1","SUITE",219,1,"Delayed",6,2214,"Include"
"KAWY2013_e4","KAWY2013_e4_1","STEEL",220,0,"Delayed",2,2457,"Include"
"KAWY2013_e4","KAWY2013_e4_1","CARBON",221,0,"Delayed",6,1123,"Include"
"KAWY2013_e4","KAWY2013_e4_1","BUSH",222,0,"Delayed",2,3135,"Include"
"KAWY2013_e4","KAWY2013_e4_1","LENS",223,1,"Delayed",1,1024,"Include"
"KAWY2013_e4","KAWY2013_e4_1","BOWL",224,1,"Delayed",2,1008,"Include"
"KAWY2013_e4","KAWY2013_e4_1","EXPRESS",225,0,"Delayed",1,1808,"Include"
"KAWY2013_e4","KAWY2013_e4_1","EXHAUST",226,0,"Delayed",1,626,"Include"
"KAWY2013_e4","KAWY2013_e4_1","ACADEMY",227,1,"Delayed",6,1521,"Include"
"KAWY2013_e4","KAWY2013_e4_1","HEEL",228,1,"Delayed",1,2734,"Include"
"KAWY2013_e4","KAWY2013_e4_1","SOAP",229,0,"Delayed",1,1518,"Include"
"KAWY2013_e4","KAWY2013_e4_1","FOREHEAD",230,0,"Delayed",1,2315,"Include"
"KAWY2013_e4","KAWY2013_e4_1","BOND",231,1,"Delayed",1,698,"Include"
"KAWY2013_e4","KAWY2013_e4_1","DELTA",232,0,"Delayed",2,4246,"Include"
"KAWY2013_e4","KAWY2013_e4_1","GATE",233,1,"Delayed",1,1901,"Include"
"KAWY2013_e4","KAWY2013_e4_1","PALM",234,1,"Delayed",2,1244,"Include"
"KAWY2013_e4","KAWY2013_e4_1","PALETTE",235,1,"Delayed",6,1107,"Include"
"KAWY2013_e4","KAWY2013_e4_1","EDUCATOR",236,0,"Delayed",1,1696,"Include"
"KAWY2013_e4","KAWY2013_e4_1","POUND",237,0,"Delayed",1,1318,"Include"
"KAWY2013_e4","KAWY2013_e4_1","SCREAM",238,1,"Delayed",5,1322,"Include"
"KAWY2013_e4","KAWY2013_e4_1","MOSS",239,0,"Delayed",5,1519,"Include"
"KAWY2013_e4","KAWY2013_e4_1","BIOLOGY",240,0,"Delayed",5,1484,"Include"
"KAWY2013_e4","KAWY2013_e4_1","PRINCE",241,1,"Delayed",5,1146,"Include"
"KAWY2013_e4","KAWY2013_e4_1","SHELL",242,1,"Delayed",2,1813,"Include"
"KAWY2013_e4","KAWY2013_e4_1","CREW",243,0,"Delayed",4,2055,"Include"
"KAWY2013_e4","KAWY2013_e4_1","CHARTER",244,1,"Delayed",4,1888,"Include"
"KAWY2013_e4","KAWY2013_e4_1","MILEAGE",245,0,"Delayed",1,1087,"Include"
"KAWY2013_e4","KAWY2013_e4_1","AERIAL",246,0,"Delayed",1,2733,"Include"
"KAWY2013_e4","KAWY2013_e4_1","PEASANT",247,0,"Delayed",1,1532,"Include"
"KAWY2013_e4","KAWY2013_e4_1","MATE",248,0,"Delayed",5,1353,"Include"
"KAWY2013_e4","KAWY2013_e4_1","MANOR",249,1,"Delayed",1,2268,"Include"
"KAWY2013_e4","KAWY2013_e4_1","OXYGEN",250,0,"Delayed",5,2221,"Include"
"KAWY2013_e4","KAWY2013_e4_1","DRILL",251,1,"Delayed",5,1184,"Include"
"KAWY2013_e4","KAWY2013_e4_1","FABRIC",252,0,"Delayed",1,889,"Include"
"KAWY2013_e4","KAWY2013_e4_1","MECHANIC",253,1,"Delayed",1,1486,"Include"
"KAWY2013_e4","KAWY2013_e4_1","MONKEY",254,1,"Delayed",1,795,"Include"
"KAWY2013_e4","KAWY2013_e4_1","MISSILE",255,1,"Delayed",5,2644,"Include"
"KAWY2013_e4","KAWY2013_e4_1","FLASH",256,1,"Delayed",5,1415,"Include"
"KAWY2013_e4","KAWY2013_e4_1","SEAL",257,0,"Delayed",1,1415,"Include"
"KAWY2013_e4","KAWY2013_e4_1","STEAM",258,0,"Delayed",5,1079,"Include"
"KAWY2013_e4","KAWY2013_e4_1","PUMP",259,1,"Delayed",1,678,"Include"
"KAWY2013_e4","KAWY2013_e4_1","LODGE",260,0,"Delayed",2,2594,"Include"
"KAWY2013_e4","KAWY2013_e4_1","SALT",261,1,"Delayed",1,2358,"Include"
"KAWY2013_e4","KAWY2013_e4_1","FOIL",262,1,"Delayed",5,1428,"Include"
"KAWY2013_e4","KAWY2013_e4_1","VEIL",263,1,"Delayed",5,853,"Include"
"KAWY2013_e4","KAWY2013_e4_1","CAGE",264,0,"Delayed",4,5659,"Include"
"KAWY2013_e4","KAWY2013_e4_1","GUEST",265,0,"Delayed",2,2237,"Include"
"KAWY2013_e4","KAWY2013_e4_1","WOLF",266,1,"Delayed",1,928,"Include"
"KAWY2013_e4","KAWY2013_e4_1","BLADE",267,1,"Delayed",4,1363,"Include"
"KAWY2013_e4","KAWY2013_e4_1","SAVAGE",268,0,"Delayed",2,7782,"Include"
"KAWY2013_e4","KAWY2013_e4_1","PASTE",269,0,"Delayed",1,1001,"Include"
"KAWY2013_e4","KAWY2013_e4_1","COOK",270,0,"Delayed",1,761,"Include"
"KAWY2013_e4","KAWY2013_e4_1","CANDLE",271,1,"Delayed",1,722,"Include"
"KAWY2013_e4","KAWY2013_e4_1","WORKER",272,1,"Delayed",1,669,"Include"
"KAWY2013_e4","KAWY2013_e4_1","EMBRACE",273,1,"Delayed",5,1610,"Include"
"KAWY2013_e4","KAWY2013_e4_1","LOTION",274,0,"Delayed",1,1828,"Include"
"KAWY2013_e4","KAWY2013_e4_1","CHANNEL",275,0,"Delayed",5,1094,"Include"
"KAWY2013_e4","KAWY2013_e4_1","KEROSENE",276,0,"Delayed",1,851,"Include"
"KAWY2013_e4","KAWY2013_e4_1","VISITOR",277,0,"Delayed",1,2088,"Include"
"KAWY2013_e4","KAWY2013_e4_1","REBEL",278,0,"Delayed",1,1072,"Include"
"KAWY2013_e4","KAWY2013_e4_1","DOME",279,1,"Delayed",1,782,"Include"
"KAWY2013_e4","KAWY2013_e4_1","RIOT",280,1,"Delayed",6,1190,"Include"
"KAWY2013_e4","KAWY2013_e4_1","CORN",281,0,"Delayed",5,1600,"Include"
"KAWY2013_e4","KAWY2013_e4_1","SMOKE",282,1,"Delayed",1,810,"Include"
"KAWY2013_e4","KAWY2013_e4_1","VIOLET",283,1,"Delayed",1,929,"Include"
"KAWY2013_e4","KAWY2013_e4_1","SHOVEL",284,1,"Delayed",5,1733,"Include"
"KAWY2013_e4","KAWY2013_e4_1","RAMP",285,1,"Delayed",1,1546,"Include"
"KAWY2013_e4","KAWY2013_e4_1","MINK",286,1,"Delayed",5,950,"Include"
"KAWY2013_e4","KAWY2013_e4_1","TROOP",287,0,"Delayed",2,2168,"Include"
"KAWY2013_e4","KAWY2013_e4_1","PLAIN",288,1,"Delayed",5,1181,"Include"
"KAWY2013_e4","KAWY2013_e4_1","SERVANT",289,1,"Delayed",1,1846,"Include"
"KAWY2013_e4","KAWY2013_e4_1","FISH",290,0,"Delayed",1,887,"Include"
"KAWY2013_e4","KAWY2013_e4_1","DISASTER",291,1,"Delayed",5,2779,"Include"
"KAWY2013_e4","KAWY2013_e4_1","FATIGUE",292,1,"Delayed",2,8888,"Include"
"KAWY2013_e4","KAWY2013_e4_1","PLUMB",293,1,"Delayed",5,2418,"Include"
"KAWY2013_e4","KAWY2013_e4_1","CURB",294,0,"Delayed",1,1742,"Include"
"KAWY2013_e4","KAWY2013_e4_1","PUPIL",295,0,"Delayed",1,931,"Include"
"KAWY2013_e4","KAWY2013_e4_1","CLOUD",296,1,"Delayed",5,5365,"Include"
"KAWY2013_e4","KAWY2013_e4_1","PRIZE",297,1,"Delayed",2,1587,"Include"
"KAWY2013_e4","KAWY2013_e4_1","CORAL",298,1,"Delayed",5,2525,"Include"
"KAWY2013_e4","KAWY2013_e4_1","BEAST",299,1,"Delayed",5,4485,"Include"
"KAWY2013_e4","KAWY2013_e4_1","IODINE",300,1,"Delayed",6,900,"Include"
"KAWY2013_e4","KAWY2013_e4_2","POCKET",1,0,"Immediate",5,3478,"Include"
"KAWY2013_e4","KAWY2013_e4_2","SCHOLAR",2,0,"Immediate",6,3322,"Include"
"KAWY2013_e4","KAWY2013_e4_2","BOWL",3,0,"Immediate",4,2532,"Include"
"KAWY2013_e4","KAWY2013_e4_2","SALAD",4,1,"Immediate",6,1931,"Include"
"KAWY2013_e4","KAWY2013_e4_2","EMBRACE",5,0,"Immediate",4,4537,"Include"
"KAWY2013_e4","KAWY2013_e4_2","CHAMPION",6,0,"Immediate",6,3205,"Include"
"KAWY2013_e4","KAWY2013_e4_2","PASTOR",7,1,"Immediate",6,1044,"Include"
"KAWY2013_e4","KAWY2013_e4_2","MISSILE",8,0,"Immediate",3,3747,"Include"
"KAWY2013_e4","KAWY2013_e4_2","BOOTH",9,1,"Immediate",6,2284,"Include"
"KAWY2013_e4","KAWY2013_e4_2","BOND",10,0,"Immediate",5,3293,"Include"
"KAWY2013_e4","KAWY2013_e4_2","DISASTER",11,0,"Immediate",5,3735,"Include"
"KAWY2013_e4","KAWY2013_e4_2","LEATHER",12,1,"Immediate",6,2034,"Include"
"KAWY2013_e4","KAWY2013_e4_2","BRANCH",13,0,"Immediate",4,2460,"Include"
"KAWY2013_e4","KAWY2013_e4_2","PUMP",14,0,"Immediate",4,1558,"Include"
"KAWY2013_e4","KAWY2013_e4_2","MERCURY",15,0,"Immediate",3,2514,"Include"
"KAWY2013_e4","KAWY2013_e4_2","BABE",16,1,"Immediate",6,2169,"Include"
"KAWY2013_e4","KAWY2013_e4_2","HERB",17,1,"Immediate",6,3054,"Include"
"KAWY2013_e4","KAWY2013_e4_2","SERGEANT",18,1,"Immediate",2,2481,"Include"
"KAWY2013_e4","KAWY2013_e4_2","STATUE",19,0,"Immediate",4,3402,"Include"
"KAWY2013_e4","KAWY2013_e4_2","PEPPER",20,0,"Immediate",5,4481,"Include"
"KAWY2013_e4","KAWY2013_e4_2","BATH",21,0,"Immediate",4,6623,"Include"
"KAWY2013_e4","KAWY2013_e4_2","TOLL",22,0,"Immediate",2,3566,"Include"
"KAWY2013_e4","KAWY2013_e4_2","SELLER",23,1,"Immediate",6,5199,"Include"
"KAWY2013_e4","KAWY2013_e4_2","PRIZE",24,0,"Immediate",3,3330,"Include"
"KAWY2013_e4","KAWY2013_e4_2","COMFORT",25,1,"Immediate",5,2588,"Include"
"KAWY2013_e4","KAWY2013_e4_2","RESORT",26,1,"Immediate",6,7313,"Include"
"KAWY2013_e4","KAWY2013_e4_2","FERRY",27,1,"Immediate",6,2358,"Include"
"KAWY2013_e4","KAWY2013_e4_2","LATCH",28,0,"Immediate",2,2388,"Include"
"KAWY2013_e4","KAWY2013_e4_2","KICK",29,0,"Immediate",3,2641,"Include"
"KAWY2013_e4","KAWY2013_e4_2","BISHOP",30,0,"Immediate",3,6932,"Include"
"KAWY2013_e4","KAWY2013_e4_2","RIBBON",31,0,"Immediate",2,2919,"Include"
"KAWY2013_e4","KAWY2013_e4_2","ANCHOR",32,1,"Immediate",6,1904,"Include"
"KAWY2013_e4","KAWY2013_e4_2","CRADLE",33,1,"Immediate",4,6686,"Include"
"KAWY2013_e4","KAWY2013_e4_2","WIDOW",34,0,"Immediate",5,2954,"Include"
"KAWY2013_e4","KAWY2013_e4_2","EDITION",35,1,"Immediate",6,1394,"Include"
"KAWY2013_e4","KAWY2013_e4_2","WILLOW",36,1,"Immediate",2,3267,"Include"
"KAWY2013_e4","KAWY2013_e4_2","BANG",37,0,"Immediate",2,1487,"Include"
"KAWY2013_e4","KAWY2013_e4_2","MOVIE",38,0,"Immediate",2,1245,"Include"
"KAWY2013_e4","KAWY2013_e4_2","FOIL",39,0,"Immediate",2,901,"Include"
"KAWY2013_e4","KAWY2013_e4_2","DIRT",40,0,"Immediate",2,2281,"Include"
"KAWY2013_e4","KAWY2013_e4_2","TUBE",41,0,"Immediate",2,1097,"Include"
"KAWY2013_e4","KAWY2013_e4_2","SLICE",42,1,"Immediate",2,1605,"Include"
"KAWY2013_e4","KAWY2013_e4_2","POPE",43,1,"Immediate",6,2175,"Include"
"KAWY2013_e4","KAWY2013_e4_2","CIRCUS",44,1,"Immediate",4,6388,"Include"
"KAWY2013_e4","KAWY2013_e4_2","BALLOT",45,1,"Immediate",4,1595,"Include"
"KAWY2013_e4","KAWY2013_e4_2","BURIAL",46,1,"Immediate",6,2838,"Include"
"KAWY2013_e4","KAWY2013_e4_2","CHOIR",47,1,"Immediate",6,3362,"Include"
"KAWY2013_e4","KAWY2013_e4_2","FREIGHT",48,0,"Immediate",3,2858,"Include"
"KAWY2013_e4","KAWY2013_e4_2","MORTAL",49,0,"Immediate",3,2357,"Include"
"KAWY2013_e4","KAWY2013_e4_2","ROUTE",50,1,"Immediate",6,1603,"Include"
"KAWY2013_e4","KAWY2013_e4_2","SLIP",51,0,"Immediate",5,2525,"Include"
"KAWY2013_e4","KAWY2013_e4_2","RABBI",52,1,"Immediate",6,1845,"Include"
"KAWY2013_e4","KAWY2013_e4_2","DISC",53,1,"Immediate",6,1030,"Include"
"KAWY2013_e4","KAWY2013_e4_2","SALARY",54,1,"Immediate",6,1126,"Include"
"KAWY2013_e4","KAWY2013_e4_2","OYSTER",55,0,"Immediate",1,3969,"Include"
"KAWY2013_e4","KAWY2013_e4_2","DOME",56,0,"Immediate",2,4611,"Include"
"KAWY2013_e4","KAWY2013_e4_2","HAZE",57,0,"Immediate",2,1821,"Include"
"KAWY2013_e4","KAWY2013_e4_2","HARVEST",58,0,"Immediate",5,2223,"Include"
"KAWY2013_e4","KAWY2013_e4_2","BONE",59,0,"Immediate",5,1634,"Include"
"KAWY2013_e4","KAWY2013_e4_2","COAL",60,1,"Immediate",5,826,"Include"
"KAWY2013_e4","KAWY2013_e4_2","COLONY",61,1,"Immediate",6,2929,"Include"
"KAWY2013_e4","KAWY2013_e4_2","SHOE",62,1,"Immediate",2,2137,"Include"
"KAWY2013_e4","KAWY2013_e4_2","RECITAL",63,1,"Immediate",2,1071,"Include"
"KAWY2013_e4","KAWY2013_e4_2","MANOR",64,0,"Immediate",2,941,"Include"
"KAWY2013_e4","KAWY2013_e4_2","ESSAY",65,1,"Immediate",6,1424,"Include"
"KAWY2013_e4","KAWY2013_e4_2","SEGMENT",66,0,"Immediate",2,1536,"Include"
"KAWY2013_e4","KAWY2013_e4_2","CRYSTAL",67,0,"Immediate",2,925,"Include"
"KAWY2013_e4","KAWY2013_e4_2","SERVANT",68,0,"Immediate",2,639,"Include"
"KAWY2013_e4","KAWY2013_e4_2","STRIDE",69,1,"Immediate",2,749,"Include"
"KAWY2013_e4","KAWY2013_e4_2","PORCH",70,0,"Immediate",2,663,"Include"
"KAWY2013_e4","KAWY2013_e4_2","LANE",71,0,"Immediate",2,580,"Include"
"KAWY2013_e4","KAWY2013_e4_2","RAMP",72,0,"Immediate",2,1796,"Include"
"KAWY2013_e4","KAWY2013_e4_2","HUNT",73,0,"Immediate",2,1047,"Include"
"KAWY2013_e4","KAWY2013_e4_2","DYNASTY",74,1,"Immediate",6,1414,"Include"
"KAWY2013_e4","KAWY2013_e4_2","HIND",75,1,"Immediate",3,6934,"Include"
"KAWY2013_e4","KAWY2013_e4_2","SODIUM",76,1,"Immediate",5,6441,"Include"
"KAWY2013_e4","KAWY2013_e4_2","FURNACE",77,0,"Immediate",3,2782,"Include"
"KAWY2013_e4","KAWY2013_e4_2","RIDGE",78,0,"Immediate",3,1420,"Include"
"KAWY2013_e4","KAWY2013_e4_2","CART",79,0,"Immediate",3,813,"Include"
"KAWY2013_e4","KAWY2013_e4_2","ENVELOPE",80,1,"Immediate",3,709,"Include"
"KAWY2013_e4","KAWY2013_e4_2","GRAVEL",81,0,"Immediate",3,480,"Include"
"KAWY2013_e4","KAWY2013_e4_2","TOOL",82,1,"Immediate",6,3092,"Include"
"KAWY2013_e4","KAWY2013_e4_2","COMBINE",83,0,"Immediate",3,3030,"Include"
"KAWY2013_e4","KAWY2013_e4_2","CLOCK",84,0,"Immediate",5,5019,"Include"
"KAWY2013_e4","KAWY2013_e4_2","FLEET",85,1,"Immediate",5,3941,"Include"
"KAWY2013_e4","KAWY2013_e4_2","SPRUCE",86,1,"Immediate",6,1384,"Include"
"KAWY2013_e4","KAWY2013_e4_2","BATON",87,0,"Immediate",3,3386,"Include"
"KAWY2013_e4","KAWY2013_e4_2","BARREL",88,0,"Immediate",5,2865,"Include"
"KAWY2013_e4","KAWY2013_e4_2","CARPET",89,1,"Immediate",5,1580,"Include"
"KAWY2013_e4","KAWY2013_e4_2","WRECK",90,1,"Immediate",5,1318,"Include"
"KAWY2013_e4","KAWY2013_e4_2","MONUMENT",91,1,"Immediate",5,1307,"Include"
"KAWY2013_e4","KAWY2013_e4_2","CHARTER",92,0,"Immediate",2,2544,"Include"
"KAWY2013_e4","KAWY2013_e4_2","JUMP",93,0,"Immediate",4,4278,"Include"
"KAWY2013_e4","KAWY2013_e4_2","COTTAGE",94,1,"Immediate",5,2219,"Include"
"KAWY2013_e4","KAWY2013_e4_2","PLATE",95,0,"Immediate",3,4382,"Include"
"KAWY2013_e4","KAWY2013_e4_2","RAKE",96,0,"Immediate",3,976,"Include"
"KAWY2013_e4","KAWY2013_e4_2","BOOT",97,1,"Immediate",3,866,"Include"
"KAWY2013_e4","KAWY2013_e4_2","HOOD",98,1,"Immediate",6,1687,"Include"
"KAWY2013_e4","KAWY2013_e4_2","SMOKE",99,0,"Immediate",3,5678,"Include"
"KAWY2013_e4","KAWY2013_e4_2","PLUMB",100,0,"Immediate",3,2544,"Include"
"KAWY2013_e4","KAWY2013_e4_2","LENS",101,0,"Immediate",3,1014,"Include"
"KAWY2013_e4","KAWY2013_e4_2","PARADE",102,0,"Immediate",3,838,"Include"
"KAWY2013_e4","KAWY2013_e4_2","SOLDIER",103,1,"Immediate",6,2492,"Include"
"KAWY2013_e4","KAWY2013_e4_2","WRAP",104,1,"Immediate",4,4469,"Include"
"KAWY2013_e4","KAWY2013_e4_2","CORAL",105,0,"Immediate",4,6756,"Include"
"KAWY2013_e4","KAWY2013_e4_2","HYMN",106,1,"Immediate",6,1550,"Include"
"KAWY2013_e4","KAWY2013_e4_2","MINERAL",107,0,"Immediate",4,6026,"Include"
"KAWY2013_e4","KAWY2013_e4_2","PUNCH",108,1,"Immediate",6,2799,"Include"
"KAWY2013_e4","KAWY2013_e4_2","LUNCH",109,1,"Immediate",3,1772,"Include"
"KAWY2013_e4","KAWY2013_e4_2","PALETTE",110,0,"Immediate",1,2447,"Include"
"KAWY2013_e4","KAWY2013_e4_2","VIOLET",111,0,"Immediate",2,6346,"Include"
"KAWY2013_e4","KAWY2013_e4_2","FATIGUE",112,0,"Immediate",3,1843,"Include"
"KAWY2013_e4","KAWY2013_e4_2","DUSK",113,0,"Immediate",6,6004,"Include"
"KAWY2013_e4","KAWY2013_e4_2","MINK",114,0,"Immediate",2,2329,"Include"
"KAWY2013_e4","KAWY2013_e4_2","SHEAR",115,1,"Immediate",1,2087,"Include"
"KAWY2013_e4","KAWY2013_e4_2","VEIL",116,0,"Immediate",3,3791,"Include"
"KAWY2013_e4","KAWY2013_e4_2","BUILDER",117,0,"Immediate",3,2583,"Include"
"KAWY2013_e4","KAWY2013_e4_2","STEEPLE",118,1,"Immediate",6,2220,"Include"
"KAWY2013_e4","KAWY2013_e4_2","NICKEL",119,1,"Immediate",6,3311,"Include"
"KAWY2013_e4","KAWY2013_e4_2","NEPHEW",120,1,"Immediate",4,5401,"Include"
"KAWY2013_e4","KAWY2013_e4_2","BRUTE",121,1,"Immediate",5,5221,"Include"
"KAWY2013_e4","KAWY2013_e4_2","ACADEMY",122,0,"Immediate",5,1400,"Include"
"KAWY2013_e4","KAWY2013_e4_2","PRAIRIE",123,0,"Immediate",2,2057,"Include"
"KAWY2013_e4","KAWY2013_e4_2","PLAIN",124,0,"Immediate",4,2786,"Include"
"KAWY2013_e4","KAWY2013_e4_2","COUCH",125,1,"Immediate",6,3536,"Include"
"KAWY2013_e4","KAWY2013_e4_2","DRIZZLE",126,1,"Immediate",6,962,"Include"
"KAWY2013_e4","KAWY2013_e4_2","BEAST",127,0,"Immediate",5,6868,"Include"
"KAWY2013_e4","KAWY2013_e4_2","APERTURE",128,1,"Immediate",6,1593,"Include"
"KAWY2013_e4","KAWY2013_e4_2","SWIM",129,0,"Immediate",2,2100,"Include"
"KAWY2013_e4","KAWY2013_e4_2","CLOUD",130,0,"Immediate",4,2795,"Include"
"KAWY2013_e4","KAWY2013_e4_2","AXLE",131,1,"Immediate",6,1592,"Include"
"KAWY2013_e4","KAWY2013_e4_2","COIN",132,1,"Immediate",5,2211,"Include"
"KAWY2013_e4","KAWY2013_e4_2","BRASS",133,0,"Immediate",4,5014,"Include"
"KAWY2013_e4","KAWY2013_e4_2","FLASH",134,0,"Immediate",4,1425,"Include"
"KAWY2013_e4","KAWY2013_e4_2","JOCKEY",135,1,"Immediate",2,1954,"Include"
"KAWY2013_e4","KAWY2013_e4_2","SCREAM",136,0,"Immediate",2,2927,"Include"
"KAWY2013_e4","KAWY2013_e4_2","SHOVEL",137,0,"Immediate",6,1575,"Include"
"KAWY2013_e4","KAWY2013_e4_2","LOCK",138,1,"Immediate",6,2130,"Include"
"KAWY2013_e4","KAWY2013_e4_2","IODINE",139,0,"Immediate",5,3032,"Include"
"KAWY2013_e4","KAWY2013_e4_2","NEST",140,1,"Immediate",5,2956,"Include"
"KAWY2013_e4","KAWY2013_e4_2","MUTTON",141,1,"Immediate",4,5219,"Include"
"KAWY2013_e4","KAWY2013_e4_2","STROKE",142,0,"Immediate",3,1846,"Include"
"KAWY2013_e4","KAWY2013_e4_2","SWELL",143,1,"Immediate",4,2646,"Include"
"KAWY2013_e4","KAWY2013_e4_2","SILVER",144,1,"Immediate",4,2233,"Include"
"KAWY2013_e4","KAWY2013_e4_2","RIOT",145,0,"Immediate",3,1131,"Include"
"KAWY2013_e4","KAWY2013_e4_2","QUEEN",146,0,"Immediate",3,3719,"Include"
"KAWY2013_e4","KAWY2013_e4_2","BAYONET",147,0,"Immediate",3,898,"Include"
"KAWY2013_e4","KAWY2013_e4_2","ACCIDENT",148,1,"Immediate",6,1382,"Include"
"KAWY2013_e4","KAWY2013_e4_2","CAFE",149,1,"Immediate",4,9400,"Include"
"KAWY2013_e4","KAWY2013_e4_2","GARMENT",150,0,"Immediate",2,1982,"Include"
"KAWY2013_e4","KAWY2013_e4_2","CURVE",151,0,"Immediate",2,874,"Include"
"KAWY2013_e4","KAWY2013_e4_2","SHOOT",152,0,"Immediate",4,2335,"Include"
"KAWY2013_e4","KAWY2013_e4_2","CANDLE",153,0,"Immediate",3,4078,"Include"
"KAWY2013_e4","KAWY2013_e4_2","ASSAULT",154,1,"Immediate",6,2955,"Include"
"KAWY2013_e4","KAWY2013_e4_2","MOLECULE",155,0,"Immediate",5,1859,"Include"
"KAWY2013_e4","KAWY2013_e4_2","AUTHOR",156,0,"Immediate",4,1715,"Include"
"KAWY2013_e4","KAWY2013_e4_2","ROBBERY",157,1,"Immediate",6,1721,"Include"
"KAWY2013_e4","KAWY2013_e4_2","BUNCH",158,1,"Immediate",4,6718,"Include"
"KAWY2013_e4","KAWY2013_e4_2","JUICE",159,1,"Immediate",3,2153,"Include"
"KAWY2013_e4","KAWY2013_e4_2","LUNG",160,0,"Immediate",2,975,"Include"
"KAWY2013_e4","KAWY2013_e4_2","DEPUTY",161,1,"Immediate",5,2256,"Include"
"KAWY2013_e4","KAWY2013_e4_2","ALBUMIN",162,1,"Immediate",5,4930,"Include"
"KAWY2013_e4","KAWY2013_e4_2","PALACE",163,1,"Immediate",6,1679,"Include"
"KAWY2013_e4","KAWY2013_e4_2","HIDE",164,1,"Immediate",3,1557,"Include"
"KAWY2013_e4","KAWY2013_e4_2","CHEEK",165,1,"Immediate",3,3153,"Include"
"KAWY2013_e4","KAWY2013_e4_2","SWORD",166,1,"Immediate",4,1505,"Include"
"KAWY2013_e4","KAWY2013_e4_2","BLOOM",167,0,"Immediate",3,2959,"Include"
"KAWY2013_e4","KAWY2013_e4_2","SHADOW",168,1,"Immediate",3,9990,"Include"
"KAWY2013_e4","KAWY2013_e4_2","EMPIRE",169,0,"Immediate",4,1142,"Include"
"KAWY2013_e4","KAWY2013_e4_2","WITCH",170,1,"Immediate",6,1650,"Include"
"KAWY2013_e4","KAWY2013_e4_2","CARRIAGE",171,1,"Immediate",6,4938,"Include"
"KAWY2013_e4","KAWY2013_e4_2","IRON",172,1,"Immediate",6,3063,"Include"
"KAWY2013_e4","KAWY2013_e4_2","ERRAND",173,0,"Immediate",2,1562,"Include"
"KAWY2013_e4","KAWY2013_e4_2","SUPPER",174,1,"Immediate",2,2022,"Include"
"KAWY2013_e4","KAWY2013_e4_2","LIQUID",175,1,"Immediate",6,5168,"Include"
"KAWY2013_e4","KAWY2013_e4_2","MONKEY",176,0,"Immediate",2,1669,"Include"
"KAWY2013_e4","KAWY2013_e4_2","BERRY",177,0,"Immediate",2,749,"Include"
"KAWY2013_e4","KAWY2013_e4_2","ALGAE",178,0,"Immediate",2,742,"Include"
"KAWY2013_e4","KAWY2013_e4_2","SUITE",179,0,"Immediate",2,848,"Include"
"KAWY2013_e4","KAWY2013_e4_2","SLEEVE",180,1,"Immediate",5,3958,"Include"
"KAWY2013_e4","KAWY2013_e4_2","TOMB",181,0,"Immediate",2,1672,"Include"
"KAWY2013_e4","KAWY2013_e4_2","ANTIQUE",182,1,"Immediate",6,2703,"Include"
"KAWY2013_e4","KAWY2013_e4_2","MAHOGANY",183,1,"Immediate",4,6272,"Include"
"KAWY2013_e4","KAWY2013_e4_2","PALM",184,0,"Immediate",3,1532,"Include"
"KAWY2013_e4","KAWY2013_e4_2","SALT",185,0,"Immediate",3,1784,"Include"
"KAWY2013_e4","KAWY2013_e4_2","BOSS",186,1,"Immediate",5,1498,"Include"
"KAWY2013_e4","KAWY2013_e4_2","RESIDUE",187,1,"Immediate",6,1577,"Include"
"KAWY2013_e4","KAWY2013_e4_2","DAMAGE",188,1,"Immediate",6,1396,"Include"
"KAWY2013_e4","KAWY2013_e4_2","MUSCLE",189,1,"Immediate",6,2245,"Include"
"KAWY2013_e4","KAWY2013_e4_2","BLOSSOM",190,0,"Immediate",2,2375,"Include"
"KAWY2013_e4","KAWY2013_e4_2","WARRIOR",191,0,"Immediate",2,1364,"Include"
"KAWY2013_e4","KAWY2013_e4_2","ACRE",192,1,"Immediate",6,2598,"Include"
"KAWY2013_e4","KAWY2013_e4_2","SHELL",193,0,"Immediate",3,2459,"Include"
"KAWY2013_e4","KAWY2013_e4_2","STAR",194,1,"Immediate",3,1189,"Include"
"KAWY2013_e4","KAWY2013_e4_2","SNAP",195,0,"Immediate",3,1199,"Include"
"KAWY2013_e4","KAWY2013_e4_2","NAVY",196,0,"Immediate",3,1287,"Include"
"KAWY2013_e4","KAWY2013_e4_2","WASTE",197,0,"Immediate",3,877,"Include"
"KAWY2013_e4","KAWY2013_e4_2","MEDAL",198,0,"Immediate",3,706,"Include"
"KAWY2013_e4","KAWY2013_e4_2","GANG",199,0,"Immediate",3,526,"Include"
"KAWY2013_e4","KAWY2013_e4_2","BUTCHER",200,0,"Immediate",3,912,"Include"
"KAWY2013_e4","KAWY2013_e4_2","SPHERE",201,1,"Immediate",6,1444,"Include"
"KAWY2013_e4","KAWY2013_e4_2","THIEF",202,1,"Immediate",6,3300,"Include"
"KAWY2013_e4","KAWY2013_e4_2","COFFIN",203,1,"Immediate",4,3391,"Include"
"KAWY2013_e4","KAWY2013_e4_2","SMELL",204,1,"Immediate",5,4822,"Include"
"KAWY2013_e4","KAWY2013_e4_2","PIONEER",205,1,"Immediate",6,1384,"Include"
"KAWY2013_e4","KAWY2013_e4_2","ECHO",206,0,"Immediate",2,1705,"Include"
"KAWY2013_e4","KAWY2013_e4_2","COMPACT",207,1,"Immediate",5,3120,"Include"
"KAWY2013_e4","KAWY2013_e4_2","CHIN",208,1,"Immediate",5,3217,"Include"
"KAWY2013_e4","KAWY2013_e4_2","MUSICIAN",209,1,"Immediate",4,3103,"Include"
"KAWY2013_e4","KAWY2013_e4_2","WOUND",210,1,"Immediate",6,1953,"Include"
"KAWY2013_e4","KAWY2013_e4_2","DONOR",211,1,"Immediate",5,2254,"Include"
"KAWY2013_e4","KAWY2013_e4_2","LOAD",212,0,"Immediate",4,2367,"Include"
"KAWY2013_e4","KAWY2013_e4_2","MAST",213,1,"Immediate",3,893,"Include"
"KAWY2013_e4","KAWY2013_e4_2","MECHANIC",214,0,"Immediate",5,3009,"Include"
"KAWY2013_e4","KAWY2013_e4_2","PATENT",215,0,"Immediate",3,3286,"Include"
"KAWY2013_e4","KAWY2013_e4_2","STRANGER",216,1,"Immediate",6,1954,"Include"
"KAWY2013_e4","KAWY2013_e4_2","MENU",217,1,"Immediate",6,1198,"Include"
"KAWY2013_e4","KAWY2013_e4_2","WIRE",218,1,"Immediate",6,999,"Include"
"KAWY2013_e4","KAWY2013_e4_2","DRIVER",219,1,"Immediate",3,1751,"Include"
"KAWY2013_e4","KAWY2013_e4_2","JUNCTION",220,0,"Immediate",3,1436,"Include"
"KAWY2013_e4","KAWY2013_e4_2","DRAIN",221,0,"Immediate",3,923,"Include"
"KAWY2013_e4","KAWY2013_e4_2","VESSEL",222,1,"Immediate",5,1679,"Include"
"KAWY2013_e4","KAWY2013_e4_2","OWNER",223,0,"Immediate",2,5525,"Include"
"KAWY2013_e4","KAWY2013_e4_2","DECK",224,0,"Immediate",2,1837,"Include"
"KAWY2013_e4","KAWY2013_e4_2","MANKIND",225,1,"Immediate",2,638,"Include"
"KAWY2013_e4","KAWY2013_e4_2","PROP",226,1,"Immediate",2,1820,"Include"
"KAWY2013_e4","KAWY2013_e4_2","GOWN",227,1,"Immediate",2,3678,"Include"
"KAWY2013_e4","KAWY2013_e4_2","PLUG",228,1,"Immediate",6,2186,"Include"
"KAWY2013_e4","KAWY2013_e4_2","TWEED",229,1,"Immediate",6,958,"Include"
"KAWY2013_e4","KAWY2013_e4_2","CUSTOMER",230,1,"Immediate",6,3376,"Include"
"KAWY2013_e4","KAWY2013_e4_2","DEED",231,0,"Immediate",1,2488,"Include"
"KAWY2013_e4","KAWY2013_e4_2","PRISONER",232,1,"Immediate",6,1745,"Include"
"KAWY2013_e4","KAWY2013_e4_2","LAWN",233,1,"Immediate",3,3654,"Include"
"KAWY2013_e4","KAWY2013_e4_2","LIMP",234,1,"Immediate",5,2403,"Include"
"KAWY2013_e4","KAWY2013_e4_2","EXTERIOR",235,0,"Immediate",2,2719,"Include"
"KAWY2013_e4","KAWY2013_e4_2","PEER",236,1,"Immediate",2,5184,"Include"
"KAWY2013_e4","KAWY2013_e4_2","TAPE",237,1,"Immediate",6,1732,"Include"
"KAWY2013_e4","KAWY2013_e4_2","BUCKLE",238,0,"Immediate",4,3033,"Include"
"KAWY2013_e4","KAWY2013_e4_2","BREEZE",239,1,"Immediate",6,1966,"Include"
"KAWY2013_e4","KAWY2013_e4_2","TENNIS",240,1,"Immediate",6,2858,"Include"
"KAWY2013_e4","KAWY2013_e4_2","LESSON",241,0,"Immediate",4,5061,"Include"
"KAWY2013_e4","KAWY2013_e4_2","STAKE",242,0,"Immediate",2,2590,"Include"
"KAWY2013_e4","KAWY2013_e4_2","WHIP",243,1,"Immediate",6,1955,"Include"
"KAWY2013_e4","KAWY2013_e4_2","SELF",244,0,"Immediate",6,1232,"Include"
"KAWY2013_e4","KAWY2013_e4_2","OVEN",245,1,"Immediate",6,888,"Include"
"KAWY2013_e4","KAWY2013_e4_2","CLOTH",246,1,"Immediate",4,3132,"Include"
"KAWY2013_e4","KAWY2013_e4_2","BOLT",247,1,"Immediate",4,892,"Include"
"KAWY2013_e4","KAWY2013_e4_2","ROOT",248,1,"Immediate",6,1474,"Include"
"KAWY2013_e4","KAWY2013_e4_2","ITCH",249,0,"Immediate",2,3295,"Include"
"KAWY2013_e4","KAWY2013_e4_2","DELL",250,1,"Immediate",2,2666,"Include"
"KAWY2013_e4","KAWY2013_e4_2","CITATION",251,1,"Immediate",6,1644,"Include"
"KAWY2013_e4","KAWY2013_e4_2","SAINT",252,1,"Immediate",6,1029,"Include"
"KAWY2013_e4","KAWY2013_e4_2","DOORWAY",253,0,"Immediate",2,2884,"Include"
"KAWY2013_e4","KAWY2013_e4_2","KISS",254,1,"Immediate",6,2318,"Include"
"KAWY2013_e4","KAWY2013_e4_2","RING",255,0,"Immediate",3,4446,"Include"
"KAWY2013_e4","KAWY2013_e4_2","PORTRAIT",256,1,"Immediate",5,4797,"Include"
"KAWY2013_e4","KAWY2013_e4_2","ARROW",257,1,"Immediate",6,1232,"Include"
"KAWY2013_e4","KAWY2013_e4_2","MARGIN",258,0,"Immediate",2,1896,"Include"
"KAWY2013_e4","KAWY2013_e4_2","SCENT",259,1,"Immediate",5,2678,"Include"
"KAWY2013_e4","KAWY2013_e4_2","PARISH",260,1,"Immediate",5,1832,"Include"
"KAWY2013_e4","KAWY2013_e4_2","HEEL",261,0,"Immediate",5,905,"Include"
"KAWY2013_e4","KAWY2013_e4_2","TIRE",262,0,"Immediate",5,749,"Include"
"KAWY2013_e4","KAWY2013_e4_2","KNIGHT",263,1,"Immediate",5,839,"Include"
"KAWY2013_e4","KAWY2013_e4_2","PORT",264,0,"Immediate",3,1965,"Include"
"KAWY2013_e4","KAWY2013_e4_2","GIFT",265,0,"Immediate",3,2169,"Include"
"KAWY2013_e4","KAWY2013_e4_2","SAUCE",266,1,"Immediate",3,1102,"Include"
"KAWY2013_e4","KAWY2013_e4_2","TRUNK",267,1,"Immediate",6,2267,"Include"
"KAWY2013_e4","KAWY2013_e4_2","DRILL",268,0,"Immediate",3,4412,"Include"
"KAWY2013_e4","KAWY2013_e4_2","ROAR",269,0,"Immediate",3,1165,"Include"
"KAWY2013_e4","KAWY2013_e4_2","RANCH",270,0,"Immediate",3,823,"Include"
"KAWY2013_e4","KAWY2013_e4_2","INFANTRY",271,1,"Immediate",3,814,"Include"
"KAWY2013_e4","KAWY2013_e4_2","PECK",272,1,"Immediate",6,2229,"Include"
"KAWY2013_e4","KAWY2013_e4_2","WITNESS",273,0,"Immediate",4,3784,"Include"
"KAWY2013_e4","KAWY2013_e4_2","FOUNTAIN",274,0,"Immediate",4,6032,"Include"
"KAWY2013_e4","KAWY2013_e4_2","COPPER",275,1,"Immediate",4,2261,"Include"
"KAWY2013_e4","KAWY2013_e4_2","STEM",276,0,"Immediate",4,1606,"Include"
"KAWY2013_e4","KAWY2013_e4_2","HOOK",277,0,"Immediate",4,960,"Include"
"KAWY2013_e4","KAWY2013_e4_2","CORRIDOR",278,1,"Immediate",4,913,"Include"
"KAWY2013_e4","KAWY2013_e4_2","HEAP",279,1,"Immediate",4,821,"Include"
"KAWY2013_e4","KAWY2013_e4_2","CLIFF",280,0,"Immediate",3,5052,"Include"
"KAWY2013_e4","KAWY2013_e4_2","SKETCH",281,0,"Immediate",3,1014,"Include"
"KAWY2013_e4","KAWY2013_e4_2","SOPRANO",282,0,"Immediate",3,1526,"Include"
"KAWY2013_e4","KAWY2013_e4_2","WORKER",283,0,"Immediate",5,2483,"Include"
"KAWY2013_e4","KAWY2013_e4_2","RAIL",284,1,"Immediate",6,1868,"Include"
"KAWY2013_e4","KAWY2013_e4_2","PRINCE",285,0,"Immediate",5,4460,"Include"
"KAWY2013_e4","KAWY2013_e4_2","MERCHANT",286,1,"Immediate",5,2491,"Include"
"KAWY2013_e4","KAWY2013_e4_2","BLADE",287,0,"Immediate",5,2900,"Include"
"KAWY2013_e4","KAWY2013_e4_2","VERSE",288,0,"Immediate",6,2237,"Include"
"KAWY2013_e4","KAWY2013_e4_2","WOLF",289,0,"Immediate",2,3488,"Include"
"KAWY2013_e4","KAWY2013_e4_2","BUFFER",290,1,"Immediate",6,2179,"Include"
"KAWY2013_e4","KAWY2013_e4_2","FORK",291,0,"Immediate",2,1336,"Include"
"KAWY2013_e4","KAWY2013_e4_2","PIANIST",292,1,"Immediate",2,1083,"Include"
"KAWY2013_e4","KAWY2013_e4_2","TANK",293,0,"Immediate",2,776,"Include"
"KAWY2013_e4","KAWY2013_e4_2","SPECIMEN",294,1,"Immediate",2,673,"Include"
"KAWY2013_e4","KAWY2013_e4_2","EASEL",295,1,"Immediate",2,1598,"Include"
"KAWY2013_e4","KAWY2013_e4_2","MOLD",296,1,"Immediate",6,2968,"Include"
"KAWY2013_e4","KAWY2013_e4_2","SPADE",297,0,"Immediate",4,3247,"Include"
"KAWY2013_e4","KAWY2013_e4_2","GATE",298,0,"Immediate",3,13179,"Include"
"KAWY2013_e4","KAWY2013_e4_2","LURE",299,1,"Immediate",4,3141,"Include"
"KAWY2013_e4","KAWY2013_e4_2","MAPLE",300,0,"Immediate",3,4486,"Include"
"KAWY2013_e4","KAWY2013_e4_2","CELLAR",1,0,"Delayed",3,3543,"Include"
"KAWY2013_e4","KAWY2013_e4_2","MEADOW",2,0,"Delayed",3,1448,"Include"
"KAWY2013_e4","KAWY2013_e4_2","ARBITER",3,0,"Delayed",3,919,"Include"
"KAWY2013_e4","KAWY2013_e4_2","SINGER",4,0,"Delayed",2,1259,"Include"
"KAWY2013_e4","KAWY2013_e4_2","HUNGER",5,0,"Delayed",4,2338,"Include"
"KAWY2013_e4","KAWY2013_e4_2","PASTURE",6,0,"Delayed",5,2624,"Include"
"KAWY2013_e4","KAWY2013_e4_2","CLOVER",7,1,"Delayed",6,1187,"Include"
"KAWY2013_e4","KAWY2013_e4_2","FRICTION",8,0,"Delayed",4,3821,"Include"
"KAWY2013_e4","KAWY2013_e4_2","CREW",9,1,"Delayed",4,1428,"Include"
"KAWY2013_e4","KAWY2013_e4_2","PEARL",10,0,"Delayed",4,885,"Include"
"KAWY2013_e4","KAWY2013_e4_2","SQUIRE",11,0,"Delayed",3,2009,"Include"
"KAWY2013_e4","KAWY2013_e4_2","DUEL",12,1,"Delayed",5,1620,"Include"
"KAWY2013_e4","KAWY2013_e4_2","PUPIL",13,1,"Delayed",6,1005,"Include"
"KAWY2013_e4","KAWY2013_e4_2","MIST",14,0,"Delayed",2,2766,"Include"
"KAWY2013_e4","KAWY2013_e4_2","DOCK",15,0,"Delayed",2,972,"Include"
"KAWY2013_e4","KAWY2013_e4_2","KEROSENE",16,1,"Delayed",4,2574,"Include"
"KAWY2013_e4","KAWY2013_e4_2","OXYGEN",17,1,"Delayed",6,3587,"Include"
"KAWY2013_e4","KAWY2013_e4_2","CRAWL",18,0,"Delayed",3,3107,"Include"
"KAWY2013_e4","KAWY2013_e4_2","DIVE",19,1,"Delayed",4,2325,"Include"
"KAWY2013_e4","KAWY2013_e4_2","SISTER",20,0,"Delayed",3,3525,"Include"
"KAWY2013_e4","KAWY2013_e4_2","CREATURE",21,1,"Delayed",3,1287,"Include"
"KAWY2013_e4","KAWY2013_e4_2","TIDE",22,1,"Delayed",3,1068,"Include"
"KAWY2013_e4","KAWY2013_e4_2","SPEAR",23,0,"Delayed",4,1722,"Include"
"KAWY2013_e4","KAWY2013_e4_2","FLOWER",24,1,"Delayed",4,2096,"Include"
"KAWY2013_e4","KAWY2013_e4_2","HOUND",25,0,"Delayed",3,2087,"Include"
"KAWY2013_e4","KAWY2013_e4_2","CABINET",26,0,"Delayed",3,2223,"Include"
"KAWY2013_e4","KAWY2013_e4_2","TOKEN",27,0,"Delayed",3,1554,"Include"
"KAWY2013_e4","KAWY2013_e4_2","NURSERY",28,0,"Delayed",4,1069,"Include"
"KAWY2013_e4","KAWY2013_e4_2","AUTUMN",29,0,"Delayed",3,1675,"Include"
"KAWY2013_e4","KAWY2013_e4_2","SUNLIGHT",30,1,"Delayed",4,1378,"Include"
"KAWY2013_e4","KAWY2013_e4_2","SCAR",31,0,"Delayed",4,1461,"Include"
"KAWY2013_e4","KAWY2013_e4_2","FUSE",32,1,"Delayed",4,868,"Include"
"KAWY2013_e4","KAWY2013_e4_2","LEVER",33,0,"Delayed",3,922,"Include"
"KAWY2013_e4","KAWY2013_e4_2","PHYSICS",34,0,"Delayed",4,989,"Include"
"KAWY2013_e4","KAWY2013_e4_2","PACKAGE",35,1,"Delayed",4,2430,"Include"
"KAWY2013_e4","KAWY2013_e4_2","RECTOR",36,1,"Delayed",1,1913,"Include"
"KAWY2013_e4","KAWY2013_e4_2","PURSE",37,0,"Delayed",3,2343,"Include"
"KAWY2013_e4","KAWY2013_e4_2","ROUGH",38,0,"Delayed",2,1732,"Include"
"KAWY2013_e4","KAWY2013_e4_2","SCOUT",39,1,"Delayed",4,2298,"Include"
"KAWY2013_e4","KAWY2013_e4_2","LUMBER",40,1,"Delayed",4,2889,"Include"
"KAWY2013_e4","KAWY2013_e4_2","INCH",41,0,"Delayed",3,1747,"Include"
"KAWY2013_e4","KAWY2013_e4_2","CAVE",42,0,"Delayed",3,1127,"Include"
"KAWY2013_e4","KAWY2013_e4_2","OPPONENT",43,0,"Delayed",3,1139,"Include"
"KAWY2013_e4","KAWY2013_e4_2","POLL",44,0,"Delayed",3,767,"Include"
"KAWY2013_e4","KAWY2013_e4_2","SATIN",45,1,"Delayed",4,1048,"Include"
"KAWY2013_e4","KAWY2013_e4_2","CIGAR",46,1,"Delayed",5,1462,"Include"
"KAWY2013_e4","KAWY2013_e4_2","SPEAKER",47,0,"Delayed",4,2117,"Include"
"KAWY2013_e4","KAWY2013_e4_2","DIET",48,1,"Delayed",4,1260,"Include"
"KAWY2013_e4","KAWY2013_e4_2","HARNESS",49,1,"Delayed",4,979,"Include"
"KAWY2013_e4","KAWY2013_e4_2","FLAME",50,0,"Delayed",4,820,"Include"
"KAWY2013_e4","KAWY2013_e4_2","SPIRE",51,0,"Delayed",2,2027,"Include"
"KAWY2013_e4","KAWY2013_e4_2","GOSPEL",52,1,"Delayed",6,2390,"Include"
"KAWY2013_e4","KAWY2013_e4_2","COLONEL",53,0,"Delayed",6,835,"Include"
"KAWY2013_e4","KAWY2013_e4_2","STADIUM",54,1,"Delayed",2,1801,"Include"
"KAWY2013_e4","KAWY2013_e4_2","TOWER",55,0,"Delayed",5,2523,"Include"
"KAWY2013_e4","KAWY2013_e4_2","MATE",56,1,"Delayed",5,2483,"Include"
"KAWY2013_e4","KAWY2013_e4_2","BRUSH",57,1,"Delayed",4,3660,"Include"
"KAWY2013_e4","KAWY2013_e4_2","FACTORY",58,1,"Delayed",5,2425,"Include"
"KAWY2013_e4","KAWY2013_e4_2","DEPOSIT",59,0,"Delayed",2,1701,"Include"
"KAWY2013_e4","KAWY2013_e4_2","LACE",60,0,"Delayed",3,3227,"Include"
"KAWY2013_e4","KAWY2013_e4_2","BARK",61,1,"Delayed",6,1896,"Include"
"KAWY2013_e4","KAWY2013_e4_2","ENGINE",62,0,"Delayed",4,4038,"Include"
"KAWY2013_e4","KAWY2013_e4_2","LINK",63,1,"Delayed",4,1334,"Include"
"KAWY2013_e4","KAWY2013_e4_2","LAWYER",64,0,"Delayed",4,1146,"Include"
"KAWY2013_e4","KAWY2013_e4_2","COOK",65,1,"Delayed",4,645,"Include"
"KAWY2013_e4","KAWY2013_e4_2","GLARE",66,0,"Delayed",3,1907,"Include"
"KAWY2013_e4","KAWY2013_e4_2","CITIZEN",67,0,"Delayed",3,3457,"Include"
"KAWY2013_e4","KAWY2013_e4_2","RUBBER",68,1,"Delayed",5,1462,"Include"
"KAWY2013_e4","KAWY2013_e4_2","YARD",69,0,"Delayed",5,886,"Include"
"KAWY2013_e4","KAWY2013_e4_2","TOILET",70,0,"Delayed",3,1370,"Include"
"KAWY2013_e4","KAWY2013_e4_2","WHEAT",71,0,"Delayed",3,1357,"Include"
"KAWY2013_e4","KAWY2013_e4_2","SLIDE",72,0,"Delayed",3,864,"Include"
"KAWY2013_e4","KAWY2013_e4_2","CHANNEL",73,1,"Delayed",3,742,"Include"
"KAWY2013_e4","KAWY2013_e4_2","DITCH",74,0,"Delayed",4,1359,"Include"
"KAWY2013_e4","KAWY2013_e4_2","MILEAGE",75,1,"Delayed",3,1315,"Include"
"KAWY2013_e4","KAWY2013_e4_2","DISPLAY",76,0,"Delayed",3,1975,"Include"
"KAWY2013_e4","KAWY2013_e4_2","REVOLT",77,0,"Delayed",3,739,"Include"
"KAWY2013_e4","KAWY2013_e4_2","SOAP",78,1,"Delayed",3,829,"Include"
"KAWY2013_e4","KAWY2013_e4_2","TOUGH",79,0,"Delayed",4,1812,"Include"
"KAWY2013_e4","KAWY2013_e4_2","LECTURE",80,0,"Delayed",5,1654,"Include"
"KAWY2013_e4","KAWY2013_e4_2","PASSAGE",81,1,"Delayed",5,958,"Include"
"KAWY2013_e4","KAWY2013_e4_2","GRAPHITE",82,0,"Delayed",2,2144,"Include"
"KAWY2013_e4","KAWY2013_e4_2","BOUNDARY",83,1,"Delayed",5,2997,"Include"
"KAWY2013_e4","KAWY2013_e4_2","REBEL",84,1,"Delayed",6,2315,"Include"
"KAWY2013_e4","KAWY2013_e4_2","AVENUE",85,1,"Delayed",4,3082,"Include"
"KAWY2013_e4","KAWY2013_e4_2","BUREAU",86,0,"Delayed",2,1901,"Include"
"KAWY2013_e4","KAWY2013_e4_2","BAIL",87,1,"Delayed",4,1996,"Include"
"KAWY2013_e4","KAWY2013_e4_2","CAPE",88,0,"Delayed",6,1895,"Include"
"KAWY2013_e4","KAWY2013_e4_2","GUIDE",89,0,"Delayed",4,9894,"Include"
"KAWY2013_e4","KAWY2013_e4_2","LOTION",90,1,"Delayed",5,1690,"Include"
"KAWY2013_e4","KAWY2013_e4_2","LOOP",91,0,"Delayed",3,2161,"Include"
"KAWY2013_e4","KAWY2013_e4_2","MAIL",92,0,"Delayed",3,1046,"Include"
"KAWY2013_e4","KAWY2013_e4_2","COMPOSER",93,0,"Delayed",3,1157,"Include"
"KAWY2013_e4","KAWY2013_e4_2","PROPHET",94,0,"Delayed",3,624,"Include"
"KAWY2013_e4","KAWY2013_e4_2","HIGHWAY",95,0,"Delayed",3,734,"Include"
"KAWY2013_e4","KAWY2013_e4_2","BRAIN",96,0,"Delayed",3,1080,"Include"
"KAWY2013_e4","KAWY2013_e4_2","SEAM",97,1,"Delayed",3,598,"Include"
"KAWY2013_e4","KAWY2013_e4_2","FEVER",98,1,"Delayed",3,838,"Include"
"KAWY2013_e4","KAWY2013_e4_2","FOAM",99,0,"Delayed",3,876,"Include"
"KAWY2013_e4","KAWY2013_e4_2","NATIVE",100,0,"Delayed",4,1745,"Include"
"KAWY2013_e4","KAWY2013_e4_2","MOSS",101,1,"Delayed",6,1686,"Include"
"KAWY2013_e4","KAWY2013_e4_2","CAGE",102,1,"Delayed",6,1069,"Include"
"KAWY2013_e4","KAWY2013_e4_2","FISH",103,1,"Delayed",5,2763,"Include"
"KAWY2013_e4","KAWY2013_e4_2","QUILL",104,1,"Delayed",6,1993,"Include"
"KAWY2013_e4","KAWY2013_e4_2","OBSERVER",105,0,"Delayed",4,5237,"Include"
"KAWY2013_e4","KAWY2013_e4_2","GESTURE",106,1,"Delayed",3,1974,"Include"
"KAWY2013_e4","KAWY2013_e4_2","SWEEP",107,1,"Delayed",4,1186,"Include"
"KAWY2013_e4","KAWY2013_e4_2","TRAIL",108,0,"Delayed",4,843,"Include"
"KAWY2013_e4","KAWY2013_e4_2","ROLL",109,0,"Delayed",4,738,"Include"
"KAWY2013_e4","KAWY2013_e4_2","POLISH",110,0,"Delayed",4,4668,"Include"
"KAWY2013_e4","KAWY2013_e4_2","PUZZLE",111,0,"Delayed",4,2020,"Include"
"KAWY2013_e4","KAWY2013_e4_2","STRAND",112,1,"Delayed",4,798,"Include"
"KAWY2013_e4","KAWY2013_e4_2","POLE",113,0,"Delayed",4,806,"Include"
"KAWY2013_e4","KAWY2013_e4_2","DANCER",114,1,"Delayed",3,1149,"Include"
"KAWY2013_e4","KAWY2013_e4_2","CHESTNUT",115,0,"Delayed",2,1688,"Include"
"KAWY2013_e4","KAWY2013_e4_2","GRADUATE",116,1,"Delayed",4,2623,"Include"
"KAWY2013_e4","KAWY2013_e4_2","WHISPER",117,1,"Delayed",4,1011,"Include"
"KAWY2013_e4","KAWY2013_e4_2","CANON",118,0,"Delayed",1,3635,"Include"
"KAWY2013_e4","KAWY2013_e4_2","SPARK",119,1,"Delayed",4,3249,"Include"
"KAWY2013_e4","KAWY2013_e4_2","BANNER",120,1,"Delayed",4,2142,"Include"
"KAWY2013_e4","KAWY2013_e4_2","GLITTER",121,1,"Delayed",4,1060,"Include"
"KAWY2013_e4","KAWY2013_e4_2","RELIC",122,1,"Delayed",2,1842,"Include"
"KAWY2013_e4","KAWY2013_e4_2","FLOCK",123,0,"Delayed",2,1315,"Include"
"KAWY2013_e4","KAWY2013_e4_2","HOSE",124,1,"Delayed",4,2872,"Include"
"KAWY2013_e4","KAWY2013_e4_2","DAYLIGHT",125,0,"Delayed",4,7058,"Include"
"KAWY2013_e4","KAWY2013_e4_2","JOURNAL",126,0,"Delayed",4,3857,"Include"
"KAWY2013_e4","KAWY2013_e4_2","BRANDY",127,1,"Delayed",2,1974,"Include"
"KAWY2013_e4","KAWY2013_e4_2","MEAT",128,1,"Delayed",5,2018,"Include"
"KAWY2013_e4","KAWY2013_e4_2","BURN",129,0,"Delayed",3,3517,"Include"
"KAWY2013_e4","KAWY2013_e4_2","MOISTURE",130,1,"Delayed",5,2991,"Include"
"KAWY2013_e4","KAWY2013_e4_2","PLANK",131,0,"Delayed",5,1558,"Include"
"KAWY2013_e4","KAWY2013_e4_2","ATOM",132,0,"Delayed",5,1745,"Include"
"KAWY2013_e4","KAWY2013_e4_2","EXPRESS",133,1,"Delayed",4,2470,"Include"
"KAWY2013_e4","KAWY2013_e4_2","STEEL",134,1,"Delayed",6,1792,"Include"
"KAWY2013_e4","KAWY2013_e4_2","REFUSE",135,0,"Delayed",2,2211,"Include"
"KAWY2013_e4","KAWY2013_e4_2","RECEIVER",136,0,"Delayed",4,3350,"Include"
"KAWY2013_e4","KAWY2013_e4_2","ORGAN",137,0,"Delayed",4,1359,"Include"
"KAWY2013_e4","KAWY2013_e4_2","CRAFT",138,0,"Delayed",3,1682,"Include"
"KAWY2013_e4","KAWY2013_e4_2","CORE",139,0,"Delayed",4,1912,"Include"
"KAWY2013_e4","KAWY2013_e4_2","RATTLE",140,1,"Delayed",4,1174,"Include"
"KAWY2013_e4","KAWY2013_e4_2","CANE",141,1,"Delayed",4,864,"Include"
"KAWY2013_e4","KAWY2013_e4_2","TEAR",142,1,"Delayed",4,726,"Include"
"KAWY2013_e4","KAWY2013_e4_2","CAPITOL",143,0,"Delayed",3,1792,"Include"
"KAWY2013_e4","KAWY2013_e4_2","SAVAGE",144,1,"Delayed",6,1683,"Include"
"KAWY2013_e4","KAWY2013_e4_2","GUEST",145,1,"Delayed",4,6058,"Include"
"KAWY2013_e4","KAWY2013_e4_2","SAIL",146,0,"Delayed",4,1038,"Include"
"KAWY2013_e4","KAWY2013_e4_2","BLIND",147,1,"Delayed",4,3341,"Include"
"KAWY2013_e4","KAWY2013_e4_2","BASEMENT",148,1,"Delayed",4,2502,"Include"
"KAWY2013_e4","KAWY2013_e4_2","SEWER",149,0,"Delayed",4,766,"Include"
"KAWY2013_e4","KAWY2013_e4_2","STAIN",150,0,"Delayed",5,1959,"Include"
"KAWY2013_e4","KAWY2013_e4_2","HAMLET",151,1,"Delayed",4,7300,"Include"
"KAWY2013_e4","KAWY2013_e4_2","TUNNEL",152,0,"Delayed",4,1257,"Include"
"KAWY2013_e4","KAWY2013_e4_2","PEASANT",153,1,"Delayed",4,960,"Include"
"KAWY2013_e4","KAWY2013_e4_2","DAWN",154,1,"Delayed",4,802,"Include"
"KAWY2013_e4","KAWY2013_e4_2","BUBBLE",155,1,"Delayed",4,1242,"Include"
"KAWY2013_e4","KAWY2013_e4_2","BOULDER",156,0,"Delayed",4,737,"Include"
"KAWY2013_e4","KAWY2013_e4_2","TOAST",157,1,"Delayed",4,1388,"Include"
"KAWY2013_e4","KAWY2013_e4_2","REVOLVER",158,0,"Delayed",4,829,"Include"
"KAWY2013_e4","KAWY2013_e4_2","MEDICINE",159,1,"Delayed",4,933,"Include"
"KAWY2013_e4","KAWY2013_e4_2","ALERT",160,0,"Delayed",3,5351,"Include"
"KAWY2013_e4","KAWY2013_e4_2","SPONGE",161,1,"Delayed",4,1653,"Include"
"KAWY2013_e4","KAWY2013_e4_2","QUACK",162,0,"Delayed",2,2286,"Include"
"KAWY2013_e4","KAWY2013_e4_2","SALOON",163,1,"Delayed",4,2142,"Include"
"KAWY2013_e4","KAWY2013_e4_2","STING",164,0,"Delayed",2,2164,"Include"
"KAWY2013_e4","KAWY2013_e4_2","BADGE",165,1,"Delayed",3,1337,"Include"
"KAWY2013_e4","KAWY2013_e4_2","BUSH",166,1,"Delayed",4,1805,"Include"
"KAWY2013_e4","KAWY2013_e4_2","COSTUME",167,1,"Delayed",5,1887,"Include"
"KAWY2013_e4","KAWY2013_e4_2","GULF",168,0,"Delayed",1,2014,"Include"
"KAWY2013_e4","KAWY2013_e4_2","SPECK",169,0,"Delayed",3,3257,"Include"
"KAWY2013_e4","KAWY2013_e4_2","BRONZE",170,0,"Delayed",3,1476,"Include"
"KAWY2013_e4","KAWY2013_e4_2","BIOLOGY",171,1,"Delayed",6,1843,"Include"
"KAWY2013_e4","KAWY2013_e4_2","OUTFIT",172,0,"Delayed",3,3188,"Include"
"KAWY2013_e4","KAWY2013_e4_2","TRAY",173,0,"Delayed",2,1859,"Include"
"KAWY2013_e4","KAWY2013_e4_2","SHUTTER",174,0,"Delayed",3,2532,"Include"
"KAWY2013_e4","KAWY2013_e4_2","DRUG",175,0,"Delayed",4,1627,"Include"
"KAWY2013_e4","KAWY2013_e4_2","DELTA",176,1,"Delayed",6,1940,"Include"
"KAWY2013_e4","KAWY2013_e4_2","NERVE",177,1,"Delayed",4,7122,"Include"
"KAWY2013_e4","KAWY2013_e4_2","TIMBER",178,0,"Delayed",3,2653,"Include"
"KAWY2013_e4","KAWY2013_e4_2","CALF",179,0,"Delayed",4,2032,"Include"
"KAWY2013_e4","KAWY2013_e4_2","SLOPE",180,1,"Delayed",3,3386,"Include"
"KAWY2013_e4","KAWY2013_e4_2","FABRIC",181,1,"Delayed",5,1441,"Include"
"KAWY2013_e4","KAWY2013_e4_2","LOBBY",182,1,"Delayed",4,2226,"Include"
"KAWY2013_e4","KAWY2013_e4_2","STEAM",183,1,"Delayed",4,804,"Include"
"KAWY2013_e4","KAWY2013_e4_2","WAVE",184,1,"Delayed",4,764,"Include"
"KAWY2013_e4","KAWY2013_e4_2","GOLF",185,0,"Delayed",3,1990,"Include"
"KAWY2013_e4","KAWY2013_e4_2","SINK",186,1,"Delayed",4,1633,"Include"
"KAWY2013_e4","KAWY2013_e4_2","KNEE",187,1,"Delayed",4,1626,"Include"
"KAWY2013_e4","KAWY2013_e4_2","PLANET",188,1,"Delayed",3,4851,"Include"
"KAWY2013_e4","KAWY2013_e4_2","GIANT",189,0,"Delayed",3,724,"Include"
"KAWY2013_e4","KAWY2013_e4_2","NAIL",190,1,"Delayed",4,991,"Include"
"KAWY2013_e4","KAWY2013_e4_2","CARDINAL",191,0,"Delayed",4,1328,"Include"
"KAWY2013_e4","KAWY2013_e4_2","ISLE",192,0,"Delayed",4,980,"Include"
"KAWY2013_e4","KAWY2013_e4_2","IGNITION",193,0,"Delayed",3,4710,"Include"
"KAWY2013_e4","KAWY2013_e4_2","CARBON",194,1,"Delayed",4,1211,"Include"
"KAWY2013_e4","KAWY2013_e4_2","OCEAN",195,1,"Delayed",3,1812,"Include"
"KAWY2013_e4","KAWY2013_e4_2","ARCH",196,0,"Delayed",3,967,"Include"
"KAWY2013_e4","KAWY2013_e4_2","CABLE",197,1,"Delayed",3,1496,"Include"
"KAWY2013_e4","KAWY2013_e4_2","THINKER",198,1,"Delayed",3,790,"Include"
"KAWY2013_e4","KAWY2013_e4_2","HARDWARE",199,1,"Delayed",3,943,"Include"
"KAWY2013_e4","KAWY2013_e4_2","LODGE",200,1,"Delayed",3,5153,"Include"
"KAWY2013_e4","KAWY2013_e4_2","HAIL",201,1,"Delayed",3,614,"Include"
"KAWY2013_e4","KAWY2013_e4_2","BLONDE",202,0,"Delayed",3,708,"Include"
"KAWY2013_e4","KAWY2013_e4_2","ATHLETE",203,0,"Delayed",3,1136,"Include"
"KAWY2013_e4","KAWY2013_e4_2","PAINTER",204,0,"Delayed",3,2603,"Include"
"KAWY2013_e4","KAWY2013_e4_2","BOIL",205,0,"Delayed",5,1920,"Include"
"KAWY2013_e4","KAWY2013_e4_2","CARAVAN",206,0,"Delayed",4,6574,"Include"
"KAWY2013_e4","KAWY2013_e4_2","SWAMP",207,1,"Delayed",4,1150,"Include"
"KAWY2013_e4","KAWY2013_e4_2","FARE",208,1,"Delayed",4,1625,"Include"
"KAWY2013_e4","KAWY2013_e4_2","LINEN",209,0,"Delayed",4,898,"Include"
"KAWY2013_e4","KAWY2013_e4_2","BEECH",210,0,"Delayed",1,2086,"Include"
"KAWY2013_e4","KAWY2013_e4_2","CLOSET",211,1,"Delayed",4,4734,"Include"
"KAWY2013_e4","KAWY2013_e4_2","CIRCUIT",212,0,"Delayed",4,1651,"Include"
"KAWY2013_e4","KAWY2013_e4_2","MANTLE",213,1,"Delayed",4,827,"Include"
"KAWY2013_e4","KAWY2013_e4_2","MAGAZINE",214,0,"Delayed",4,1570,"Include"
"KAWY2013_e4","KAWY2013_e4_2","PROFILE",215,0,"Delayed",3,2861,"Include"
"KAWY2013_e4","KAWY2013_e4_2","DUKE",216,0,"Delayed",6,1928,"Include"
"KAWY2013_e4","KAWY2013_e4_2","THUNDER",217,0,"Delayed",4,2886,"Include"
"KAWY2013_e4","KAWY2013_e4_2","SEAL",218,1,"Delayed",4,1184,"Include"
"KAWY2013_e4","KAWY2013_e4_2","SCRATCH",219,1,"Delayed",4,2730,"Include"
"KAWY2013_e4","KAWY2013_e4_2","CORN",220,1,"Delayed",3,3049,"Include"
"KAWY2013_e4","KAWY2013_e4_2","BUCKET",221,1,"Delayed",4,1309,"Include"
"KAWY2013_e4","KAWY2013_e4_2","TURNER",222,1,"Delayed",5,4514,"Include"
"KAWY2013_e4","KAWY2013_e4_2","SHOWER",223,0,"Delayed",3,2672,"Include"
"KAWY2013_e4","KAWY2013_e4_2","GROVE",224,1,"Delayed",3,1138,"Include"
"KAWY2013_e4","KAWY2013_e4_2","LIME",225,0,"Delayed",3,925,"Include"
"KAWY2013_e4","KAWY2013_e4_2","SOLE",226,1,"Delayed",4,1088,"Include"
"KAWY2013_e4","KAWY2013_e4_2","MAKER",227,1,"Delayed",3,1597,"Include"
"KAWY2013_e4","KAWY2013_e4_2","ABDOMEN",228,0,"Delayed",3,1479,"Include"
"KAWY2013_e4","KAWY2013_e4_2","STABLE",229,1,"Delayed",4,918,"Include"
"KAWY2013_e4","KAWY2013_e4_2","KEEL",230,1,"Delayed",6,1753,"Include"
"KAWY2013_e4","KAWY2013_e4_2","DOLL",231,1,"Delayed",6,1422,"Include"
"KAWY2013_e4","KAWY2013_e4_2","CASH",232,1,"Delayed",4,2285,"Include"
"KAWY2013_e4","KAWY2013_e4_2","SILK",233,1,"Delayed",3,2590,"Include"
"KAWY2013_e4","KAWY2013_e4_2","BACTERIA",234,1,"Delayed",4,1123,"Include"
"KAWY2013_e4","KAWY2013_e4_2","CHUCKLE",235,0,"Delayed",4,1711,"Include"
"KAWY2013_e4","KAWY2013_e4_2","FAINT",236,0,"Delayed",3,1461,"Include"
"KAWY2013_e4","KAWY2013_e4_2","REED",237,1,"Delayed",6,1941,"Include"
"KAWY2013_e4","KAWY2013_e4_2","STORM",238,0,"Delayed",4,3490,"Include"
"KAWY2013_e4","KAWY2013_e4_2","TRACK",239,0,"Delayed",4,2902,"Include"
"KAWY2013_e4","KAWY2013_e4_2","SHRIEK",240,0,"Delayed",2,2511,"Include"
"KAWY2013_e4","KAWY2013_e4_2","RUST",241,1,"Delayed",4,4247,"Include"
"KAWY2013_e4","KAWY2013_e4_2","DAIRY",242,0,"Delayed",4,5806,"Include"
"KAWY2013_e4","KAWY2013_e4_2","FOREHEAD",243,1,"Delayed",2,1707,"Include"
"KAWY2013_e4","KAWY2013_e4_2","MUSTARD",244,1,"Delayed",4,2993,"Include"
"KAWY2013_e4","KAWY2013_e4_2","GALLON",245,0,"Delayed",3,2279,"Include"
"KAWY2013_e4","KAWY2013_e4_2","CROWN",246,1,"Delayed",4,2088,"Include"
"KAWY2013_e4","KAWY2013_e4_2","SONATA",247,0,"Delayed",1,2399,"Include"
"KAWY2013_e4","KAWY2013_e4_2","RENT",248,1,"Delayed",4,6876,"Include"
"KAWY2013_e4","KAWY2013_e4_2","CONE",249,1,"Delayed",4,753,"Include"
"KAWY2013_e4","KAWY2013_e4_2","THROW",250,1,"Delayed",4,586,"Include"
"KAWY2013_e4","KAWY2013_e4_2","POUND",251,1,"Delayed",5,4362,"Include"
"KAWY2013_e4","KAWY2013_e4_2","MATCH",252,1,"Delayed",4,3117,"Include"
"KAWY2013_e4","KAWY2013_e4_2","MUZZLE",253,1,"Delayed",6,1822,"Include"
"KAWY2013_e4","KAWY2013_e4_2","IVORY",254,0,"Delayed",3,3520,"Include"
"KAWY2013_e4","KAWY2013_e4_2","TOURIST",255,1,"Delayed",3,3315,"Include"
"KAWY2013_e4","KAWY2013_e4_2","MAZE",256,0,"Delayed",5,1932,"Include"
"KAWY2013_e4","KAWY2013_e4_2","FENCE",257,1,"Delayed",4,12505,"Include"
"KAWY2013_e4","KAWY2013_e4_2","REGISTER",258,1,"Delayed",6,1852,"Include"
"KAWY2013_e4","KAWY2013_e4_2","STOOL",259,0,"Delayed",4,2268,"Include"
"KAWY2013_e4","KAWY2013_e4_2","TROLLEY",260,0,"Delayed",3,2013,"Include"
"KAWY2013_e4","KAWY2013_e4_2","RAID",261,1,"Delayed",4,1704,"Include"
"KAWY2013_e4","KAWY2013_e4_2","CHLORINE",262,0,"Delayed",4,1262,"Include"
"KAWY2013_e4","KAWY2013_e4_2","GUARD",263,0,"Delayed",4,1989,"Include"
"KAWY2013_e4","KAWY2013_e4_2","PREY",264,1,"Delayed",3,2033,"Include"
"KAWY2013_e4","KAWY2013_e4_2","TICKET",265,1,"Delayed",4,2810,"Include"
"KAWY2013_e4","KAWY2013_e4_2","BULLET",266,0,"Delayed",5,1303,"Include"
"KAWY2013_e4","KAWY2013_e4_2","TROOP",267,1,"Delayed",5,1164,"Include"
"KAWY2013_e4","KAWY2013_e4_2","TEMPLE",268,1,"Delayed",5,822,"Include"
"KAWY2013_e4","KAWY2013_e4_2","CEREMONY",269,0,"Delayed",4,2445,"Include"
"KAWY2013_e4","KAWY2013_e4_2","STOVE",270,0,"Delayed",3,2535,"Include"
"KAWY2013_e4","KAWY2013_e4_2","WALLET",271,0,"Delayed",3,862,"Include"
"KAWY2013_e4","KAWY2013_e4_2","AISLE",272,0,"Delayed",3,788,"Include"
"KAWY2013_e4","KAWY2013_e4_2","LIFT",273,1,"Delayed",3,604,"Include"
"KAWY2013_e4","KAWY2013_e4_2","LEAF",274,0,"Delayed",3,972,"Include"
"KAWY2013_e4","KAWY2013_e4_2","QUARTER",275,0,"Delayed",4,1117,"Include"
"KAWY2013_e4","KAWY2013_e4_2","INSECT",276,0,"Delayed",3,2409,"Include"
"KAWY2013_e4","KAWY2013_e4_2","PISTON",277,0,"Delayed",2,2213,"Include"
"KAWY2013_e4","KAWY2013_e4_2","JAIL",278,1,"Delayed",5,1784,"Include"
"KAWY2013_e4","KAWY2013_e4_2","SACK",279,1,"Delayed",5,1227,"Include"
"KAWY2013_e4","KAWY2013_e4_2","FLUSH",280,1,"Delayed",5,883,"Include"
"KAWY2013_e4","KAWY2013_e4_2","EDUCATOR",281,1,"Delayed",4,1848,"Include"
"KAWY2013_e4","KAWY2013_e4_2","TWIST",282,0,"Delayed",5,1928,"Include"
"KAWY2013_e4","KAWY2013_e4_2","SUDS",283,1,"Delayed",5,1030,"Include"
"KAWY2013_e4","KAWY2013_e4_2","RACKET",284,0,"Delayed",5,1030,"Include"
"KAWY2013_e4","KAWY2013_e4_2","COACH",285,1,"Delayed",5,1510,"Include"
"KAWY2013_e4","KAWY2013_e4_2","SPRAY",286,1,"Delayed",4,1155,"Include"
"KAWY2013_e4","KAWY2013_e4_2","CHAIN",287,0,"Delayed",4,2254,"Include"
"KAWY2013_e4","KAWY2013_e4_2","PASTE",288,1,"Delayed",6,1887,"Include"
"KAWY2013_e4","KAWY2013_e4_2","VISITOR",289,1,"Delayed",6,1215,"Include"
"KAWY2013_e4","KAWY2013_e4_2","INJURY",290,0,"Delayed",4,3990,"Include"
"KAWY2013_e4","KAWY2013_e4_2","AERIAL",291,1,"Delayed",5,3494,"Include"
"KAWY2013_e4","KAWY2013_e4_2","EXHAUST",292,1,"Delayed",3,2858,"Include"
"KAWY2013_e4","KAWY2013_e4_2","CHART",293,0,"Delayed",3,1013,"Include"
"KAWY2013_e4","KAWY2013_e4_2","FLOOD",294,0,"Delayed",3,869,"Include"
"KAWY2013_e4","KAWY2013_e4_2","CHAPEL",295,1,"Delayed",5,8426,"Include"
"KAWY2013_e4","KAWY2013_e4_2","POWDER",296,1,"Delayed",3,6870,"Include"
"KAWY2013_e4","KAWY2013_e4_2","CURB",297,1,"Delayed",4,4827,"Include"
"KAWY2013_e4","KAWY2013_e4_2","CAST",298,0,"Delayed",4,1676,"Include"
"KAWY2013_e4","KAWY2013_e4_2","FOOTBALL",299,0,"Delayed",3,2244,"Include"
"KAWY2013_e4","KAWY2013_e4_2","HOLIDAY",300,1,"Delayed",4,1206,"Include"
"KAWY2013_e4","KAWY2013_e4_3","PLUMB",1,1,"Immediate",6,3589,"Include"
"KAWY2013_e4","KAWY2013_e4_3","FOUNTAIN",2,1,"Immediate",6,2501,"Include"
"KAWY2013_e4","KAWY2013_e4_3","SCREAM",3,1,"Immediate",3,5598,"Include"
"KAWY2013_e4","KAWY2013_e4_3","RECTOR",4,0,"Immediate",3,6723,"Include"
"KAWY2013_e4","KAWY2013_e4_3","EXPRESS",5,0,"Immediate",3,3278,"Include"
"KAWY2013_e4","KAWY2013_e4_3","AVENUE",6,0,"Immediate",2,2873,"Include"
"KAWY2013_e4","KAWY2013_e4_3","WIDOW",7,1,"Immediate",6,1955,"Include"
"KAWY2013_e4","KAWY2013_e4_3","MINK",8,1,"Immediate",6,1376,"Include"
"KAWY2013_e4","KAWY2013_e4_3","SCHOLAR",9,1,"Immediate",6,1539,"Include"
"KAWY2013_e4","KAWY2013_e4_3","SPRAY",10,0,"Immediate",4,5647,"Include"
"KAWY2013_e4","KAWY2013_e4_3","STEEL",11,0,"Immediate",5,3458,"Include"
"KAWY2013_e4","KAWY2013_e4_3","RAID",12,0,"Immediate",5,4151,"Include"
"KAWY2013_e4","KAWY2013_e4_3","RING",13,1,"Immediate",5,2242,"Include"
"KAWY2013_e4","KAWY2013_e4_3","PRAIRIE",14,1,"Immediate",2,5764,"Include"
"KAWY2013_e4","KAWY2013_e4_3","GARMENT",15,1,"Immediate",3,5443,"Include"
"KAWY2013_e4","KAWY2013_e4_3","GATE",16,1,"Immediate",5,2669,"Include"
"KAWY2013_e4","KAWY2013_e4_3","SUITE",17,1,"Immediate",6,3103,"Include"
"KAWY2013_e4","KAWY2013_e4_3","DISASTER",18,1,"Immediate",6,2209,"Include"
"KAWY2013_e4","KAWY2013_e4_3","NAVY",19,1,"Immediate",5,1829,"Include"
"KAWY2013_e4","KAWY2013_e4_3","BUCKLE",20,1,"Immediate",6,3510,"Include"
"KAWY2013_e4","KAWY2013_e4_3","TICKET",21,0,"Immediate",3,3929,"Include"
"KAWY2013_e4","KAWY2013_e4_3","PRINCE",22,1,"Immediate",6,3627,"Include"
"KAWY2013_e4","KAWY2013_e4_3","GLITTER",23,0,"Immediate",1,2697,"Include"
"KAWY2013_e4","KAWY2013_e4_3","VEIL",24,1,"Immediate",4,3146,"Include"
"KAWY2013_e4","KAWY2013_e4_3","STATUE",25,1,"Immediate",5,2682,"Include"
"KAWY2013_e4","KAWY2013_e4_3","TIRE",26,1,"Immediate",6,2108,"Include"
"KAWY2013_e4","KAWY2013_e4_3","LUNG",27,1,"Immediate",6,1395,"Include"
"KAWY2013_e4","KAWY2013_e4_3","STAKE",28,1,"Immediate",6,1045,"Include"
"KAWY2013_e4","KAWY2013_e4_3","ITCH",29,1,"Immediate",6,2740,"Include"
"KAWY2013_e4","KAWY2013_e4_3","TOURIST",30,0,"Immediate",3,2163,"Include"
"KAWY2013_e4","KAWY2013_e4_3","RIBBON",31,1,"Immediate",5,3960,"Include"
"KAWY2013_e4","KAWY2013_e4_3","OCEAN",32,0,"Immediate",2,4602,"Include"
"KAWY2013_e4","KAWY2013_e4_3","FATIGUE",33,1,"Immediate",1,2404,"Include"
"KAWY2013_e4","KAWY2013_e4_3","SUDS",34,0,"Immediate",1,1872,"Include"
"KAWY2013_e4","KAWY2013_e4_3","JUNCTION",35,1,"Immediate",6,2592,"Include"
"KAWY2013_e4","KAWY2013_e4_3","COMBINE",36,1,"Immediate",6,1477,"Include"
"KAWY2013_e4","KAWY2013_e4_3","SUNLIGHT",37,0,"Immediate",1,2004,"Include"
"KAWY2013_e4","KAWY2013_e4_3","ERRAND",38,1,"Immediate",5,3039,"Include"
"KAWY2013_e4","KAWY2013_e4_3","LUMBER",39,0,"Immediate",5,3508,"Include"
"KAWY2013_e4","KAWY2013_e4_3","FLASH",40,1,"Immediate",3,2230,"Include"
"KAWY2013_e4","KAWY2013_e4_3","DEED",41,1,"Immediate",5,2105,"Include"
"KAWY2013_e4","KAWY2013_e4_3","HARNESS",42,0,"Immediate",5,2240,"Include"
"KAWY2013_e4","KAWY2013_e4_3","BOWL",43,1,"Immediate",6,1922,"Include"
"KAWY2013_e4","KAWY2013_e4_3","ALGAE",44,1,"Immediate",6,1152,"Include"
"KAWY2013_e4","KAWY2013_e4_3","PORT",45,1,"Immediate",6,1259,"Include"
"KAWY2013_e4","KAWY2013_e4_3","POCKET",46,1,"Immediate",6,1346,"Include"
"KAWY2013_e4","KAWY2013_e4_3","RIDGE",47,1,"Immediate",6,2486,"Include"
"KAWY2013_e4","KAWY2013_e4_3","STROKE",48,1,"Immediate",6,1455,"Include"
"KAWY2013_e4","KAWY2013_e4_3","WARRIOR",49,1,"Immediate",6,797,"Include"
"KAWY2013_e4","KAWY2013_e4_3","FOREHEAD",50,0,"Immediate",3,3622,"Include"
"KAWY2013_e4","KAWY2013_e4_3","AERIAL",51,0,"Immediate",1,1844,"Include"
"KAWY2013_e4","KAWY2013_e4_3","GESTURE",52,0,"Immediate",2,6037,"Include"
"KAWY2013_e4","KAWY2013_e4_3","CORAL",53,1,"Immediate",2,1882,"Include"
"KAWY2013_e4","KAWY2013_e4_3","WOLF",54,1,"Immediate",6,3945,"Include"
"KAWY2013_e4","KAWY2013_e4_3","BARK",55,0,"Immediate",3,4459,"Include"
"KAWY2013_e4","KAWY2013_e4_3","SOPRANO",56,1,"Immediate",5,2282,"Include"
"KAWY2013_e4","KAWY2013_e4_3","MEDAL",57,1,"Immediate",6,5499,"Include"
"KAWY2013_e4","KAWY2013_e4_3","POUND",58,0,"Immediate",2,2852,"Include"
"KAWY2013_e4","KAWY2013_e4_3","SCRATCH",59,0,"Immediate",1,2703,"Include"
"KAWY2013_e4","KAWY2013_e4_3","FACTORY",60,0,"Immediate",4,5888,"Include"
"KAWY2013_e4","KAWY2013_e4_3","ACADEMY",61,1,"Immediate",6,1482,"Include"
"KAWY2013_e4","KAWY2013_e4_3","BUSH",62,0,"Immediate",3,3272,"Include"
"KAWY2013_e4","KAWY2013_e4_3","PREY",63,0,"Immediate",2,1732,"Include"
"KAWY2013_e4","KAWY2013_e4_3","PARADE",64,1,"Immediate",6,1417,"Include"
"KAWY2013_e4","KAWY2013_e4_3","CLOUD",65,1,"Immediate",6,1161,"Include"
"KAWY2013_e4","KAWY2013_e4_3","MILEAGE",66,0,"Immediate",1,1828,"Include"
"KAWY2013_e4","KAWY2013_e4_3","REBEL",67,0,"Immediate",3,4774,"Include"
"KAWY2013_e4","KAWY2013_e4_3","DELTA",68,0,"Immediate",3,1545,"Include"
"KAWY2013_e4","KAWY2013_e4_3","GUEST",69,0,"Immediate",3,3045,"Include"
"KAWY2013_e4","KAWY2013_e4_3","CLOVER",70,0,"Immediate",3,2009,"Include"
"KAWY2013_e4","KAWY2013_e4_3","GANG",71,1,"Immediate",6,1764,"Include"
"KAWY2013_e4","KAWY2013_e4_3","LINK",72,0,"Immediate",3,5415,"Include"
"KAWY2013_e4","KAWY2013_e4_3","WITNESS",73,1,"Immediate",6,1267,"Include"
"KAWY2013_e4","KAWY2013_e4_3","SKETCH",74,1,"Immediate",4,2809,"Include"
"KAWY2013_e4","KAWY2013_e4_3","TANK",75,1,"Immediate",6,1270,"Include"
"KAWY2013_e4","KAWY2013_e4_3","DIRT",76,1,"Immediate",6,956,"Include"
"KAWY2013_e4","KAWY2013_e4_3","SHELL",77,1,"Immediate",5,2254,"Include"
"KAWY2013_e4","KAWY2013_e4_3","DIVE",78,0,"Immediate",3,4720,"Include"
"KAWY2013_e4","KAWY2013_e4_3","BLOOM",79,1,"Immediate",6,1270,"Include"
"KAWY2013_e4","KAWY2013_e4_3","MONKEY",80,1,"Immediate",4,2828,"Include"
"KAWY2013_e4","KAWY2013_e4_3","PEPPER",81,1,"Immediate",3,2264,"Include"
"KAWY2013_e4","KAWY2013_e4_3","DRAIN",82,1,"Immediate",6,1193,"Include"
"KAWY2013_e4","KAWY2013_e4_3","SMOKE",83,1,"Immediate",6,1762,"Include"
"KAWY2013_e4","KAWY2013_e4_3","CLIFF",84,1,"Immediate",4,4038,"Include"
"KAWY2013_e4","KAWY2013_e4_3","PEASANT",85,0,"Immediate",4,2917,"Include"
"KAWY2013_e4","KAWY2013_e4_3","FORK",86,1,"Immediate",5,3038,"Include"
"KAWY2013_e4","KAWY2013_e4_3","OWNER",87,1,"Immediate",6,1107,"Include"
"KAWY2013_e4","KAWY2013_e4_3","CLOSET",88,0,"Immediate",3,2303,"Include"
"KAWY2013_e4","KAWY2013_e4_3","VIOLET",89,1,"Immediate",6,3311,"Include"
"KAWY2013_e4","KAWY2013_e4_3","CAGE",90,0,"Immediate",3,3673,"Include"
"KAWY2013_e4","KAWY2013_e4_3","QUEEN",91,1,"Immediate",3,2262,"Include"
"KAWY2013_e4","KAWY2013_e4_3","RAMP",92,1,"Immediate",6,2631,"Include"
"KAWY2013_e4","KAWY2013_e4_3","REED",93,0,"Immediate",5,1994,"Include"
"KAWY2013_e4","KAWY2013_e4_3","LOBBY",94,0,"Immediate",3,3494,"Include"
"KAWY2013_e4","KAWY2013_e4_3","MISSILE",95,1,"Immediate",6,1145,"Include"
"KAWY2013_e4","KAWY2013_e4_3","MOVIE",96,1,"Immediate",6,2164,"Include"
"KAWY2013_e4","KAWY2013_e4_3","GIFT",97,1,"Immediate",3,2249,"Include"
"KAWY2013_e4","KAWY2013_e4_3","KEROSENE",98,0,"Immediate",1,3130,"Include"
"KAWY2013_e4","KAWY2013_e4_3","DANCER",99,0,"Immediate",1,1403,"Include"
"KAWY2013_e4","KAWY2013_e4_3","DOME",100,1,"Immediate",3,6988,"Include"
"KAWY2013_e4","KAWY2013_e4_3","SALT",101,1,"Immediate",6,1725,"Include"
"KAWY2013_e4","KAWY2013_e4_3","SCOUT",102,0,"Immediate",3,3778,"Include"
"KAWY2013_e4","KAWY2013_e4_3","BAYONET",103,1,"Immediate",6,1195,"Include"
"KAWY2013_e4","KAWY2013_e4_3","TIDE",104,0,"Immediate",5,1764,"Include"
"KAWY2013_e4","KAWY2013_e4_3","FUSE",105,0,"Immediate",2,3624,"Include"
"KAWY2013_e4","KAWY2013_e4_3","SALOON",106,0,"Immediate",1,1958,"Include"
"KAWY2013_e4","KAWY2013_e4_3","NAIL",107,0,"Immediate",3,2563,"Include"
"KAWY2013_e4","KAWY2013_e4_3","EDUCATOR",108,0,"Immediate",2,1913,"Include"
"KAWY2013_e4","KAWY2013_e4_3","STEM",109,1,"Immediate",6,1383,"Include"
"KAWY2013_e4","KAWY2013_e4_3","TROOP",110,0,"Immediate",3,2553,"Include"
"KAWY2013_e4","KAWY2013_e4_3","LIFT",111,0,"Immediate",3,4271,"Include"
"KAWY2013_e4","KAWY2013_e4_3","VERSE",112,1,"Immediate",6,1142,"Include"
"KAWY2013_e4","KAWY2013_e4_3","SERVANT",113,1,"Immediate",5,4801,"Include"
"KAWY2013_e4","KAWY2013_e4_3","MOISTURE",114,0,"Immediate",2,2868,"Include"
"KAWY2013_e4","KAWY2013_e4_3","FOIL",115,1,"Immediate",6,1151,"Include"
"KAWY2013_e4","KAWY2013_e4_3","POWDER",116,0,"Immediate",1,1961,"Include"
"KAWY2013_e4","KAWY2013_e4_3","BRANCH",117,1,"Immediate",4,2518,"Include"
"KAWY2013_e4","KAWY2013_e4_3","BUCKET",118,0,"Immediate",2,3502,"Include"
"KAWY2013_e4","KAWY2013_e4_3","BAIL",119,0,"Immediate",4,3937,"Include"
"KAWY2013_e4","KAWY2013_e4_3","TUBE",120,1,"Immediate",6,1476,"Include"
"KAWY2013_e4","KAWY2013_e4_3","BUBBLE",121,0,"Immediate",2,3699,"Include"
"KAWY2013_e4","KAWY2013_e4_3","BLOSSOM",122,1,"Immediate",6,1183,"Include"
"KAWY2013_e4","KAWY2013_e4_3","MINERAL",123,1,"Immediate",6,1000,"Include"
"KAWY2013_e4","KAWY2013_e4_3","BACTERIA",124,0,"Immediate",1,3319,"Include"
"KAWY2013_e4","KAWY2013_e4_3","HAIL",125,0,"Immediate",3,2657,"Include"
"KAWY2013_e4","KAWY2013_e4_3","CASH",126,0,"Immediate",3,1668,"Include"
"KAWY2013_e4","KAWY2013_e4_3","MORTAL",127,1,"Immediate",6,1419,"Include"
"KAWY2013_e4","KAWY2013_e4_3","MAKER",128,0,"Immediate",2,3756,"Include"
"KAWY2013_e4","KAWY2013_e4_3","DIET",129,0,"Immediate",1,2229,"Include"
"KAWY2013_e4","KAWY2013_e4_3","RELIC",130,0,"Immediate",1,1384,"Include"
"KAWY2013_e4","KAWY2013_e4_3","BEAST",131,1,"Immediate",6,1306,"Include"
"KAWY2013_e4","KAWY2013_e4_3","MANOR",132,1,"Immediate",6,943,"Include"
"KAWY2013_e4","KAWY2013_e4_3","STABLE",133,0,"Immediate",4,1889,"Include"
"KAWY2013_e4","KAWY2013_e4_3","SLIP",134,1,"Immediate",5,6305,"Include"
"KAWY2013_e4","KAWY2013_e4_3","KICK",135,1,"Immediate",4,5563,"Include"
"KAWY2013_e4","KAWY2013_e4_3","REGISTER",136,0,"Immediate",3,1473,"Include"
"KAWY2013_e4","KAWY2013_e4_3","SEGMENT",137,1,"Immediate",5,1936,"Include"
"KAWY2013_e4","KAWY2013_e4_3","FABRIC",138,0,"Immediate",3,3773,"Include"
"KAWY2013_e4","KAWY2013_e4_3","MEDICINE",139,0,"Immediate",3,2422,"Include"
"KAWY2013_e4","KAWY2013_e4_3","PORCH",140,1,"Immediate",4,2305,"Include"
"KAWY2013_e4","KAWY2013_e4_3","WAVE",141,0,"Immediate",4,1841,"Include"
"KAWY2013_e4","KAWY2013_e4_3","HOOK",142,1,"Immediate",6,1778,"Include"
"KAWY2013_e4","KAWY2013_e4_3","PASSAGE",143,0,"Immediate",3,2966,"Include"
"KAWY2013_e4","KAWY2013_e4_3","PUMP",144,1,"Immediate",6,1117,"Include"
"KAWY2013_e4","KAWY2013_e4_3","TOAST",145,0,"Immediate",2,2377,"Include"
"KAWY2013_e4","KAWY2013_e4_3","FARE",146,0,"Immediate",2,1782,"Include"
"KAWY2013_e4","KAWY2013_e4_3","RANCH",147,1,"Immediate",2,1369,"Include"
"KAWY2013_e4","KAWY2013_e4_3","SHOVEL",148,1,"Immediate",4,4956,"Include"
"KAWY2013_e4","KAWY2013_e4_3","HEEL",149,1,"Immediate",5,2185,"Include"
"KAWY2013_e4","KAWY2013_e4_3","BADGE",150,0,"Immediate",2,3869,"Include"
"KAWY2013_e4","KAWY2013_e4_3","DAWN",151,0,"Immediate",4,4561,"Include"
"KAWY2013_e4","KAWY2013_e4_3","PLATE",152,1,"Immediate",5,3229,"Include"
"KAWY2013_e4","KAWY2013_e4_3","SATIN",153,0,"Immediate",3,3018,"Include"
"KAWY2013_e4","KAWY2013_e4_3","SELF",154,1,"Immediate",6,2511,"Include"
"KAWY2013_e4","KAWY2013_e4_3","COOK",155,0,"Immediate",1,2087,"Include"
"KAWY2013_e4","KAWY2013_e4_3","GRAVEL",156,1,"Immediate",6,1438,"Include"
"KAWY2013_e4","KAWY2013_e4_3","SNAP",157,1,"Immediate",6,2527,"Include"
"KAWY2013_e4","KAWY2013_e4_3","BRUSH",158,0,"Immediate",5,3318,"Include"
"KAWY2013_e4","KAWY2013_e4_3","BOND",159,1,"Immediate",6,2288,"Include"
"KAWY2013_e4","KAWY2013_e4_3","SILK",160,0,"Immediate",4,3888,"Include"
"KAWY2013_e4","KAWY2013_e4_3","DRILL",161,1,"Immediate",6,1973,"Include"
"KAWY2013_e4","KAWY2013_e4_3","HARVEST",162,1,"Immediate",6,993,"Include"
"KAWY2013_e4","KAWY2013_e4_3","CARBON",163,0,"Immediate",3,3954,"Include"
"KAWY2013_e4","KAWY2013_e4_3","CORN",164,0,"Immediate",1,2420,"Include"
"KAWY2013_e4","KAWY2013_e4_3","BLIND",165,0,"Immediate",1,1120,"Include"
"KAWY2013_e4","KAWY2013_e4_3","LATCH",166,1,"Immediate",3,4156,"Include"
"KAWY2013_e4","KAWY2013_e4_3","OYSTER",167,1,"Immediate",3,2214,"Include"
"KAWY2013_e4","KAWY2013_e4_3","CURVE",168,1,"Immediate",6,1657,"Include"
"KAWY2013_e4","KAWY2013_e4_3","PUPIL",169,0,"Immediate",1,3601,"Include"
"KAWY2013_e4","KAWY2013_e4_3","QUILL",170,0,"Immediate",1,2832,"Include"
"KAWY2013_e4","KAWY2013_e4_3","SWAMP",171,0,"Immediate",2,2396,"Include"
"KAWY2013_e4","KAWY2013_e4_3","RATTLE",172,0,"Immediate",3,2168,"Include"
"KAWY2013_e4","KAWY2013_e4_3","KEEL",173,0,"Immediate",3,2893,"Include"
"KAWY2013_e4","KAWY2013_e4_3","IODINE",174,1,"Immediate",6,1431,"Include"
"KAWY2013_e4","KAWY2013_e4_3","RUST",175,0,"Immediate",3,6086,"Include"
"KAWY2013_e4","KAWY2013_e4_3","RUBBER",176,0,"Immediate",3,1576,"Include"
"KAWY2013_e4","KAWY2013_e4_3","LOAD",177,1,"Immediate",3,2243,"Include"
"KAWY2013_e4","KAWY2013_e4_3","HOLIDAY",178,0,"Immediate",2,4422,"Include"
"KAWY2013_e4","KAWY2013_e4_3","EXHAUST",179,0,"Immediate",1,1686,"Include"
"KAWY2013_e4","KAWY2013_e4_3","RIOT",180,1,"Immediate",6,1245,"Include"
"KAWY2013_e4","KAWY2013_e4_3","GOSPEL",181,0,"Immediate",4,5300,"Include"
"KAWY2013_e4","KAWY2013_e4_3","TOMB",182,1,"Immediate",6,1396,"Include"
"KAWY2013_e4","KAWY2013_e4_3","BARREL",183,1,"Immediate",6,1206,"Include"
"KAWY2013_e4","KAWY2013_e4_3","SOAP",184,0,"Immediate",1,1759,"Include"
"KAWY2013_e4","KAWY2013_e4_3","LESSON",185,1,"Immediate",5,3571,"Include"
"KAWY2013_e4","KAWY2013_e4_3","DUEL",186,0,"Immediate",2,3331,"Include"
