"exp","id","item","trial","isold","condition1","rating","RT","excluding"
"KAWY2013_e3","KAWY2013_e3_1","chain.bmp",1,0,"New",1,1769,"Include"
"KAWY2013_e3","KAWY2013_e3_1","fork.bmp",2,0,"New",6,1268,"Include"
"KAWY2013_e3","KAWY2013_e3_1","giraffe.bmp",3,1,"DifferentContext",6,933,"Include"
"KAWY2013_e3","KAWY2013_e3_1","elephant.bmp",4,1,"SameContext",6,1045,"Include"
"KAWY2013_e3","KAWY2013_e3_1","racket.bmp",5,0,"New",4,4335,"Include"
"KAWY2013_e3","KAWY2013_e3_1","drum.bmp",6,1,"SameContext",6,1884,"Include"
"KAWY2013_e3","KAWY2013_e3_1","broom.bmp",7,1,"DifferentContext",1,1938,"Include"
"KAWY2013_e3","KAWY2013_e3_1","stool.bmp",8,1,"SameContext",5,4887,"Include"
"KAWY2013_e3","KAWY2013_e3_1","wateringcan.bmp",9,1,"DifferentContext",5,2796,"Include"
"KAWY2013_e3","KAWY2013_e3_1","thumb.bmp",10,1,"SameContext",6,2027,"Include"
"KAWY2013_e3","KAWY2013_e3_1","spoon.bmp",11,1,"SameContext",6,1131,"Include"
"KAWY2013_e3","KAWY2013_e3_1","cloud.bmp",12,1,"DifferentContext",1,1169,"Include"
"KAWY2013_e3","KAWY2013_e3_1","peanut.bmp",13,1,"DifferentContext",6,1382,"Include"
"KAWY2013_e3","KAWY2013_e3_1","football.bmp",14,1,"DifferentContext",6,1122,"Include"
"KAWY2013_e3","KAWY2013_e3_1","camel.bmp",15,0,"New",1,1577,"Include"
"KAWY2013_e3","KAWY2013_e3_1","telephone.bmp",16,1,"DifferentContext",2,3740,"Include"
"KAWY2013_e3","KAWY2013_e3_1","cigar.bmp",17,1,"SameContext",5,4707,"Include"
"KAWY2013_e3","KAWY2013_e3_1","sweater.bmp",18,1,"SameContext",5,1073,"Include"
"KAWY2013_e3","KAWY2013_e3_1","peacock.bmp",19,0,"New",1,2505,"Include"
"KAWY2013_e3","KAWY2013_e3_1","lips.bmp",20,1,"DifferentContext",6,2198,"Include"
"KAWY2013_e3","KAWY2013_e3_1","squirrel.bmp",21,1,"DifferentContext",4,5087,"Include"
"KAWY2013_e3","KAWY2013_e3_1","skirt.bmp",22,0,"New",2,4236,"Include"
"KAWY2013_e3","KAWY2013_e3_1","comb.bmp",23,0,"New",2,1421,"Include"
"KAWY2013_e3","KAWY2013_e3_1","button.bmp",24,0,"New",2,3415,"Include"
"KAWY2013_e3","KAWY2013_e3_1","monkey.bmp",25,1,"DifferentContext",6,2140,"Include"
"KAWY2013_e3","KAWY2013_e3_1","seahorse.bmp",26,1,"SameContext",6,904,"Include"
"KAWY2013_e3","KAWY2013_e3_1","grapes.bmp",27,0,"New",1,1656,"Include"
"KAWY2013_e3","KAWY2013_e3_1","saltshaker.bmp",28,1,"DifferentContext",5,2185,"Include"
"KAWY2013_e3","KAWY2013_e3_1","kangaroo.bmp",29,0,"New",5,1106,"Include"
"KAWY2013_e3","KAWY2013_e3_1","axe.bmp",30,1,"SameContext",3,2233,"Include"
"KAWY2013_e3","KAWY2013_e3_1","hand.bmp",31,0,"New",3,1394,"Include"
"KAWY2013_e3","KAWY2013_e3_1","suitcase.bmp",32,0,"New",4,2605,"Include"
"KAWY2013_e3","KAWY2013_e3_1","leopard.bmp",33,1,"DifferentContext",6,1220,"Include"
"KAWY2013_e3","KAWY2013_e3_1","nose.bmp",34,0,"New",2,1718,"Include"
"KAWY2013_e3","KAWY2013_e3_1","ladder.bmp",35,1,"DifferentContext",1,1812,"Include"
"KAWY2013_e3","KAWY2013_e3_1","rockingchair.bmp",36,1,"SameContext",6,1165,"Include"
"KAWY2013_e3","KAWY2013_e3_1","refrigerator.bmp",37,1,"DifferentContext",1,1619,"Include"
"KAWY2013_e3","KAWY2013_e3_1","clothespin.bmp",38,0,"New",2,4532,"Include"
"KAWY2013_e3","KAWY2013_e3_1","watermelon.bmp",39,1,"SameContext",6,2105,"Include"
"KAWY2013_e3","KAWY2013_e3_1","hammer.bmp",40,0,"New",5,2903,"Include"
"KAWY2013_e3","KAWY2013_e3_1","wheel.bmp",41,1,"DifferentContext",2,2881,"Include"
"KAWY2013_e3","KAWY2013_e3_1","corn.bmp",42,1,"SameContext",3,1085,"Include"
"KAWY2013_e3","KAWY2013_e3_1","cigarette.bmp",43,1,"SameContext",6,1686,"Include"
"KAWY2013_e3","KAWY2013_e3_1","peach.bmp",44,1,"DifferentContext",4,2133,"Include"
"KAWY2013_e3","KAWY2013_e3_1","deer.bmp",45,1,"DifferentContext",3,5376,"Include"
"KAWY2013_e3","KAWY2013_e3_1","swan.bmp",46,1,"SameContext",5,1601,"Include"
"KAWY2013_e3","KAWY2013_e3_1","ashtray.bmp",47,1,"SameContext",6,1475,"Include"
"KAWY2013_e3","KAWY2013_e3_1","fence.bmp",48,1,"DifferentContext",2,1931,"Include"
"KAWY2013_e3","KAWY2013_e3_1","garbagecan.bmp",49,0,"New",2,2335,"Include"
"KAWY2013_e3","KAWY2013_e3_1","book.bmp",50,1,"DifferentContext",3,3026,"Include"
"KAWY2013_e3","KAWY2013_e3_1","whistle.bmp",51,1,"SameContext",5,2136,"Include"
"KAWY2013_e3","KAWY2013_e3_1","blouse.bmp",52,1,"DifferentContext",3,2500,"Include"
"KAWY2013_e3","KAWY2013_e3_1","gloves.bmp",53,0,"New",3,1616,"Include"
"KAWY2013_e3","KAWY2013_e3_1","artichoke.bmp",54,0,"New",3,1185,"Include"
"KAWY2013_e3","KAWY2013_e3_1","mountain.bmp",55,1,"SameContext",5,1894,"Include"
"KAWY2013_e3","KAWY2013_e3_1","pineapple.bmp",56,0,"New",3,876,"Include"
"KAWY2013_e3","KAWY2013_e3_1","bow.bmp",57,1,"DifferentContext",6,1693,"Include"
"KAWY2013_e3","KAWY2013_e3_1","fish.bmp",58,1,"DifferentContext",3,4058,"Include"
"KAWY2013_e3","KAWY2013_e3_1","saw.bmp",59,0,"New",3,1668,"Include"
"KAWY2013_e3","KAWY2013_e3_1","watch.bmp",60,0,"New",3,1491,"Include"
"KAWY2013_e3","KAWY2013_e3_1","dumbbell.bmp",61,1,"SameContext",3,858,"Include"
"KAWY2013_e3","KAWY2013_e3_1","bread.bmp",62,0,"New",2,972,"Include"
"KAWY2013_e3","KAWY2013_e3_1","ironingboard.bmp",63,0,"New",2,1865,"Include"
"KAWY2013_e3","KAWY2013_e3_1","bug.bmp",64,0,"New",2,3137,"Include"
"KAWY2013_e3","KAWY2013_e3_1","plug.bmp",65,1,"DifferentContext",6,1218,"Include"
"KAWY2013_e3","KAWY2013_e3_1","helicopter.bmp",66,1,"SameContext",6,821,"Include"
"KAWY2013_e3","KAWY2013_e3_1","screw.bmp",67,1,"SameContext",3,3401,"Include"
"KAWY2013_e3","KAWY2013_e3_1","envelope.bmp",68,0,"New",3,1342,"Include"
"KAWY2013_e3","KAWY2013_e3_1","zebra.bmp",69,1,"DifferentContext",1,1692,"Include"
"KAWY2013_e3","KAWY2013_e3_1","sheep.bmp",70,0,"New",1,842,"Include"
"KAWY2013_e3","KAWY2013_e3_1","accordion.bmp",71,1,"DifferentContext",6,1181,"Include"
"KAWY2013_e3","KAWY2013_e3_1","banana.bmp",72,1,"SameContext",5,2945,"Include"
"KAWY2013_e3","KAWY2013_e3_1","orange.bmp",73,1,"SameContext",5,1002,"Include"
"KAWY2013_e3","KAWY2013_e3_1","heart.bmp",74,1,"SameContext",5,1046,"Include"
"KAWY2013_e3","KAWY2013_e3_1","jug.bmp",75,0,"New",2,2001,"Include"
"KAWY2013_e3","KAWY2013_e3_1","pliers.bmp",76,1,"DifferentContext",2,1090,"Include"
"KAWY2013_e3","KAWY2013_e3_1","key.bmp",77,0,"New",1,1370,"Include"
"KAWY2013_e3","KAWY2013_e3_1","foot.bmp",78,1,"DifferentContext",4,1607,"Include"
"KAWY2013_e3","KAWY2013_e3_1","cake.bmp",79,1,"SameContext",3,1545,"Include"
"KAWY2013_e3","KAWY2013_e3_1","vase.bmp",80,1,"DifferentContext",3,878,"Include"
"KAWY2013_e3","KAWY2013_e3_1","dog.bmp",81,0,"New",3,2207,"Include"
"KAWY2013_e3","KAWY2013_e3_1","basket.bmp",82,1,"DifferentContext",4,5528,"Include"
"KAWY2013_e3","KAWY2013_e3_1","dresser.bmp",83,0,"New",3,1202,"Include"
"KAWY2013_e3","KAWY2013_e3_1","motorcycle.bmp",84,1,"DifferentContext",6,1046,"Include"
"KAWY2013_e3","KAWY2013_e3_1","tiger.bmp",85,0,"New",6,2480,"Include"
"KAWY2013_e3","KAWY2013_e3_1","horse.bmp",86,1,"DifferentContext",4,5053,"Include"
"KAWY2013_e3","KAWY2013_e3_1","scissor.bmp",87,0,"New",2,2011,"Include"
"KAWY2013_e3","KAWY2013_e3_1","tool.bmp",88,1,"DifferentContext",5,1403,"Include"
"KAWY2013_e3","KAWY2013_e3_1","tie.bmp",89,1,"SameContext",6,966,"Include"
"KAWY2013_e3","KAWY2013_e3_1","lettuce.bmp",90,1,"SameContext",6,804,"Include"
"KAWY2013_e3","KAWY2013_e3_1","cap.bmp",91,1,"DifferentContext",2,857,"Include"
"KAWY2013_e3","KAWY2013_e3_1","frenchhorn.bmp",92,0,"New",2,699,"Include"
"KAWY2013_e3","KAWY2013_e3_1","desk.bmp",93,1,"SameContext",5,2260,"Include"
"KAWY2013_e3","KAWY2013_e3_1","vest.bmp",94,1,"DifferentContext",1,2170,"Include"
"KAWY2013_e3","KAWY2013_e3_1","top.bmp",95,0,"New",1,789,"Include"
"KAWY2013_e3","KAWY2013_e3_1","airplane.bmp",96,1,"DifferentContext",3,2217,"Include"
"KAWY2013_e3","KAWY2013_e3_1","brush.bmp",97,1,"SameContext",6,962,"Include"
"KAWY2013_e3","KAWY2013_e3_1","chicken.bmp",98,0,"New",6,896,"Include"
"KAWY2013_e3","KAWY2013_e3_1","wineglass.bmp",99,1,"DifferentContext",1,1489,"Include"
"KAWY2013_e3","KAWY2013_e3_1","well.bmp",100,1,"SameContext",4,1720,"Include"
"KAWY2013_e3","KAWY2013_e3_1","belt.bmp",101,1,"SameContext",4,998,"Include"
"KAWY2013_e3","KAWY2013_e3_1","piano.bmp",102,1,"DifferentContext",4,1058,"Include"
"KAWY2013_e3","KAWY2013_e3_1","leaf.bmp",103,1,"DifferentContext",6,1564,"Include"
"KAWY2013_e3","KAWY2013_e3_1","fly.bmp",104,1,"SameContext",6,2032,"Include"
"KAWY2013_e3","KAWY2013_e3_1","grasshopper.bmp",105,1,"SameContext",4,2960,"Include"
"KAWY2013_e3","KAWY2013_e3_1","flag.bmp",106,0,"New",4,1848,"Include"
"KAWY2013_e3","KAWY2013_e3_1","candle.bmp",107,1,"SameContext",6,848,"Include"
"KAWY2013_e3","KAWY2013_e3_1","shirt.bmp",108,1,"DifferentContext",3,2067,"Include"
"KAWY2013_e3","KAWY2013_e3_1","toothbrush.bmp",109,1,"DifferentContext",3,930,"Include"
"KAWY2013_e3","KAWY2013_e3_1","bat.bmp",110,0,"New",2,1633,"Include"
"KAWY2013_e3","KAWY2013_e3_1","glass.bmp",111,1,"DifferentContext",2,626,"Include"
"KAWY2013_e3","KAWY2013_e3_1","cat.bmp",112,1,"SameContext",6,1294,"Include"
"KAWY2013_e3","KAWY2013_e3_1","box.bmp",113,1,"DifferentContext",6,910,"Include"
"KAWY2013_e3","KAWY2013_e3_1","violin.bmp",114,0,"New",2,2126,"Include"
"KAWY2013_e3","KAWY2013_e3_1","rhinoceros.bmp",115,0,"New",1,1321,"Include"
"KAWY2013_e3","KAWY2013_e3_1","mouse.bmp",116,1,"DifferentContext",5,1177,"Include"
"KAWY2013_e3","KAWY2013_e3_1","glasses.bmp",117,1,"DifferentContext",4,1501,"Include"
"KAWY2013_e3","KAWY2013_e3_1","donkey.bmp",118,0,"New",2,1396,"Include"
"KAWY2013_e3","KAWY2013_e3_1","lemon.bmp",119,1,"DifferentContext",4,1711,"Include"
"KAWY2013_e3","KAWY2013_e3_1","kettle.bmp",120,1,"DifferentContext",2,957,"Include"
"KAWY2013_e3","KAWY2013_e3_1","carriage .bmp",121,1,"SameContext",1,1099,"Include"
"KAWY2013_e3","KAWY2013_e3_1","gorilla.bmp",122,1,"SameContext",1,851,"Include"
"KAWY2013_e3","KAWY2013_e3_1","table.bmp",123,1,"DifferentContext",3,2726,"Include"
"KAWY2013_e3","KAWY2013_e3_1","jacket.bmp",124,1,"SameContext",5,2391,"Include"
"KAWY2013_e3","KAWY2013_e3_1","finger.bmp",125,0,"New",4,984,"Include"
"KAWY2013_e3","KAWY2013_e3_1","butterfly.bmp",126,1,"SameContext",3,2197,"Include"
"KAWY2013_e3","KAWY2013_e3_1","gun.bmp",127,1,"SameContext",3,782,"Include"
"KAWY2013_e3","KAWY2013_e3_1","snowman.bmp",128,0,"New",2,3412,"Include"
"KAWY2013_e3","KAWY2013_e3_1","celery.bmp",129,0,"New",2,1017,"Include"
"KAWY2013_e3","KAWY2013_e3_1","nut.bmp",130,1,"SameContext",4,1221,"Include"
"KAWY2013_e3","KAWY2013_e3_1","sun.bmp",131,1,"SameContext",6,1224,"Include"
"KAWY2013_e3","KAWY2013_e3_1","hanger.bmp",132,0,"New",1,3978,"Include"
"KAWY2013_e3","KAWY2013_e3_1","bird.bmp",133,0,"New",1,951,"Include"
"KAWY2013_e3","KAWY2013_e3_1","pepper.bmp",134,1,"DifferentContext",4,1430,"Include"
"KAWY2013_e3","KAWY2013_e3_1","lock.bmp",135,1,"DifferentContext",6,1839,"Include"
"KAWY2013_e3","KAWY2013_e3_1","ostrich.bmp",136,1,"SameContext",1,1016,"Include"
"KAWY2013_e3","KAWY2013_e3_1","barrel.bmp",137,1,"SameContext",5,1540,"Include"
"KAWY2013_e3","KAWY2013_e3_1","bowl.bmp",138,1,"DifferentContext",5,873,"Include"
"KAWY2013_e3","KAWY2013_e3_1","goat.bmp",139,0,"New",2,1034,"Include"
"KAWY2013_e3","KAWY2013_e3_1","sled.bmp",140,1,"DifferentContext",3,1909,"Include"
"KAWY2013_e3","KAWY2013_e3_1","owl.bmp",141,1,"SameContext",5,1018,"Include"
"KAWY2013_e3","KAWY2013_e3_1","boot.bmp",142,1,"SameContext",4,1062,"Include"
"KAWY2013_e3","KAWY2013_e3_1","cannon.bmp",143,0,"New",3,1936,"Include"
"KAWY2013_e3","KAWY2013_e3_1","fox.bmp",144,1,"DifferentContext",1,1380,"Include"
"KAWY2013_e3","KAWY2013_e3_1","necklace.bmp",145,0,"New",1,1248,"Include"
"KAWY2013_e3","KAWY2013_e3_1","rooster.bmp",146,1,"SameContext",6,1089,"Include"
"KAWY2013_e3","KAWY2013_e3_1","caterpillar.bmp",147,1,"SameContext",5,1497,"Include"
"KAWY2013_e3","KAWY2013_e3_1","pipe.bmp",148,0,"New",2,1297,"Include"
"KAWY2013_e3","KAWY2013_e3_1","alligator.bmp",149,1,"DifferentContext",6,3985,"Include"
"KAWY2013_e3","KAWY2013_e3_1","thread.bmp",150,1,"SameContext",4,1357,"Include"
"KAWY2013_e3","KAWY2013_e3_1","truck.bmp",151,0,"New",1,1449,"Include"
"KAWY2013_e3","KAWY2013_e3_1","eagle.bmp",152,1,"SameContext",1,979,"Include"
"KAWY2013_e3","KAWY2013_e3_1","ear.bmp",153,1,"DifferentContext",3,2223,"Include"
"KAWY2013_e3","KAWY2013_e3_1","moon.bmp",154,1,"SameContext",6,1032,"Include"
"KAWY2013_e3","KAWY2013_e3_1","footballhelmet.bmp",155,1,"DifferentContext",5,1490,"Include"
"KAWY2013_e3","KAWY2013_e3_1","guitar.bmp",156,0,"New",4,1433,"Include"
"KAWY2013_e3","KAWY2013_e3_1","snail.bmp",157,1,"SameContext",5,1300,"Include"
"KAWY2013_e3","KAWY2013_e3_1","trumpet.bmp",158,1,"DifferentContext",5,1843,"Include"
"KAWY2013_e3","KAWY2013_e3_1","clown.bmp",159,1,"DifferentContext",1,4251,"Include"
"KAWY2013_e3","KAWY2013_e3_1","paintbrush.bmp",160,0,"New",1,923,"Include"
"KAWY2013_e3","KAWY2013_e3_1","strawberry.bmp",161,0,"New",1,763,"Include"
"KAWY2013_e3","KAWY2013_e3_1","bear.bmp",162,1,"SameContext",2,897,"Include"
"KAWY2013_e3","KAWY2013_e3_1","pot.bmp",163,1,"SameContext",2,914,"Include"
"KAWY2013_e3","KAWY2013_e3_1","mitten.bmp",164,1,"SameContext",5,1026,"Include"
"KAWY2013_e3","KAWY2013_e3_1","hat.bmp",165,1,"SameContext",2,1341,"Include"
"KAWY2013_e3","KAWY2013_e3_1","pen.bmp",166,1,"DifferentContext",5,1050,"Include"
"KAWY2013_e3","KAWY2013_e3_1","trafficlight.bmp",167,1,"SameContext",5,2132,"Include"
"KAWY2013_e3","KAWY2013_e3_1","ball .bmp",168,0,"New",1,1104,"Include"
"KAWY2013_e3","KAWY2013_e3_1","bottle.bmp",169,1,"SameContext",1,1256,"Include"
"KAWY2013_e3","KAWY2013_e3_1","couch.bmp",170,1,"SameContext",3,1721,"Include"
"KAWY2013_e3","KAWY2013_e3_1","house.bmp",171,0,"New",3,1415,"Include"
"KAWY2013_e3","KAWY2013_e3_1","hair.bmp",172,0,"New",3,1906,"Include"
"KAWY2013_e3","KAWY2013_e3_1","mushroom.bmp",173,1,"SameContext",2,1256,"Include"
"KAWY2013_e3","KAWY2013_e3_1","eye.bmp",174,0,"New",1,1017,"Include"
"KAWY2013_e3","KAWY2013_e3_1","lamp.bmp",175,0,"New",1,949,"Include"
"KAWY2013_e3","KAWY2013_e3_1","bus.bmp",176,1,"SameContext",1,1139,"Include"
"KAWY2013_e3","KAWY2013_e3_1","spinningwheel.bmp",177,1,"DifferentContext",1,1097,"Include"
"KAWY2013_e3","KAWY2013_e3_1","skunk.bmp",178,0,"New",1,754,"Include"
"KAWY2013_e3","KAWY2013_e3_1","bed.bmp",179,1,"DifferentContext",1,697,"Include"
"KAWY2013_e3","KAWY2013_e3_1","ant.bmp",180,0,"New",1,739,"Include"
"KAWY2013_e3","KAWY2013_e3_2","football.bmp",1,1,"SameContext",5,2581,"Include"
"KAWY2013_e3","KAWY2013_e3_2","cat.bmp",2,0,"New",5,2509,"Include"
"KAWY2013_e3","KAWY2013_e3_2","purse.bmp",3,1,"DifferentContext",6,2104,"Include"
"KAWY2013_e3","KAWY2013_e3_2","dumbbell.bmp",4,0,"New",2,2885,"Include"
"KAWY2013_e3","KAWY2013_e3_2","bear.bmp",5,0,"New",3,3617,"Include"
"KAWY2013_e3","KAWY2013_e3_2","chair.bmp",6,1,"DifferentContext",5,2941,"Include"
"KAWY2013_e3","KAWY2013_e3_2","spoon.bmp",7,0,"New",4,3686,"Include"
"KAWY2013_e3","KAWY2013_e3_2","hat.bmp",8,0,"New",3,1631,"Include"
"KAWY2013_e3","KAWY2013_e3_2","star.bmp",9,1,"DifferentContext",6,1408,"Include"
"KAWY2013_e3","KAWY2013_e3_2","rabbit.bmp",10,1,"DifferentContext",6,842,"Include"
"KAWY2013_e3","KAWY2013_e3_2","butterfly.bmp",11,0,"New",2,1997,"Include"
"KAWY2013_e3","KAWY2013_e3_2","cherry.bmp",12,1,"DifferentContext",6,1151,"Include"
"KAWY2013_e3","KAWY2013_e3_2","belt.bmp",13,0,"New",5,1509,"Include"
"KAWY2013_e3","KAWY2013_e3_2","pepper.bmp",14,1,"SameContext",6,1067,"Include"
"KAWY2013_e3","KAWY2013_e3_2","cigarette.bmp",15,0,"New",2,6228,"Include"
"KAWY2013_e3","KAWY2013_e3_2","carrot.bmp",16,1,"DifferentContext",1,3680,"Include"
"KAWY2013_e3","KAWY2013_e3_2","penguin.bmp",17,1,"DifferentContext",5,2521,"Include"
"KAWY2013_e3","KAWY2013_e3_2","footballhelmet.bmp",18,1,"SameContext",3,5333,"Include"
"KAWY2013_e3","KAWY2013_e3_2","mushroom.bmp",19,0,"New",3,1368,"Include"
"KAWY2013_e3","KAWY2013_e3_2","rollingpin.bmp",20,1,"DifferentContext",3,1781,"Include"
"KAWY2013_e3","KAWY2013_e3_2","bell.bmp",21,1,"DifferentContext",4,2031,"Include"
"KAWY2013_e3","KAWY2013_e3_2","sailboat.bmp",22,1,"DifferentContext",2,2287,"Include"
"KAWY2013_e3","KAWY2013_e3_2","swan.bmp",23,0,"New",4,3333,"Include"
"KAWY2013_e3","KAWY2013_e3_2","peach.bmp",24,1,"SameContext",5,3132,"Include"
"KAWY2013_e3","KAWY2013_e3_2","mountain.bmp",25,0,"New",2,1292,"Include"
"KAWY2013_e3","KAWY2013_e3_2","television.bmp",26,1,"DifferentContext",6,1196,"Include"
"KAWY2013_e3","KAWY2013_e3_2","bowl.bmp",27,1,"SameContext",6,2864,"Include"
"KAWY2013_e3","KAWY2013_e3_2","glass.bmp",28,1,"SameContext",5,1612,"Include"
"KAWY2013_e3","KAWY2013_e3_2","toaster.bmp",29,1,"DifferentContext",2,1278,"Include"
"KAWY2013_e3","KAWY2013_e3_2","duck.bmp",30,1,"DifferentContext",2,2078,"Include"
"KAWY2013_e3","KAWY2013_e3_2","nail.bmp",31,1,"DifferentContext",6,1372,"Include"
"KAWY2013_e3","KAWY2013_e3_2","heart.bmp",32,0,"New",1,1960,"Include"
"KAWY2013_e3","KAWY2013_e3_2","sock.bmp",33,1,"DifferentContext",5,1291,"Include"
"KAWY2013_e3","KAWY2013_e3_2","sandwich.bmp",34,1,"DifferentContext",4,2906,"Include"
"KAWY2013_e3","KAWY2013_e3_2","wrench.bmp",35,1,"DifferentContext",6,1381,"Include"
"KAWY2013_e3","KAWY2013_e3_2","crown.bmp",36,1,"DifferentContext",5,4081,"Include"
"KAWY2013_e3","KAWY2013_e3_2","blouse.bmp",37,1,"SameContext",6,5017,"Include"
"KAWY2013_e3","KAWY2013_e3_2","cup.bmp",38,1,"DifferentContext",1,1593,"Include"
"KAWY2013_e3","KAWY2013_e3_2","sweater.bmp",39,0,"New",5,1885,"Include"
"KAWY2013_e3","KAWY2013_e3_2","boot.bmp",40,0,"New",2,2227,"Include"
"KAWY2013_e3","KAWY2013_e3_2","motorcycle.bmp",41,1,"SameContext",3,2842,"Include"
"KAWY2013_e3","KAWY2013_e3_2","cigar.bmp",42,0,"New",4,1784,"Include"
"KAWY2013_e3","KAWY2013_e3_2","anchor.bmp",43,1,"DifferentContext",6,1139,"Include"
"KAWY2013_e3","KAWY2013_e3_2","box.bmp",44,1,"SameContext",6,1177,"Include"
"KAWY2013_e3","KAWY2013_e3_2","cap.bmp",45,1,"SameContext",6,942,"Include"
"KAWY2013_e3","KAWY2013_e3_2","owl.bmp",46,0,"New",2,1788,"Include"
"KAWY2013_e3","KAWY2013_e3_2","axe.bmp",47,0,"New",1,3639,"Include"
"KAWY2013_e3","KAWY2013_e3_2","lock.bmp",48,1,"SameContext",5,9825,"Include"
"KAWY2013_e3","KAWY2013_e3_2","stove.bmp",49,1,"DifferentContext",2,1747,"Include"
"KAWY2013_e3","KAWY2013_e3_2","ring.bmp",50,1,"DifferentContext",6,1135,"Include"
"KAWY2013_e3","KAWY2013_e3_2","stool.bmp",51,0,"New",5,1462,"Include"
"KAWY2013_e3","KAWY2013_e3_2","deer.bmp",52,1,"SameContext",6,1790,"Include"
"KAWY2013_e3","KAWY2013_e3_2","drum.bmp",53,0,"New",2,969,"Include"
"KAWY2013_e3","KAWY2013_e3_2","book.bmp",54,1,"SameContext",2,2455,"Include"
"KAWY2013_e3","KAWY2013_e3_2","jacket.bmp",55,0,"New",6,1189,"Include"
"KAWY2013_e3","KAWY2013_e3_2","accordion.bmp",56,1,"SameContext",5,4057,"Include"
"KAWY2013_e3","KAWY2013_e3_2","screw.bmp",57,0,"New",3,3987,"Include"
"KAWY2013_e3","KAWY2013_e3_2","orange.bmp",58,0,"New",4,1695,"Include"
"KAWY2013_e3","KAWY2013_e3_2","clock.bmp",59,1,"DifferentContext",3,4157,"Include"
"KAWY2013_e3","KAWY2013_e3_2","bow.bmp",60,1,"SameContext",6,1330,"Include"
"KAWY2013_e3","KAWY2013_e3_2","pen.bmp",61,1,"SameContext",6,1936,"Include"
"KAWY2013_e3","KAWY2013_e3_2","frog.bmp",62,1,"DifferentContext",6,3844,"Include"
"KAWY2013_e3","KAWY2013_e3_2","flower.bmp",63,1,"DifferentContext",3,1079,"Include"
"KAWY2013_e3","KAWY2013_e3_2","bus.bmp",64,0,"New",4,960,"Include"
"KAWY2013_e3","KAWY2013_e3_2","couch.bmp",65,0,"New",3,2221,"Include"
"KAWY2013_e3","KAWY2013_e3_2","clown.bmp",66,1,"SameContext",6,1173,"Include"
"KAWY2013_e3","KAWY2013_e3_2","ladder.bmp",67,1,"SameContext",6,1450,"Include"
"KAWY2013_e3","KAWY2013_e3_2","spinningwheel.bmp",68,1,"SameContext",3,1955,"Include"
"KAWY2013_e3","KAWY2013_e3_2","rollerrskates.bmp",69,1,"DifferentContext",6,2599,"Include"
"KAWY2013_e3","KAWY2013_e3_2","fly2.bmp",70,1,"DifferentContext",6,1070,"Include"
"KAWY2013_e3","KAWY2013_e3_2","telephone.bmp",71,1,"SameContext",5,1927,"Include"
"KAWY2013_e3","KAWY2013_e3_2","mitten.bmp",72,0,"New",1,2299,"Include"
"KAWY2013_e3","KAWY2013_e3_2","ear.bmp",73,1,"SameContext",6,1103,"Include"
"KAWY2013_e3","KAWY2013_e3_2","ashtray.bmp",74,0,"New",2,1799,"Include"
"KAWY2013_e3","KAWY2013_e3_2","lion.bmp",75,1,"DifferentContext",6,1393,"Include"
"KAWY2013_e3","KAWY2013_e3_2","monkey.bmp",76,1,"SameContext",6,1053,"Include"
"KAWY2013_e3","KAWY2013_e3_2","toothbrush.bmp",77,1,"SameContext",2,1399,"Include"
"KAWY2013_e3","KAWY2013_e3_2","rooster.bmp",78,0,"New",3,3154,"Include"
"KAWY2013_e3","KAWY2013_e3_2","pot.bmp",79,0,"New",3,1234,"Include"
"KAWY2013_e3","KAWY2013_e3_2","asparagus .bmp",80,1,"DifferentContext",4,2564,"Include"
"KAWY2013_e3","KAWY2013_e3_2","snail.bmp",81,0,"New",5,1437,"Include"
"KAWY2013_e3","KAWY2013_e3_2","ostrich.bmp",82,0,"New",2,1911,"Include"
"KAWY2013_e3","KAWY2013_e3_2","basket.bmp",83,1,"SameContext",3,988,"Include"
"KAWY2013_e3","KAWY2013_e3_2","potato.bmp",84,1,"DifferentContext",4,2361,"Include"
"KAWY2013_e3","KAWY2013_e3_2","tomato.bmp",85,1,"DifferentContext",4,5019,"Include"
"KAWY2013_e3","KAWY2013_e3_2","arm.bmp",86,1,"DifferentContext",5,3387,"Include"
"KAWY2013_e3","KAWY2013_e3_2","refrigerator.bmp",87,1,"SameContext",5,2240,"Include"
"KAWY2013_e3","KAWY2013_e3_2","fence.bmp",88,1,"SameContext",2,1192,"Include"
"KAWY2013_e3","KAWY2013_e3_2","swing.bmp",89,1,"DifferentContext",6,1228,"Include"
"KAWY2013_e3","KAWY2013_e3_2","leopard.bmp",90,1,"SameContext",6,734,"Include"
"KAWY2013_e3","KAWY2013_e3_2","thread.bmp",91,0,"New",2,1558,"Include"
"KAWY2013_e3","KAWY2013_e3_2","horse.bmp",92,1,"SameContext",6,986,"Include"
"KAWY2013_e3","KAWY2013_e3_2","thimble.bmp",93,1,"DifferentContext",3,1847,"Include"
"KAWY2013_e3","KAWY2013_e3_2","wheel.bmp",94,1,"SameContext",6,1215,"Include"
"KAWY2013_e3","KAWY2013_e3_2","candle.bmp",95,0,"New",2,1122,"Include"
"KAWY2013_e3","KAWY2013_e3_2","foot.bmp",96,1,"SameContext",3,2585,"Include"
"KAWY2013_e3","KAWY2013_e3_2","zebra.bmp",97,1,"SameContext",6,738,"Include"
"KAWY2013_e3","KAWY2013_e3_2","seahorse.bmp",98,0,"New",1,1545,"Include"
"KAWY2013_e3","KAWY2013_e3_2","shirt.bmp",99,1,"SameContext",5,4157,"Include"
"KAWY2013_e3","KAWY2013_e3_2","carriage .bmp",100,0,"New",2,962,"Include"
"KAWY2013_e3","KAWY2013_e3_2","knife.bmp",101,1,"DifferentContext",6,2384,"Include"
"KAWY2013_e3","KAWY2013_e3_2","cloud.bmp",102,1,"SameContext",6,1025,"Include"
"KAWY2013_e3","KAWY2013_e3_2","coat.bmp",103,1,"DifferentContext",2,1516,"Include"
"KAWY2013_e3","KAWY2013_e3_2","apple.bmp",104,1,"DifferentContext",6,1522,"Include"
"KAWY2013_e3","KAWY2013_e3_2","balloon.bmp",105,1,"DifferentContext",2,3112,"Include"
"KAWY2013_e3","KAWY2013_e3_2","vase.bmp",106,1,"SameContext",3,6921,"Include"
"KAWY2013_e3","KAWY2013_e3_2","wateringcan.bmp",107,1,"SameContext",4,7833,"Include"
"KAWY2013_e3","KAWY2013_e3_2","dress.bmp",108,1,"DifferentContext",3,3408,"Include"
"KAWY2013_e3","KAWY2013_e3_2","nut.bmp",109,0,"New",1,2213,"Include"
"KAWY2013_e3","KAWY2013_e3_2","airplane.bmp",110,1,"SameContext",5,2749,"Include"
"KAWY2013_e3","KAWY2013_e3_2","lips.bmp",111,1,"SameContext",2,1167,"Include"
"KAWY2013_e3","KAWY2013_e3_2","tool.bmp",112,1,"SameContext",4,2644,"Include"
"KAWY2013_e3","KAWY2013_e3_2","fryingpan.bmp",113,1,"DifferentContext",2,2473,"Include"
"KAWY2013_e3","KAWY2013_e3_2","lightbulb.bmp",114,1,"DifferentContext",2,951,"Include"
"KAWY2013_e3","KAWY2013_e3_2","rockingchair.bmp",115,0,"New",2,1110,"Include"
"KAWY2013_e3","KAWY2013_e3_2","brush.bmp",116,0,"New",2,957,"Include"
"KAWY2013_e3","KAWY2013_e3_2","tie.bmp",117,0,"New",2,731,"Include"
"KAWY2013_e3","KAWY2013_e3_2","broom.bmp",118,1,"SameContext",5,2803,"Include"
"KAWY2013_e3","KAWY2013_e3_2","bottle.bmp",119,0,"New",3,1298,"Include"
"KAWY2013_e3","KAWY2013_e3_2","gorilla.bmp",120,0,"New",3,2801,"Include"
"KAWY2013_e3","KAWY2013_e3_2","kettle.bmp",121,1,"SameContext",6,1327,"Include"
"KAWY2013_e3","KAWY2013_e3_2","barrel.bmp",122,0,"New",2,1469,"Include"
"KAWY2013_e3","KAWY2013_e3_2","watermelon.bmp",123,0,"New",2,1574,"Include"
"KAWY2013_e3","KAWY2013_e3_2","wineglass.bmp",124,1,"SameContext",6,1433,"Include"
"KAWY2013_e3","KAWY2013_e3_2","trafficlight.bmp",125,0,"New",2,2707,"Include"
"KAWY2013_e3","KAWY2013_e3_2","nailfile.bmp",126,1,"DifferentContext",1,2695,"Include"
"KAWY2013_e3","KAWY2013_e3_2","saltshaker.bmp",127,1,"SameContext",5,2090,"Include"
"KAWY2013_e3","KAWY2013_e3_2","flute.bmp",128,1,"DifferentContext",2,3128,"Include"
"KAWY2013_e3","KAWY2013_e3_2","squirrel.bmp",129,1,"SameContext",2,1401,"Include"
"KAWY2013_e3","KAWY2013_e3_2","pants.bmp",130,1,"DifferentContext",4,1812,"Include"
"KAWY2013_e3","KAWY2013_e3_2","mouse.bmp",131,1,"SameContext",6,2846,"Include"
"KAWY2013_e3","KAWY2013_e3_2","arrow.bmp",132,1,"DifferentContext",5,4587,"Include"
"KAWY2013_e3","KAWY2013_e3_2","thumb.bmp",133,0,"New",1,2765,"Include"
"KAWY2013_e3","KAWY2013_e3_2","fish.bmp",134,1,"SameContext",6,1277,"Include"
"KAWY2013_e3","KAWY2013_e3_2","eagle.bmp",135,0,"New",3,2893,"Include"
"KAWY2013_e3","KAWY2013_e3_2","plug.bmp",136,1,"SameContext",6,2729,"Include"
"KAWY2013_e3","KAWY2013_e3_2","pig.bmp",137,1,"DifferentContext",3,2427,"Include"
"KAWY2013_e3","KAWY2013_e3_2","needle.bmp",138,1,"DifferentContext",3,681,"Include"
"KAWY2013_e3","KAWY2013_e3_2","raccoon.bmp",139,1,"DifferentContext",3,1012,"Include"
"KAWY2013_e3","KAWY2013_e3_2","trumpet.bmp",140,1,"SameContext",3,960,"Include"
"KAWY2013_e3","KAWY2013_e3_2","banana.bmp",141,0,"New",3,1246,"Include"
"KAWY2013_e3","KAWY2013_e3_2","leaf.bmp",142,1,"SameContext",4,2559,"Include"
"KAWY2013_e3","KAWY2013_e3_2","vest.bmp",143,1,"SameContext",5,1657,"Include"
"KAWY2013_e3","KAWY2013_e3_2","doll.bmp",144,1,"DifferentContext",6,1289,"Include"
"KAWY2013_e3","KAWY2013_e3_2","whistle.bmp",145,0,"New",2,1785,"Include"
"KAWY2013_e3","KAWY2013_e3_2","harp.bmp",146,1,"DifferentContext",6,1060,"Include"
"KAWY2013_e3","KAWY2013_e3_2","fox.bmp",147,1,"SameContext",2,878,"Include"
"KAWY2013_e3","KAWY2013_e3_2","piano.bmp",148,1,"SameContext",2,1710,"Include"
"KAWY2013_e3","KAWY2013_e3_2","sun.bmp",149,0,"New",2,2252,"Include"
"KAWY2013_e3","KAWY2013_e3_2","desk.bmp",150,0,"New",3,867,"Include"
"KAWY2013_e3","KAWY2013_e3_2","glasses.bmp",151,1,"SameContext",6,981,"Include"
"KAWY2013_e3","KAWY2013_e3_2","lettuce.bmp",152,0,"New",3,1410,"Include"
"KAWY2013_e3","KAWY2013_e3_2","recordplayer.bmp",153,1,"DifferentContext",3,1004,"Include"
"KAWY2013_e3","KAWY2013_e3_2","grasshopper.bmp",154,0,"New",3,1225,"Include"
"KAWY2013_e3","KAWY2013_e3_2","corn.bmp",155,0,"New",3,747,"Include"
"KAWY2013_e3","KAWY2013_e3_2","caterpillar.bmp",156,0,"New",3,706,"Include"
"KAWY2013_e3","KAWY2013_e3_2","pliers.bmp",157,1,"SameContext",6,779,"Include"
"KAWY2013_e3","KAWY2013_e3_2","moon.bmp",158,0,"New",3,832,"Include"
"KAWY2013_e3","KAWY2013_e3_2","alligator.bmp",159,1,"SameContext",2,1140,"Include"
"KAWY2013_e3","KAWY2013_e3_2","lobster.bmp",160,1,"DifferentContext",2,1242,"Include"
"KAWY2013_e3","KAWY2013_e3_2","bike.bmp",161,1,"DifferentContext",3,988,"Include"
"KAWY2013_e3","KAWY2013_e3_2","peanut.bmp",162,1,"SameContext",3,1449,"Include"
"KAWY2013_e3","KAWY2013_e3_2","elephant.bmp",163,0,"New",3,930,"Include"
"KAWY2013_e3","KAWY2013_e3_2","lemon.bmp",164,1,"SameContext",2,1089,"Include"
"KAWY2013_e3","KAWY2013_e3_2","giraffe.bmp",165,1,"SameContext",3,793,"Include"
"KAWY2013_e3","KAWY2013_e3_2","helicopter.bmp",166,0,"New",3,703,"Include"
"KAWY2013_e3","KAWY2013_e3_2","well.bmp",167,0,"New",3,792,"Include"
"KAWY2013_e3","KAWY2013_e3_2","seal.bmp",168,1,"DifferentContext",6,1053,"Include"
"KAWY2013_e3","KAWY2013_e3_2","sled.bmp",169,1,"SameContext",6,1047,"Include"
"KAWY2013_e3","KAWY2013_e3_2","cake.bmp",170,0,"New",2,930,"Include"
"KAWY2013_e3","KAWY2013_e3_2","fly.bmp",171,0,"New",2,993,"Include"
"KAWY2013_e3","KAWY2013_e3_2","bed.bmp",172,1,"SameContext",6,1133,"Include"
"KAWY2013_e3","KAWY2013_e3_2","table.bmp",173,1,"SameContext",3,2820,"Include"
"KAWY2013_e3","KAWY2013_e3_2","pumpkin.bmp",174,1,"DifferentContext",6,2082,"Include"
"KAWY2013_e3","KAWY2013_e3_2","car.bmp",175,1,"DifferentContext",4,3728,"Include"
"KAWY2013_e3","KAWY2013_e3_2","iron.bmp",176,1,"DifferentContext",3,2600,"Include"
"KAWY2013_e3","KAWY2013_e3_2","gun.bmp",177,0,"New",4,1215,"Include"
"KAWY2013_e3","KAWY2013_e3_2","door.bmp",178,1,"DifferentContext",3,770,"Include"
"KAWY2013_e3","KAWY2013_e3_2","wagon.bmp",179,1,"DifferentContext",5,2121,"Include"
"KAWY2013_e3","KAWY2013_e3_2","screwdriver.bmp",180,1,"DifferentContext",5,3093,"Include"
"KAWY2013_e3","KAWY2013_e3_3","suitcase.bmp",1,1,"DifferentContext",6,1966,"Include"
"KAWY2013_e3","KAWY2013_e3_3","purse.bmp",2,1,"SameContext",6,913,"Include"
"KAWY2013_e3","KAWY2013_e3_3","peacock.bmp",3,1,"DifferentContext",6,881,"Include"
"KAWY2013_e3","KAWY2013_e3_3","cap.bmp",4,0,"New",1,5363,"Include"
"KAWY2013_e3","KAWY2013_e3_3","bat.bmp",5,1,"DifferentContext",6,1156,"Include"
"KAWY2013_e3","KAWY2013_e3_3","dresser.bmp",6,1,"DifferentContext",6,1321,"Include"
"KAWY2013_e3","KAWY2013_e3_3","grapes.bmp",7,1,"DifferentContext",6,1001,"Include"
"KAWY2013_e3","KAWY2013_e3_3","nose.bmp",8,1,"DifferentContext",6,1237,"Include"
"KAWY2013_e3","KAWY2013_e3_3","raccoon.bmp",9,1,"SameContext",6,1015,"Include"
"KAWY2013_e3","KAWY2013_e3_3","apple.bmp",10,1,"SameContext",6,755,"Include"
"KAWY2013_e3","KAWY2013_e3_3","harp.bmp",11,1,"SameContext",6,745,"Include"
"KAWY2013_e3","KAWY2013_e3_3","wagon.bmp",12,1,"SameContext",6,785,"Include"
"KAWY2013_e3","KAWY2013_e3_3","saltshaker.bmp",13,0,"New",5,1655,"Include"
"KAWY2013_e3","KAWY2013_e3_3","necklace.bmp",14,1,"DifferentContext",6,888,"Include"
"KAWY2013_e3","KAWY2013_e3_3","pants.bmp",15,1,"SameContext",6,729,"Include"
"KAWY2013_e3","KAWY2013_e3_3","sandwich.bmp",16,1,"SameContext",6,3105,"Include"
"KAWY2013_e3","KAWY2013_e3_3","duck.bmp",17,1,"SameContext",6,787,"Include"
"KAWY2013_e3","KAWY2013_e3_3","basket.bmp",18,0,"New",1,4041,"Include"
"KAWY2013_e3","KAWY2013_e3_3","blouse.bmp",19,0,"New",1,1075,"Include"
"KAWY2013_e3","KAWY2013_e3_3","celery.bmp",20,1,"DifferentContext",6,1339,"Include"
"KAWY2013_e3","KAWY2013_e3_3","penguin.bmp",21,1,"SameContext",6,1049,"Include"
"KAWY2013_e3","KAWY2013_e3_3","hammer.bmp",22,1,"DifferentContext",6,772,"Include"
"KAWY2013_e3","KAWY2013_e3_3","seal.bmp",23,1,"SameContext",6,857,"Include"
"KAWY2013_e3","KAWY2013_e3_3","sock.bmp",24,1,"SameContext",4,2188,"Include"
"KAWY2013_e3","KAWY2013_e3_3","car.bmp",25,1,"SameContext",5,2166,"Include"
"KAWY2013_e3","KAWY2013_e3_3","cloud.bmp",26,0,"New",1,1360,"Include"
"KAWY2013_e3","KAWY2013_e3_3","monkey.bmp",27,0,"New",6,1773,"Include"
"KAWY2013_e3","KAWY2013_e3_3","glasses.bmp",28,0,"New",6,1511,"Include"
"KAWY2013_e3","KAWY2013_e3_3","racket.bmp",29,1,"DifferentContext",6,893,"Include"
"KAWY2013_e3","KAWY2013_e3_3","pen.bmp",30,0,"New",6,3358,"Include"
"KAWY2013_e3","KAWY2013_e3_3","fence.bmp",31,0,"New",1,1221,"Include"
"KAWY2013_e3","KAWY2013_e3_3","sailboat.bmp",32,1,"SameContext",2,1256,"Include"
"KAWY2013_e3","KAWY2013_e3_3","kangaroo.bmp",33,1,"DifferentContext",6,1177,"Include"
"KAWY2013_e3","KAWY2013_e3_3","footballhelmet.bmp",34,0,"New",1,1278,"Include"
"KAWY2013_e3","KAWY2013_e3_3","nail.bmp",35,1,"SameContext",6,1215,"Include"
"KAWY2013_e3","KAWY2013_e3_3","lemon.bmp",36,0,"New",5,1858,"Include"
"KAWY2013_e3","KAWY2013_e3_3","telephone.bmp",37,0,"New",4,1913,"Include"
"KAWY2013_e3","KAWY2013_e3_3","hand.bmp",38,1,"DifferentContext",5,2863,"Include"
"KAWY2013_e3","KAWY2013_e3_3","giraffe.bmp",39,0,"New",1,1403,"Include"
"KAWY2013_e3","KAWY2013_e3_3","peanut.bmp",40,0,"New",1,1574,"Include"
"KAWY2013_e3","KAWY2013_e3_3","kettle.bmp",41,0,"New",2,2441,"Include"
"KAWY2013_e3","KAWY2013_e3_3","zebra.bmp",42,0,"New",3,1113,"Include"
"KAWY2013_e3","KAWY2013_e3_3","clothespin.bmp",43,1,"DifferentContext",6,1168,"Include"
"KAWY2013_e3","KAWY2013_e3_3","jug.bmp",44,1,"DifferentContext",6,821,"Include"
"KAWY2013_e3","KAWY2013_e3_3","sled.bmp",45,0,"New",3,1481,"Include"
"KAWY2013_e3","KAWY2013_e3_3","leopard.bmp",46,0,"New",6,1233,"Include"
"KAWY2013_e3","KAWY2013_e3_3","bird.bmp",47,1,"DifferentContext",4,1123,"Include"
"KAWY2013_e3","KAWY2013_e3_3","door.bmp",48,1,"SameContext",5,7098,"Include"
"KAWY2013_e3","KAWY2013_e3_3","tiger.bmp",49,1,"DifferentContext",5,1857,"Include"
"KAWY2013_e3","KAWY2013_e3_3","screwdriver.bmp",50,1,"SameContext",6,2169,"Include"
"KAWY2013_e3","KAWY2013_e3_3","toaster.bmp",51,1,"SameContext",1,1283,"Include"
"KAWY2013_e3","KAWY2013_e3_3","lock.bmp",52,0,"New",1,1107,"Include"
"KAWY2013_e3","KAWY2013_e3_3","lobster.bmp",53,1,"SameContext",2,1595,"Include"
"KAWY2013_e3","KAWY2013_e3_3","arrow.bmp",54,1,"SameContext",6,1340,"Include"
"KAWY2013_e3","KAWY2013_e3_3","skirt.bmp",55,1,"DifferentContext",2,1465,"Include"
"KAWY2013_e3","KAWY2013_e3_3","accordion.bmp",56,0,"New",1,1507,"Include"
"KAWY2013_e3","KAWY2013_e3_3","lion.bmp",57,1,"SameContext",5,3880,"Include"
"KAWY2013_e3","KAWY2013_e3_3","camel.bmp",58,1,"DifferentContext",1,2441,"Include"
"KAWY2013_e3","KAWY2013_e3_3","motorcycle.bmp",59,0,"New",1,969,"Include"
"KAWY2013_e3","KAWY2013_e3_3","saw.bmp",60,1,"DifferentContext",4,2342,"Include"
"KAWY2013_e3","KAWY2013_e3_3","vase.bmp",61,0,"New",1,1033,"Include"
"KAWY2013_e3","KAWY2013_e3_3","dog.bmp",62,1,"DifferentContext",1,1204,"Include"
"KAWY2013_e3","KAWY2013_e3_3","fox.bmp",63,0,"New",1,840,"Include"
"KAWY2013_e3","KAWY2013_e3_3","coat.bmp",64,1,"SameContext",5,1579,"Include"
"KAWY2013_e3","KAWY2013_e3_3","plug.bmp",65,0,"New",1,1134,"Include"
"KAWY2013_e3","KAWY2013_e3_3","pumpkin.bmp",66,1,"SameContext",6,1829,"Include"
"KAWY2013_e3","KAWY2013_e3_3","watch.bmp",67,1,"DifferentContext",6,1070,"Include"
"KAWY2013_e3","KAWY2013_e3_3","violin.bmp",68,1,"DifferentContext",2,1351,"Include"
"KAWY2013_e3","KAWY2013_e3_3","artichoke.bmp",69,1,"DifferentContext",6,1156,"Include"
"KAWY2013_e3","KAWY2013_e3_3","squirrel.bmp",70,0,"New",2,1050,"Include"
"KAWY2013_e3","KAWY2013_e3_3","fork.bmp",71,1,"DifferentContext",5,2196,"Include"
"KAWY2013_e3","KAWY2013_e3_3","fish.bmp",72,0,"New",1,1245,"Include"
"KAWY2013_e3","KAWY2013_e3_3","ring.bmp",73,1,"SameContext",6,1070,"Include"
"KAWY2013_e3","KAWY2013_e3_3","pipe.bmp",74,1,"DifferentContext",6,1944,"Include"
"KAWY2013_e3","KAWY2013_e3_3","sheep.bmp",75,1,"DifferentContext",5,1531,"Include"
"KAWY2013_e3","KAWY2013_e3_3","wheel.bmp",76,0,"New",1,1121,"Include"
"KAWY2013_e3","KAWY2013_e3_3","leaf.bmp",77,0,"New",1,2520,"Include"
"KAWY2013_e3","KAWY2013_e3_3","recordplayer.bmp",78,1,"SameContext",1,723,"Include"
"KAWY2013_e3","KAWY2013_e3_3","table.bmp",79,0,"New",1,1291,"Include"
"KAWY2013_e3","KAWY2013_e3_3","asparagus .bmp",80,1,"SameContext",6,1947,"Include"
"KAWY2013_e3","KAWY2013_e3_3","balloon.bmp",81,1,"SameContext",6,942,"Include"
"KAWY2013_e3","KAWY2013_e3_3","arm.bmp",82,1,"SameContext",5,2957,"Include"
"KAWY2013_e3","KAWY2013_e3_3","fryingpan.bmp",83,1,"SameContext",6,1365,"Include"
"KAWY2013_e3","KAWY2013_e3_3","ironingboard.bmp",84,1,"DifferentContext",1,1762,"Include"
"KAWY2013_e3","KAWY2013_e3_3","glass.bmp",85,0,"New",1,2445,"Include"
"KAWY2013_e3","KAWY2013_e3_3","lamp.bmp",86,1,"DifferentContext",2,1723,"Include"
"KAWY2013_e3","KAWY2013_e3_3","skunk.bmp",87,1,"DifferentContext",1,1433,"Include"
"KAWY2013_e3","KAWY2013_e3_3","flower.bmp",88,1,"SameContext",6,1218,"Include"
"KAWY2013_e3","KAWY2013_e3_3","wrench.bmp",89,1,"SameContext",6,1093,"Include"
"KAWY2013_e3","KAWY2013_e3_3","bread.bmp",90,1,"DifferentContext",6,909,"Include"
"KAWY2013_e3","KAWY2013_e3_3","thimble.bmp",91,1,"SameContext",6,1085,"Include"
"KAWY2013_e3","KAWY2013_e3_3","airplane.bmp",92,0,"New",2,1670,"Include"
"KAWY2013_e3","KAWY2013_e3_3","peach.bmp",93,0,"New",1,2037,"Include"
"KAWY2013_e3","KAWY2013_e3_3","eye.bmp",94,1,"DifferentContext",6,1109,"Include"
"KAWY2013_e3","KAWY2013_e3_3","dress.bmp",95,1,"SameContext",5,1389,"Include"
"KAWY2013_e3","KAWY2013_e3_3","crown.bmp",96,1,"SameContext",6,1673,"Include"
"KAWY2013_e3","KAWY2013_e3_3","pig.bmp",97,1,"SameContext",6,808,"Include"
"KAWY2013_e3","KAWY2013_e3_3","comb.bmp",98,1,"DifferentContext",6,1117,"Include"
"KAWY2013_e3","KAWY2013_e3_3","rabbit.bmp",99,1,"SameContext",5,2676,"Include"
"KAWY2013_e3","KAWY2013_e3_3","finger.bmp",100,1,"DifferentContext",1,2569,"Include"
"KAWY2013_e3","KAWY2013_e3_3","tool.bmp",101,0,"New",1,1634,"Include"
"KAWY2013_e3","KAWY2013_e3_3","nailfile.bmp",102,1,"SameContext",3,1715,"Include"
"KAWY2013_e3","KAWY2013_e3_3","lightbulb.bmp",103,1,"SameContext",6,1633,"Include"
"KAWY2013_e3","KAWY2013_e3_3","envelope.bmp",104,1,"DifferentContext",3,2850,"Include"
"KAWY2013_e3","KAWY2013_e3_3","clock.bmp",105,1,"SameContext",6,1231,"Include"
"KAWY2013_e3","KAWY2013_e3_3","foot.bmp",106,0,"New",1,2337,"Include"
"KAWY2013_e3","KAWY2013_e3_3","paintbrush.bmp",107,1,"DifferentContext",2,2052,"Include"
"KAWY2013_e3","KAWY2013_e3_3","deer.bmp",108,0,"New",1,1027,"Include"
"KAWY2013_e3","KAWY2013_e3_3","carrot.bmp",109,1,"SameContext",2,1246,"Include"
"KAWY2013_e3","KAWY2013_e3_3","bowl.bmp",110,0,"New",2,2160,"Include"
"KAWY2013_e3","KAWY2013_e3_3","stove.bmp",111,1,"SameContext",1,1786,"Include"
"KAWY2013_e3","KAWY2013_e3_3","book.bmp",112,0,"New",3,2149,"Include"
"KAWY2013_e3","KAWY2013_e3_3","rhinoceros.bmp",113,1,"DifferentContext",6,976,"Include"
"KAWY2013_e3","KAWY2013_e3_3","doll.bmp",114,1,"SameContext",6,1821,"Include"
"KAWY2013_e3","KAWY2013_e3_3","tomato.bmp",115,1,"SameContext",5,1366,"Include"
"KAWY2013_e3","KAWY2013_e3_3","garbagecan.bmp",116,1,"DifferentContext",1,2355,"Include"
"KAWY2013_e3","KAWY2013_e3_3","ant.bmp",117,1,"DifferentContext",4,2853,"Include"
"KAWY2013_e3","KAWY2013_e3_3","ball .bmp",118,1,"DifferentContext",2,2162,"Include"
"KAWY2013_e3","KAWY2013_e3_3","trumpet.bmp",119,0,"New",1,1435,"Include"
"KAWY2013_e3","KAWY2013_e3_3","scissor.bmp",120,1,"DifferentContext",2,4117,"Include"
"KAWY2013_e3","KAWY2013_e3_3","toothbrush.bmp",121,0,"New",3,2267,"Include"
"KAWY2013_e3","KAWY2013_e3_3","ladder.bmp",122,0,"New",1,1249,"Include"
"KAWY2013_e3","KAWY2013_e3_3","snowman.bmp",123,1,"DifferentContext",6,2051,"Include"
"KAWY2013_e3","KAWY2013_e3_3","key.bmp",124,1,"DifferentContext",6,3890,"Include"
"KAWY2013_e3","KAWY2013_e3_3","anchor.bmp",125,1,"SameContext",6,994,"Include"
"KAWY2013_e3","KAWY2013_e3_3","bow.bmp",126,0,"New",1,1311,"Include"
"KAWY2013_e3","KAWY2013_e3_3","cup.bmp",127,1,"SameContext",1,1166,"Include"
"KAWY2013_e3","KAWY2013_e3_3","needle.bmp",128,1,"SameContext",5,2291,"Include"
"KAWY2013_e3","KAWY2013_e3_3","rollingpin.bmp",129,1,"SameContext",1,1080,"Include"
"KAWY2013_e3","KAWY2013_e3_3","mouse.bmp",130,0,"New",5,1425,"Include"
"KAWY2013_e3","KAWY2013_e3_3","broom.bmp",131,0,"New",4,2587,"Include"
"KAWY2013_e3","KAWY2013_e3_3","guitar.bmp",132,1,"DifferentContext",2,1587,"Include"
"KAWY2013_e3","KAWY2013_e3_3","clown.bmp",133,0,"New",1,918,"Include"
"KAWY2013_e3","KAWY2013_e3_3","goat.bmp",134,1,"DifferentContext",3,3766,"Include"
"KAWY2013_e3","KAWY2013_e3_3","iron.bmp",135,1,"SameContext",2,1180,"Include"
"KAWY2013_e3","KAWY2013_e3_3","vest.bmp",136,0,"New",1,1296,"Include"
"KAWY2013_e3","KAWY2013_e3_3","alligator.bmp",137,0,"New",1,816,"Include"
"KAWY2013_e3","KAWY2013_e3_3","house.bmp",138,1,"DifferentContext",4,1572,"Include"
"KAWY2013_e3","KAWY2013_e3_3","piano.bmp",139,0,"New",1,1608,"Include"
"KAWY2013_e3","KAWY2013_e3_3","frog.bmp",140,1,"SameContext",6,1098,"Include"
"KAWY2013_e3","KAWY2013_e3_3","cherry.bmp",141,1,"SameContext",6,1202,"Include"
"KAWY2013_e3","KAWY2013_e3_3","chair.bmp",142,1,"SameContext",6,1446,"Include"
"KAWY2013_e3","KAWY2013_e3_3","knife.bmp",143,1,"SameContext",1,1263,"Include"
"KAWY2013_e3","KAWY2013_e3_3","chicken.bmp",144,1,"DifferentContext",2,1136,"Include"
"KAWY2013_e3","KAWY2013_e3_3","flag.bmp",145,1,"DifferentContext",2,1190,"Include"
"KAWY2013_e3","KAWY2013_e3_3","flute.bmp",146,1,"SameContext",6,1162,"Include"
"KAWY2013_e3","KAWY2013_e3_3","strawberry.bmp",147,1,"DifferentContext",1,3567,"Include"
"KAWY2013_e3","KAWY2013_e3_3","fly2.bmp",148,1,"SameContext",1,2525,"Include"
"KAWY2013_e3","KAWY2013_e3_3","star.bmp",149,1,"SameContext",6,1080,"Include"
"KAWY2013_e3","KAWY2013_e3_3","horse.bmp",150,0,"New",2,1936,"Include"
"KAWY2013_e3","KAWY2013_e3_3","shirt.bmp",151,0,"New",6,1237,"Include"
"KAWY2013_e3","KAWY2013_e3_3","pliers.bmp",152,0,"New",6,1159,"Include"
"KAWY2013_e3","KAWY2013_e3_3","button.bmp",153,1,"DifferentContext",5,3660,"Include"
"KAWY2013_e3","KAWY2013_e3_3","lips.bmp",154,0,"New",1,1271,"Include"
"KAWY2013_e3","KAWY2013_e3_3","bell.bmp",155,1,"SameContext",1,1672,"Include"
"KAWY2013_e3","KAWY2013_e3_3","cannon.bmp",156,1,"DifferentContext",6,1255,"Include"
"KAWY2013_e3","KAWY2013_e3_3","football.bmp",157,0,"New",1,1081,"Include"
"KAWY2013_e3","KAWY2013_e3_3","television.bmp",158,1,"SameContext",2,3506,"Include"
"KAWY2013_e3","KAWY2013_e3_3","potato.bmp",159,1,"SameContext",2,1187,"Include"
"KAWY2013_e3","KAWY2013_e3_3","box.bmp",160,0,"New",1,1335,"Include"
"KAWY2013_e3","KAWY2013_e3_3","hanger.bmp",161,1,"DifferentContext",1,805,"Include"
"KAWY2013_e3","KAWY2013_e3_3","bike.bmp",162,1,"SameContext",6,1129,"Include"
"KAWY2013_e3","KAWY2013_e3_3","bug.bmp",163,1,"DifferentContext",5,1153,"Include"
"KAWY2013_e3","KAWY2013_e3_3","pineapple.bmp",164,1,"DifferentContext",1,1063,"Include"
"KAWY2013_e3","KAWY2013_e3_3","ear.bmp",165,0,"New",3,1808,"Include"
"KAWY2013_e3","KAWY2013_e3_3","spinningwheel.bmp",166,0,"New",1,969,"Include"
"KAWY2013_e3","KAWY2013_e3_3","hair.bmp",167,1,"DifferentContext",6,1160,"Include"
"KAWY2013_e3","KAWY2013_e3_3","chain.bmp",168,1,"DifferentContext",6,925,"Include"
"KAWY2013_e3","KAWY2013_e3_3","pepper.bmp",169,0,"New",5,1629,"Include"
"KAWY2013_e3","KAWY2013_e3_3","gloves.bmp",170,1,"DifferentContext",1,1102,"Include"
"KAWY2013_e3","KAWY2013_e3_3","wateringcan.bmp",171,0,"New",2,1222,"Include"
"KAWY2013_e3","KAWY2013_e3_3","rollerrskates.bmp",172,1,"SameContext",6,1033,"Include"
"KAWY2013_e3","KAWY2013_e3_3","swing.bmp",173,1,"SameContext",6,1028,"Include"
"KAWY2013_e3","KAWY2013_e3_3","bed.bmp",174,0,"New",1,4495,"Include"
"KAWY2013_e3","KAWY2013_e3_3","donkey.bmp",175,1,"DifferentContext",2,1381,"Include"
"KAWY2013_e3","KAWY2013_e3_3","truck.bmp",176,1,"DifferentContext",6,1009,"Include"
"KAWY2013_e3","KAWY2013_e3_3","wineglass.bmp",177,0,"New",1,1181,"Include"
"KAWY2013_e3","KAWY2013_e3_3","refrigerator.bmp",178,0,"New",1,2066,"Include"
"KAWY2013_e3","KAWY2013_e3_3","top.bmp",179,1,"DifferentContext",2,832,"Include"
"KAWY2013_e3","KAWY2013_e3_3","frenchhorn.bmp",180,1,"DifferentContext",1,996,"Include"
"KAWY2013_e3","KAWY2013_e3_4","hand.bmp",1,1,"SameContext",6,2937,"Include"
"KAWY2013_e3","KAWY2013_e3_4","axe.bmp",2,1,"DifferentContext",6,754,"Include"
"KAWY2013_e3","KAWY2013_e3_4","bird.bmp",3,1,"SameContext",6,873,"Include"
"KAWY2013_e3","KAWY2013_e3_4","celery.bmp",4,1,"SameContext",3,2027,"Include"
"KAWY2013_e3","KAWY2013_e3_4","cat.bmp",5,1,"DifferentContext",3,3675,"Include"
"KAWY2013_e3","KAWY2013_e3_4","tomato.bmp",6,0,"New",5,3188,"Include"
"KAWY2013_e3","KAWY2013_e3_4","iron.bmp",7,0,"New",2,1331,"Include"
"KAWY2013_e3","KAWY2013_e3_4","caterpillar.bmp",8,1,"DifferentContext",6,1041,"Include"
"KAWY2013_e3","KAWY2013_e3_4","suitcase.bmp",9,1,"SameContext",6,1035,"Include"
"KAWY2013_e3","KAWY2013_e3_4","violin.bmp",10,1,"SameContext",6,1206,"Include"
"KAWY2013_e3","KAWY2013_e3_4","arm.bmp",11,0,"New",2,1353,"Include"
"KAWY2013_e3","KAWY2013_e3_4","belt.bmp",12,1,"DifferentContext",5,1655,"Include"
"KAWY2013_e3","KAWY2013_e3_4","whistle.bmp",13,1,"DifferentContext",6,1656,"Include"
"KAWY2013_e3","KAWY2013_e3_4","candle.bmp",14,1,"DifferentContext",6,1352,"Include"
"KAWY2013_e3","KAWY2013_e3_4","lion.bmp",15,0,"New",6,2758,"Include"
"KAWY2013_e3","KAWY2013_e3_4","swing.bmp",16,0,"New",1,1927,"Include"
"KAWY2013_e3","KAWY2013_e3_4","arrow.bmp",17,0,"New",1,2667,"Include"
"KAWY2013_e3","KAWY2013_e3_4","envelope.bmp",18,1,"SameContext",6,1136,"Include"
"KAWY2013_e3","KAWY2013_e3_4","jacket.bmp",19,1,"DifferentContext",5,1094,"Include"
"KAWY2013_e3","KAWY2013_e3_4","skirt.bmp",20,1,"SameContext",5,846,"Include"
"KAWY2013_e3","KAWY2013_e3_4","flag.bmp",21,1,"SameContext",6,1009,"Include"
"KAWY2013_e3","KAWY2013_e3_4","dresser.bmp",22,1,"SameContext",6,1021,"Include"
"KAWY2013_e3","KAWY2013_e3_4","screwdriver.bmp",23,0,"New",6,1065,"Include"
"KAWY2013_e3","KAWY2013_e3_4","desk.bmp",24,1,"DifferentContext",2,1250,"Include"
"KAWY2013_e3","KAWY2013_e3_4","watermelon.bmp",25,1,"DifferentContext",6,820,"Include"
"KAWY2013_e3","KAWY2013_e3_4","ant.bmp",26,1,"SameContext",6,920,"Include"
"KAWY2013_e3","KAWY2013_e3_4","cup.bmp",27,0,"New",3,2088,"Include"
"KAWY2013_e3","KAWY2013_e3_4","strawberry.bmp",28,1,"SameContext",5,1126,"Include"
"KAWY2013_e3","KAWY2013_e3_4","guitar.bmp",29,1,"SameContext",6,1084,"Include"
"KAWY2013_e3","KAWY2013_e3_4","key.bmp",30,1,"SameContext",6,965,"Include"
"KAWY2013_e3","KAWY2013_e3_4","door.bmp",31,0,"New",2,3939,"Include"
"KAWY2013_e3","KAWY2013_e3_4","crown.bmp",32,0,"New",4,2113,"Include"
"KAWY2013_e3","KAWY2013_e3_4","rhinoceros.bmp",33,1,"SameContext",6,1806,"Include"
"KAWY2013_e3","KAWY2013_e3_4","spoon.bmp",34,1,"DifferentContext",6,759,"Include"
"KAWY2013_e3","KAWY2013_e3_4","bottle.bmp",35,1,"DifferentContext",5,1229,"Include"
"KAWY2013_e3","KAWY2013_e3_4","potato.bmp",36,0,"New",6,1055,"Include"
"KAWY2013_e3","KAWY2013_e3_4","boot.bmp",37,1,"DifferentContext",6,1337,"Include"
"KAWY2013_e3","KAWY2013_e3_4","nut.bmp",38,1,"DifferentContext",6,2087,"Include"
"KAWY2013_e3","KAWY2013_e3_4","stove.bmp",39,0,"New",4,4213,"Include"
"KAWY2013_e3","KAWY2013_e3_4","tie.bmp",40,1,"DifferentContext",6,1016,"Include"
"KAWY2013_e3","KAWY2013_e3_4","grapes.bmp",41,1,"SameContext",6,1123,"Include"
"KAWY2013_e3","KAWY2013_e3_4","mushroom.bmp",42,1,"DifferentContext",2,1626,"Include"
"KAWY2013_e3","KAWY2013_e3_4","pumpkin.bmp",43,0,"New",3,2731,"Include"
"KAWY2013_e3","KAWY2013_e3_4","knife.bmp",44,0,"New",3,1293,"Include"
"KAWY2013_e3","KAWY2013_e3_4","cannon.bmp",45,1,"SameContext",3,1213,"Include"
"KAWY2013_e3","KAWY2013_e3_4","apple.bmp",46,0,"New",4,1296,"Include"
"KAWY2013_e3","KAWY2013_e3_4","ball .bmp",47,1,"SameContext",5,1599,"Include"
"KAWY2013_e3","KAWY2013_e3_4","paintbrush.bmp",48,1,"SameContext",6,946,"Include"
"KAWY2013_e3","KAWY2013_e3_4","peacock.bmp",49,1,"SameContext",5,1280,"Include"
"KAWY2013_e3","KAWY2013_e3_4","dog.bmp",50,1,"SameContext",6,880,"Include"
"KAWY2013_e3","KAWY2013_e3_4","gorilla.bmp",51,1,"DifferentContext",2,1810,"Include"
"KAWY2013_e3","KAWY2013_e3_4","star.bmp",52,0,"New",1,2747,"Include"
"KAWY2013_e3","KAWY2013_e3_4","seal.bmp",53,0,"New",1,1548,"Include"
"KAWY2013_e3","KAWY2013_e3_4","fly.bmp",54,1,"DifferentContext",6,1041,"Include"
"KAWY2013_e3","KAWY2013_e3_4","owl.bmp",55,1,"DifferentContext",6,955,"Include"
"KAWY2013_e3","KAWY2013_e3_4","thread.bmp",56,1,"DifferentContext",6,793,"Include"
"KAWY2013_e3","KAWY2013_e3_4","snowman.bmp",57,1,"SameContext",6,703,"Include"
"KAWY2013_e3","KAWY2013_e3_4","thimble.bmp",58,0,"New",2,1384,"Include"
"KAWY2013_e3","KAWY2013_e3_4","bell.bmp",59,0,"New",4,3716,"Include"
"KAWY2013_e3","KAWY2013_e3_4","watch.bmp",60,1,"SameContext",5,1228,"Include"
"KAWY2013_e3","KAWY2013_e3_4","ostrich.bmp",61,1,"DifferentContext",2,1534,"Include"
"KAWY2013_e3","KAWY2013_e3_4","moon.bmp",62,1,"DifferentContext",1,2435,"Include"
"KAWY2013_e3","KAWY2013_e3_4","anchor.bmp",63,0,"New",2,1362,"Include"
"KAWY2013_e3","KAWY2013_e3_4","hammer.bmp",64,1,"SameContext",6,815,"Include"
"KAWY2013_e3","KAWY2013_e3_4","balloon.bmp",65,0,"New",2,1059,"Include"
"KAWY2013_e3","KAWY2013_e3_4","lettuce.bmp",66,1,"DifferentContext",5,2413,"Include"
"KAWY2013_e3","KAWY2013_e3_4","banana.bmp",67,1,"DifferentContext",6,1211,"Include"
"KAWY2013_e3","KAWY2013_e3_4","artichoke.bmp",68,1,"SameContext",6,1054,"Include"
"KAWY2013_e3","KAWY2013_e3_4","raccoon.bmp",69,0,"New",3,1208,"Include"
"KAWY2013_e3","KAWY2013_e3_4","hat.bmp",70,1,"DifferentContext",4,1531,"Include"
"KAWY2013_e3","KAWY2013_e3_4","pot.bmp",71,1,"DifferentContext",5,2625,"Include"
"KAWY2013_e3","KAWY2013_e3_4","couch.bmp",72,1,"DifferentContext",2,1464,"Include"
"KAWY2013_e3","KAWY2013_e3_4","rooster.bmp",73,1,"DifferentContext",6,928,"Include"
"KAWY2013_e3","KAWY2013_e3_4","corn.bmp",74,1,"DifferentContext",6,1007,"Include"
"KAWY2013_e3","KAWY2013_e3_4","cherry.bmp",75,0,"New",2,1147,"Include"
"KAWY2013_e3","KAWY2013_e3_4","car.bmp",76,0,"New",1,2001,"Include"
"KAWY2013_e3","KAWY2013_e3_4","bear.bmp",77,1,"DifferentContext",4,2482,"Include"
"KAWY2013_e3","KAWY2013_e3_4","jug.bmp",78,1,"SameContext",6,1167,"Include"
"KAWY2013_e3","KAWY2013_e3_4","toaster.bmp",79,0,"New",2,996,"Include"
"KAWY2013_e3","KAWY2013_e3_4","truck.bmp",80,1,"SameContext",4,2177,"Include"
"KAWY2013_e3","KAWY2013_e3_4","stool.bmp",81,1,"DifferentContext",6,1226,"Include"
"KAWY2013_e3","KAWY2013_e3_4","chair.bmp",82,0,"New",5,2844,"Include"
"KAWY2013_e3","KAWY2013_e3_4","sun.bmp",83,1,"DifferentContext",6,1033,"Include"
"KAWY2013_e3","KAWY2013_e3_4","swan.bmp",84,1,"DifferentContext",3,2757,"Include"
"KAWY2013_e3","KAWY2013_e3_4","butterfly.bmp",85,1,"DifferentContext",6,1030,"Include"
"KAWY2013_e3","KAWY2013_e3_4","ironingboard.bmp",86,1,"SameContext",3,1217,"Include"
"KAWY2013_e3","KAWY2013_e3_4","elephant.bmp",87,1,"DifferentContext",4,1572,"Include"
"KAWY2013_e3","KAWY2013_e3_4","donkey.bmp",88,1,"SameContext",6,3000,"Include"
"KAWY2013_e3","KAWY2013_e3_4","ashtray.bmp",89,1,"DifferentContext",6,1919,"Include"
"KAWY2013_e3","KAWY2013_e3_4","bat.bmp",90,1,"SameContext",6,643,"Include"
"KAWY2013_e3","KAWY2013_e3_4","rockingchair.bmp",91,1,"DifferentContext",6,1935,"Include"
"KAWY2013_e3","KAWY2013_e3_4","camel.bmp",92,1,"SameContext",3,1267,"Include"
"KAWY2013_e3","KAWY2013_e3_4","scissor.bmp",93,1,"SameContext",5,1428,"Include"
"KAWY2013_e3","KAWY2013_e3_4","cigar.bmp",94,1,"DifferentContext",6,1022,"Include"
"KAWY2013_e3","KAWY2013_e3_4","hanger.bmp",95,1,"SameContext",6,777,"Include"
"KAWY2013_e3","KAWY2013_e3_4","sock.bmp",96,0,"New",2,1759,"Include"
"KAWY2013_e3","KAWY2013_e3_4","clock.bmp",97,0,"New",2,1403,"Include"
"KAWY2013_e3","KAWY2013_e3_4","coat.bmp",98,0,"New",5,2150,"Include"
"KAWY2013_e3","KAWY2013_e3_4","garbagecan.bmp",99,1,"SameContext",6,769,"Include"
"KAWY2013_e3","KAWY2013_e3_4","wagon.bmp",100,0,"New",5,1558,"Include"
"KAWY2013_e3","KAWY2013_e3_4","screw.bmp",101,1,"DifferentContext",6,1626,"Include"
"KAWY2013_e3","KAWY2013_e3_4","gloves.bmp",102,1,"SameContext",4,1643,"Include"
"KAWY2013_e3","KAWY2013_e3_4","harp.bmp",103,0,"New",1,1452,"Include"
"KAWY2013_e3","KAWY2013_e3_4","top.bmp",104,1,"SameContext",5,1813,"Include"
"KAWY2013_e3","KAWY2013_e3_4","frenchhorn.bmp",105,1,"SameContext",6,1118,"Include"
"KAWY2013_e3","KAWY2013_e3_4","gun.bmp",106,1,"DifferentContext",6,3158,"Include"
"KAWY2013_e3","KAWY2013_e3_4","sandwich.bmp",107,0,"New",3,1174,"Include"
"KAWY2013_e3","KAWY2013_e3_4","dumbbell.bmp",108,1,"DifferentContext",6,1066,"Include"
"KAWY2013_e3","KAWY2013_e3_4","finger.bmp",109,1,"SameContext",6,948,"Include"
"KAWY2013_e3","KAWY2013_e3_4","chain.bmp",110,1,"SameContext",6,850,"Include"
"KAWY2013_e3","KAWY2013_e3_4","house.bmp",111,1,"SameContext",2,981,"Include"
"KAWY2013_e3","KAWY2013_e3_4","pants.bmp",112,0,"New",3,1170,"Include"
"KAWY2013_e3","KAWY2013_e3_4","drum.bmp",113,1,"DifferentContext",6,1271,"Include"
"KAWY2013_e3","KAWY2013_e3_4","purse.bmp",114,0,"New",4,1736,"Include"
"KAWY2013_e3","KAWY2013_e3_4","rollerrskates.bmp",115,0,"New",2,3509,"Include"
"KAWY2013_e3","KAWY2013_e3_4","tiger.bmp",116,1,"SameContext",6,1238,"Include"
"KAWY2013_e3","KAWY2013_e3_4","barrel.bmp",117,1,"DifferentContext",4,3704,"Include"
"KAWY2013_e3","KAWY2013_e3_4","eagle.bmp",118,1,"DifferentContext",3,1441,"Include"
"KAWY2013_e3","KAWY2013_e3_4","racket.bmp",119,1,"SameContext",5,2426,"Include"
"KAWY2013_e3","KAWY2013_e3_4","orange.bmp",120,1,"DifferentContext",3,2441,"Include"
"KAWY2013_e3","KAWY2013_e3_4","heart.bmp",121,1,"DifferentContext",3,2456,"Include"
"KAWY2013_e3","KAWY2013_e3_4","bug.bmp",122,1,"SameContext",4,2342,"Include"
"KAWY2013_e3","KAWY2013_e3_4","doll.bmp",123,0,"New",2,3033,"Include"
"KAWY2013_e3","KAWY2013_e3_4","bread.bmp",124,1,"SameContext",5,1374,"Include"
"KAWY2013_e3","KAWY2013_e3_4","kangaroo.bmp",125,1,"SameContext",6,1162,"Include"
"KAWY2013_e3","KAWY2013_e3_4","lamp.bmp",126,1,"SameContext",5,1551,"Include"
"KAWY2013_e3","KAWY2013_e3_4","snail.bmp",127,1,"DifferentContext",4,2260,"Include"
"KAWY2013_e3","KAWY2013_e3_4","cigarette.bmp",128,1,"DifferentContext",6,2313,"Include"
"KAWY2013_e3","KAWY2013_e3_4","carrot.bmp",129,0,"New",3,2060,"Include"
"KAWY2013_e3","KAWY2013_e3_4","wrench.bmp",130,0,"New",4,2171,"Include"
"KAWY2013_e3","KAWY2013_e3_4","comb.bmp",131,1,"SameContext",3,1509,"Include"
"KAWY2013_e3","KAWY2013_e3_4","bike.bmp",132,0,"New",3,2795,"Include"
"KAWY2013_e3","KAWY2013_e3_4","sailboat.bmp",133,0,"New",5,1930,"Include"
"KAWY2013_e3","KAWY2013_e3_4","rollingpin.bmp",134,0,"New",3,1567,"Include"
"KAWY2013_e3","KAWY2013_e3_4","frog.bmp",135,0,"New",3,1651,"Include"
"KAWY2013_e3","KAWY2013_e3_4","fryingpan.bmp",136,0,"New",4,819,"Include"
"KAWY2013_e3","KAWY2013_e3_4","cake.bmp",137,1,"DifferentContext",4,1863,"Include"
"KAWY2013_e3","KAWY2013_e3_4","bus.bmp",138,1,"DifferentContext",3,2126,"Include"
"KAWY2013_e3","KAWY2013_e3_4","nailfile.bmp",139,0,"New",3,1914,"Include"
"KAWY2013_e3","KAWY2013_e3_4","sheep.bmp",140,1,"SameContext",3,783,"Include"
"KAWY2013_e3","KAWY2013_e3_4","nose.bmp",141,1,"SameContext",5,1429,"Include"
"KAWY2013_e3","KAWY2013_e3_4","saw.bmp",142,1,"SameContext",6,3391,"Include"
"KAWY2013_e3","KAWY2013_e3_4","duck.bmp",143,0,"New",3,1172,"Include"
"KAWY2013_e3","KAWY2013_e3_4","pipe.bmp",144,1,"SameContext",6,985,"Include"
"KAWY2013_e3","KAWY2013_e3_4","lobster.bmp",145,0,"New",3,2055,"Include"
"KAWY2013_e3","KAWY2013_e3_4","nail.bmp",146,0,"New",4,2246,"Include"
"KAWY2013_e3","KAWY2013_e3_4","needle.bmp",147,0,"New",2,1485,"Include"
"KAWY2013_e3","KAWY2013_e3_4","skunk.bmp",148,1,"SameContext",4,2052,"Include"
"KAWY2013_e3","KAWY2013_e3_4","sweater.bmp",149,1,"DifferentContext",4,3108,"Include"
"KAWY2013_e3","KAWY2013_e3_4","grasshopper.bmp",150,1,"DifferentContext",4,1222,"Include"
"KAWY2013_e3","KAWY2013_e3_4","fork.bmp",151,1,"SameContext",2,1721,"Include"
"KAWY2013_e3","KAWY2013_e3_4","brush.bmp",152,1,"DifferentContext",4,1238,"Include"
"KAWY2013_e3","KAWY2013_e3_4","helicopter.bmp",153,1,"DifferentContext",2,2665,"Include"
"KAWY2013_e3","KAWY2013_e3_4","rabbit.bmp",154,0,"New",3,1325,"Include"
"KAWY2013_e3","KAWY2013_e3_4","penguin.bmp",155,0,"New",4,3947,"Include"
"KAWY2013_e3","KAWY2013_e3_4","thumb.bmp",156,1,"DifferentContext",4,1224,"Include"
"KAWY2013_e3","KAWY2013_e3_4","mountain.bmp",157,1,"DifferentContext",6,1179,"Include"
"KAWY2013_e3","KAWY2013_e3_4","ring.bmp",158,0,"New",3,1328,"Include"
"KAWY2013_e3","KAWY2013_e3_4","hair.bmp",159,1,"SameContext",2,3358,"Include"
"KAWY2013_e3","KAWY2013_e3_4","goat.bmp",160,1,"SameContext",3,1669,"Include"
"KAWY2013_e3","KAWY2013_e3_4","trafficlight.bmp",161,1,"DifferentContext",3,7749,"Include"
"KAWY2013_e3","KAWY2013_e3_4","eye.bmp",162,1,"SameContext",6,879,"Include"
"KAWY2013_e3","KAWY2013_e3_4","dress.bmp",163,0,"New",3,1201,"Include"
"KAWY2013_e3","KAWY2013_e3_4","flower.bmp",164,0,"New",4,5493,"Include"
"KAWY2013_e3","KAWY2013_e3_4","mitten.bmp",165,1,"DifferentContext",3,1248,"Include"
"KAWY2013_e3","KAWY2013_e3_4","lightbulb.bmp",166,0,"New",3,2802,"Include"
"KAWY2013_e3","KAWY2013_e3_4","chicken.bmp",167,1,"SameContext",6,1425,"Include"
"KAWY2013_e3","KAWY2013_e3_4","pineapple.bmp",168,1,"SameContext",6,859,"Include"
"KAWY2013_e3","KAWY2013_e3_4","fly2.bmp",169,0,"New",4,1469,"Include"
"KAWY2013_e3","KAWY2013_e3_4","necklace.bmp",170,1,"SameContext",5,1941,"Include"
"KAWY2013_e3","KAWY2013_e3_4","button.bmp",171,1,"SameContext",5,1673,"Include"
"KAWY2013_e3","KAWY2013_e3_4","pig.bmp",172,0,"New",2,1625,"Include"
"KAWY2013_e3","KAWY2013_e3_4","recordplayer.bmp",173,0,"New",1,1082,"Include"
"KAWY2013_e3","KAWY2013_e3_4","seahorse.bmp",174,1,"DifferentContext",4,1283,"Include"
"KAWY2013_e3","KAWY2013_e3_4","carriage .bmp",175,1,"DifferentContext",1,1027,"Include"
"KAWY2013_e3","KAWY2013_e3_4","asparagus .bmp",176,0,"New",3,1710,"Include"
"KAWY2013_e3","KAWY2013_e3_4","television.bmp",177,0,"New",3,796,"Include"
"KAWY2013_e3","KAWY2013_e3_4","flute.bmp",178,0,"New",3,993,"Include"
"KAWY2013_e3","KAWY2013_e3_4","well.bmp",179,1,"DifferentContext",4,4029,"Include"
"KAWY2013_e3","KAWY2013_e3_4","clothespin.bmp",180,1,"SameContext",3,1560,"Include"
"KAWY2013_e3","KAWY2013_e3_5","key.bmp",1,0,"New",3,9459,"Include"
"KAWY2013_e3","KAWY2013_e3_5","shirt.bmp",2,1,"DifferentContext",6,1957,"Include"
"KAWY2013_e3","KAWY2013_e3_5","book.bmp",3,1,"DifferentContext",3,5848,"Include"
"KAWY2013_e3","KAWY2013_e3_5","mouse.bmp",4,1,"DifferentContext",6,1893,"Include"
"KAWY2013_e3","KAWY2013_e3_5","fish.bmp",5,1,"DifferentContext",6,1819,"Include"
"KAWY2013_e3","KAWY2013_e3_5","envelope.bmp",6,0,"New",6,1444,"Include"
"KAWY2013_e3","KAWY2013_e3_5","vase.bmp",7,1,"DifferentContext",6,1597,"Include"
"KAWY2013_e3","KAWY2013_e3_5","boot.bmp",8,1,"SameContext",1,4143,"Include"
"KAWY2013_e3","KAWY2013_e3_5","pepper.bmp",9,1,"DifferentContext",6,1205,"Include"
"KAWY2013_e3","KAWY2013_e3_5","glasses.bmp",10,1,"DifferentContext",5,4185,"Include"
"KAWY2013_e3","KAWY2013_e3_5","elephant.bmp",11,1,"SameContext",6,1500,"Include"
"KAWY2013_e3","KAWY2013_e3_5","foot.bmp",12,1,"DifferentContext",6,3043,"Include"
"KAWY2013_e3","KAWY2013_e3_5","dumbbell.bmp",13,1,"SameContext",1,2520,"Include"
"KAWY2013_e3","KAWY2013_e3_5","peacock.bmp",14,0,"New",2,4579,"Include"
"KAWY2013_e3","KAWY2013_e3_5","strawberry.bmp",15,0,"New",6,1446,"Include"
"KAWY2013_e3","KAWY2013_e3_5","necklace.bmp",16,0,"New",3,3502,"Include"
"KAWY2013_e3","KAWY2013_e3_5","whistle.bmp",17,1,"SameContext",6,1583,"Include"
"KAWY2013_e3","KAWY2013_e3_5","seahorse.bmp",18,1,"SameContext",6,883,"Include"
"KAWY2013_e3","KAWY2013_e3_5","jacket.bmp",19,1,"SameContext",4,4484,"Include"
"KAWY2013_e3","KAWY2013_e3_5","moon.bmp",20,1,"SameContext",6,1547,"Include"
"KAWY2013_e3","KAWY2013_e3_5","helicopter.bmp",21,1,"SameContext",6,1167,"Include"
"KAWY2013_e3","KAWY2013_e3_5","hammer.bmp",22,0,"New",6,1157,"Include"
"KAWY2013_e3","KAWY2013_e3_5","scissor.bmp",23,0,"New",3,7210,"Include"
"KAWY2013_e3","KAWY2013_e3_5","eye.bmp",24,0,"New",1,1580,"Include"
"KAWY2013_e3","KAWY2013_e3_5","skirt.bmp",25,0,"New",1,1727,"Include"
"KAWY2013_e3","KAWY2013_e3_5","wineglass.bmp",26,1,"DifferentContext",5,2748,"Include"
"KAWY2013_e3","KAWY2013_e3_5","wateringcan.bmp",27,1,"DifferentContext",4,2685,"Include"
"KAWY2013_e3","KAWY2013_e3_5","grasshopper.bmp",28,1,"SameContext",6,1505,"Include"
"KAWY2013_e3","KAWY2013_e3_5","ball .bmp",29,0,"New",1,1400,"Include"
"KAWY2013_e3","KAWY2013_e3_5","toothbrush.bmp",30,1,"DifferentContext",3,3075,"Include"
"KAWY2013_e3","KAWY2013_e3_5","pliers.bmp",31,1,"DifferentContext",6,903,"Include"
"KAWY2013_e3","KAWY2013_e3_5","snowman.bmp",32,0,"New",2,3847,"Include"
"KAWY2013_e3","KAWY2013_e3_5","jug.bmp",33,0,"New",3,2137,"Include"
"KAWY2013_e3","KAWY2013_e3_5","pipe.bmp",34,0,"New",1,1797,"Include"
"KAWY2013_e3","KAWY2013_e3_5","lettuce.bmp",35,1,"SameContext",6,1775,"Include"
"KAWY2013_e3","KAWY2013_e3_5","caterpillar.bmp",36,1,"SameContext",6,954,"Include"
"KAWY2013_e3","KAWY2013_e3_5","cat.bmp",37,1,"SameContext",2,2793,"Include"
"KAWY2013_e3","KAWY2013_e3_5","ant.bmp",38,0,"New",2,3496,"Include"
"KAWY2013_e3","KAWY2013_e3_5","screw.bmp",39,1,"SameContext",6,873,"Include"
"KAWY2013_e3","KAWY2013_e3_5","goat.bmp",40,0,"New",6,811,"Include"
"KAWY2013_e3","KAWY2013_e3_5","leopard.bmp",41,1,"DifferentContext",6,863,"Include"
"KAWY2013_e3","KAWY2013_e3_5","glass.bmp",42,1,"DifferentContext",2,1777,"Include"
"KAWY2013_e3","KAWY2013_e3_5","suitcase.bmp",43,0,"New",3,3723,"Include"
"KAWY2013_e3","KAWY2013_e3_5","barrel.bmp",44,1,"SameContext",6,7587,"Include"
"KAWY2013_e3","KAWY2013_e3_5","corn.bmp",45,1,"SameContext",3,2277,"Include"
"KAWY2013_e3","KAWY2013_e3_5","camel.bmp",46,0,"New",2,4042,"Include"
"KAWY2013_e3","KAWY2013_e3_5","orange.bmp",47,1,"SameContext",2,1700,"Include"
"KAWY2013_e3","KAWY2013_e3_5","saltshaker.bmp",48,1,"DifferentContext",6,2914,"Include"
"KAWY2013_e3","KAWY2013_e3_5","kangaroo.bmp",49,0,"New",2,2220,"Include"
"KAWY2013_e3","KAWY2013_e3_5","artichoke.bmp",50,0,"New",6,2565,"Include"
"KAWY2013_e3","KAWY2013_e3_5","trafficlight.bmp",51,1,"SameContext",4,2414,"Include"
"KAWY2013_e3","KAWY2013_e3_5","butterfly.bmp",52,1,"SameContext",5,1853,"Include"
"KAWY2013_e3","KAWY2013_e3_5","rhinoceros.bmp",53,0,"New",2,1893,"Include"
"KAWY2013_e3","KAWY2013_e3_5","horse.bmp",54,1,"DifferentContext",2,5067,"Include"
"KAWY2013_e3","KAWY2013_e3_5","tie.bmp",55,1,"SameContext",6,1625,"Include"
"KAWY2013_e3","KAWY2013_e3_5","dresser.bmp",56,0,"New",2,1450,"Include"
"KAWY2013_e3","KAWY2013_e3_5","monkey.bmp",57,1,"DifferentContext",2,17122,"Include"
"KAWY2013_e3","KAWY2013_e3_5","celery.bmp",58,0,"New",3,2315,"Include"
"KAWY2013_e3","KAWY2013_e3_5","pineapple.bmp",59,0,"New",2,4254,"Include"
"KAWY2013_e3","KAWY2013_e3_5","watch.bmp",60,0,"New",1,3151,"Include"
"KAWY2013_e3","KAWY2013_e3_5","gloves.bmp",61,0,"New",1,2463,"Include"
"KAWY2013_e3","KAWY2013_e3_5","accordion.bmp",62,1,"DifferentContext",2,5324,"Include"
"KAWY2013_e3","KAWY2013_e3_5","trumpet.bmp",63,1,"DifferentContext",3,1615,"Include"
"KAWY2013_e3","KAWY2013_e3_5","bear.bmp",64,1,"SameContext",2,1985,"Include"
"KAWY2013_e3","KAWY2013_e3_5","lemon.bmp",65,1,"DifferentContext",5,1891,"Include"
"KAWY2013_e3","KAWY2013_e3_5","saw.bmp",66,0,"New",3,3657,"Include"
"KAWY2013_e3","KAWY2013_e3_5","thumb.bmp",67,1,"SameContext",1,1652,"Include"
"KAWY2013_e3","KAWY2013_e3_5","giraffe.bmp",68,1,"DifferentContext",6,2100,"Include"
"KAWY2013_e3","KAWY2013_e3_5","carriage .bmp",69,1,"SameContext",2,2145,"Include"
"KAWY2013_e3","KAWY2013_e3_5","donkey.bmp",70,0,"New",1,1180,"Include"
"KAWY2013_e3","KAWY2013_e3_5","footballhelmet.bmp",71,1,"DifferentContext",2,2273,"Include"
"KAWY2013_e3","KAWY2013_e3_5","bat.bmp",72,0,"New",1,1383,"Include"
"KAWY2013_e3","KAWY2013_e3_5","ear.bmp",73,1,"DifferentContext",3,6099,"Include"
"KAWY2013_e3","KAWY2013_e3_5","box.bmp",74,1,"DifferentContext",2,2548,"Include"
"KAWY2013_e3","KAWY2013_e3_5","skunk.bmp",75,0,"New",1,3229,"Include"
"KAWY2013_e3","KAWY2013_e3_5","frenchhorn.bmp",76,0,"New",2,1850,"Include"
"KAWY2013_e3","KAWY2013_e3_5","guitar.bmp",77,0,"New",3,1201,"Include"
"KAWY2013_e3","KAWY2013_e3_5","button.bmp",78,0,"New",1,1125,"Include"
"KAWY2013_e3","KAWY2013_e3_5","pot.bmp",79,1,"SameContext",5,2540,"Include"
"KAWY2013_e3","KAWY2013_e3_5","top.bmp",80,0,"New",1,1302,"Include"
"KAWY2013_e3","KAWY2013_e3_5","brush.bmp",81,1,"SameContext",6,3254,"Include"
"KAWY2013_e3","KAWY2013_e3_5","nose.bmp",82,0,"New",1,1394,"Include"
"KAWY2013_e3","KAWY2013_e3_5","bow.bmp",83,1,"DifferentContext",6,1725,"Include"
"KAWY2013_e3","KAWY2013_e3_5","cake.bmp",84,1,"SameContext",4,2233,"Include"
"KAWY2013_e3","KAWY2013_e3_5","hand.bmp",85,0,"New",3,1954,"Include"
"KAWY2013_e3","KAWY2013_e3_5","peanut.bmp",86,1,"DifferentContext",1,1557,"Include"
"KAWY2013_e3","KAWY2013_e3_5","ironingboard.bmp",87,0,"New",2,1961,"Include"
"KAWY2013_e3","KAWY2013_e3_5","rooster.bmp",88,1,"SameContext",6,1437,"Include"
"KAWY2013_e3","KAWY2013_e3_5","table.bmp",89,1,"DifferentContext",2,7478,"Include"
"KAWY2013_e3","KAWY2013_e3_5","tool.bmp",90,1,"DifferentContext",6,1693,"Include"
"KAWY2013_e3","KAWY2013_e3_5","alligator.bmp",91,1,"DifferentContext",4,3803,"Include"
"KAWY2013_e3","KAWY2013_e3_5","lips.bmp",92,1,"DifferentContext",3,2127,"Include"
"KAWY2013_e3","KAWY2013_e3_5","kettle.bmp",93,1,"DifferentContext",6,1707,"Include"
"KAWY2013_e3","KAWY2013_e3_5","sun.bmp",94,1,"SameContext",2,1497,"Include"
"KAWY2013_e3","KAWY2013_e3_5","comb.bmp",95,0,"New",2,2048,"Include"
"KAWY2013_e3","KAWY2013_e3_5","paintbrush.bmp",96,0,"New",6,1567,"Include"
"KAWY2013_e3","KAWY2013_e3_5","mountain.bmp",97,1,"SameContext",3,2547,"Include"
"KAWY2013_e3","KAWY2013_e3_5","garbagecan.bmp",98,0,"New",2,1453,"Include"
"KAWY2013_e3","KAWY2013_e3_5","well.bmp",99,1,"SameContext",6,2789,"Include"
"KAWY2013_e3","KAWY2013_e3_5","bowl.bmp",100,1,"DifferentContext",6,1813,"Include"
"KAWY2013_e3","KAWY2013_e3_5","snail.bmp",101,1,"SameContext",2,1310,"Include"
"KAWY2013_e3","KAWY2013_e3_5","lock.bmp",102,1,"DifferentContext",6,2781,"Include"
"KAWY2013_e3","KAWY2013_e3_5","bug.bmp",103,0,"New",6,1100,"Include"
"KAWY2013_e3","KAWY2013_e3_5","piano.bmp",104,1,"DifferentContext",4,2132,"Include"
"KAWY2013_e3","KAWY2013_e3_5","cannon.bmp",105,0,"New",3,1376,"Include"
"KAWY2013_e3","KAWY2013_e3_5","refrigerator.bmp",106,1,"DifferentContext",6,1980,"Include"
"KAWY2013_e3","KAWY2013_e3_5","truck.bmp",107,0,"New",2,2286,"Include"
"KAWY2013_e3","KAWY2013_e3_5","racket.bmp",108,0,"New",1,4291,"Include"
"KAWY2013_e3","KAWY2013_e3_5","lamp.bmp",109,0,"New",5,4003,"Include"
"KAWY2013_e3","KAWY2013_e3_5","squirrel.bmp",110,1,"DifferentContext",4,4062,"Include"
"KAWY2013_e3","KAWY2013_e3_5","flag.bmp",111,0,"New",3,3991,"Include"
"KAWY2013_e3","KAWY2013_e3_5","basket.bmp",112,1,"DifferentContext",5,5587,"Include"
"KAWY2013_e3","KAWY2013_e3_5","football.bmp",113,1,"DifferentContext",3,7739,"Include"
"KAWY2013_e3","KAWY2013_e3_5","axe.bmp",114,1,"SameContext",4,10581,"Include"
"KAWY2013_e3","KAWY2013_e3_5","telephone.bmp",115,1,"DifferentContext",6,1719,"Include"
"KAWY2013_e3","KAWY2013_e3_5","thread.bmp",116,1,"SameContext",3,4532,"Include"
"KAWY2013_e3","KAWY2013_e3_5","bus.bmp",117,1,"SameContext",3,1929,"Include"
"KAWY2013_e3","KAWY2013_e3_5","blouse.bmp",118,1,"DifferentContext",2,2558,"Include"
"KAWY2013_e3","KAWY2013_e3_5","vest.bmp",119,1,"DifferentContext",2,1000,"Include"
"KAWY2013_e3","KAWY2013_e3_5","deer.bmp",120,1,"DifferentContext",5,1684,"Include"
"KAWY2013_e3","KAWY2013_e3_5","stool.bmp",121,1,"SameContext",6,1411,"Include"
"KAWY2013_e3","KAWY2013_e3_5","chain.bmp",122,0,"New",3,1901,"Include"
"KAWY2013_e3","KAWY2013_e3_5","pen.bmp",123,1,"DifferentContext",5,1651,"Include"
"KAWY2013_e3","KAWY2013_e3_5","chicken.bmp",124,0,"New",6,2628,"Include"
"KAWY2013_e3","KAWY2013_e3_5","swan.bmp",125,1,"SameContext",2,3002,"Include"
"KAWY2013_e3","KAWY2013_e3_5","nut.bmp",126,1,"SameContext",6,1568,"Include"
"KAWY2013_e3","KAWY2013_e3_5","finger.bmp",127,0,"New",2,5508,"Include"
"KAWY2013_e3","KAWY2013_e3_5","peach.bmp",128,1,"DifferentContext",3,1871,"Include"
"KAWY2013_e3","KAWY2013_e3_5","bottle.bmp",129,1,"SameContext",3,2150,"Include"
"KAWY2013_e3","KAWY2013_e3_5","sweater.bmp",130,1,"SameContext",3,1009,"Include"
"KAWY2013_e3","KAWY2013_e3_5","cloud.bmp",131,1,"DifferentContext",4,3757,"Include"
"KAWY2013_e3","KAWY2013_e3_5","cigar.bmp",132,1,"SameContext",5,1683,"Include"
"KAWY2013_e3","KAWY2013_e3_5","ashtray.bmp",133,1,"SameContext",3,1986,"Include"
"KAWY2013_e3","KAWY2013_e3_5","hat.bmp",134,1,"SameContext",2,1236,"Include"
"KAWY2013_e3","KAWY2013_e3_5","cap.bmp",135,1,"DifferentContext",2,2038,"Include"
"KAWY2013_e3","KAWY2013_e3_5","ladder.bmp",136,1,"DifferentContext",2,1702,"Include"
"KAWY2013_e3","KAWY2013_e3_5","spoon.bmp",137,1,"SameContext",5,2628,"Include"
"KAWY2013_e3","KAWY2013_e3_5","grapes.bmp",138,0,"New",3,2634,"Include"
"KAWY2013_e3","KAWY2013_e3_5","sled.bmp",139,1,"DifferentContext",2,4560,"Include"
"KAWY2013_e3","KAWY2013_e3_5","rockingchair.bmp",140,1,"SameContext",4,1620,"Include"
"KAWY2013_e3","KAWY2013_e3_5","eagle.bmp",141,1,"SameContext",1,1493,"Include"
"KAWY2013_e3","KAWY2013_e3_5","gun.bmp",142,1,"SameContext",4,2540,"Include"
"KAWY2013_e3","KAWY2013_e3_5","couch.bmp",143,1,"SameContext",2,3143,"Include"
"KAWY2013_e3","KAWY2013_e3_5","bread.bmp",144,0,"New",6,4855,"Include"
"KAWY2013_e3","KAWY2013_e3_5","banana.bmp",145,1,"SameContext",3,3838,"Include"
"KAWY2013_e3","KAWY2013_e3_5","hanger.bmp",146,0,"New",2,1489,"Include"
"KAWY2013_e3","KAWY2013_e3_5","wheel.bmp",147,1,"DifferentContext",2,1320,"Include"
"KAWY2013_e3","KAWY2013_e3_5","bed.bmp",148,1,"DifferentContext",3,1591,"Include"
"KAWY2013_e3","KAWY2013_e3_5","leaf.bmp",149,1,"DifferentContext",4,1562,"Include"
"KAWY2013_e3","KAWY2013_e3_5","fork.bmp",150,0,"New",3,7998,"Include"
"KAWY2013_e3","KAWY2013_e3_5","dog.bmp",151,0,"New",5,1902,"Include"
"KAWY2013_e3","KAWY2013_e3_5","zebra.bmp",152,1,"DifferentContext",6,1572,"Include"
"KAWY2013_e3","KAWY2013_e3_5","clown.bmp",153,1,"DifferentContext",1,2136,"Include"
"KAWY2013_e3","KAWY2013_e3_5","drum.bmp",154,1,"SameContext",2,2771,"Include"
"KAWY2013_e3","KAWY2013_e3_5","fox.bmp",155,1,"DifferentContext",3,2132,"Include"
"KAWY2013_e3","KAWY2013_e3_5","plug.bmp",156,1,"DifferentContext",2,1199,"Include"
"KAWY2013_e3","KAWY2013_e3_5","fence.bmp",157,1,"DifferentContext",6,1794,"Include"
"KAWY2013_e3","KAWY2013_e3_5","hair.bmp",158,0,"New",5,3292,"Include"
"KAWY2013_e3","KAWY2013_e3_5","gorilla.bmp",159,1,"SameContext",2,3158,"Include"
"KAWY2013_e3","KAWY2013_e3_5","heart.bmp",160,1,"SameContext",6,4294,"Include"
"KAWY2013_e3","KAWY2013_e3_5","violin.bmp",161,0,"New",4,7989,"Include"
"KAWY2013_e3","KAWY2013_e3_5","tiger.bmp",162,0,"New",4,3318,"Include"
"KAWY2013_e3","KAWY2013_e3_5","broom.bmp",163,1,"DifferentContext",4,3775,"Include"
"KAWY2013_e3","KAWY2013_e3_5","cigarette.bmp",164,1,"SameContext",5,1972,"Include"
"KAWY2013_e3","KAWY2013_e3_5","fly.bmp",165,1,"SameContext",4,3175,"Include"
"KAWY2013_e3","KAWY2013_e3_5","house.bmp",166,0,"New",2,1719,"Include"
"KAWY2013_e3","KAWY2013_e3_5","sheep.bmp",167,0,"New",3,1764,"Include"
"KAWY2013_e3","KAWY2013_e3_5","desk.bmp",168,1,"SameContext",4,6591,"Include"
"KAWY2013_e3","KAWY2013_e3_5","motorcycle.bmp",169,1,"DifferentContext",4,5948,"Include"
"KAWY2013_e3","KAWY2013_e3_5","clothespin.bmp",170,0,"New",3,1604,"Include"
"KAWY2013_e3","KAWY2013_e3_5","bird.bmp",171,0,"New",3,1623,"Include"
"KAWY2013_e3","KAWY2013_e3_5","ostrich.bmp",172,1,"SameContext",2,2599,"Include"
"KAWY2013_e3","KAWY2013_e3_5","airplane.bmp",173,1,"DifferentContext",2,5055,"Include"
"KAWY2013_e3","KAWY2013_e3_5","candle.bmp",174,1,"SameContext",5,2845,"Include"
"KAWY2013_e3","KAWY2013_e3_5","mushroom.bmp",175,1,"SameContext",2,3322,"Include"
"KAWY2013_e3","KAWY2013_e3_5","belt.bmp",176,1,"SameContext",2,2707,"Include"
"KAWY2013_e3","KAWY2013_e3_5","owl.bmp",177,1,"SameContext",5,5494,"Include"
"KAWY2013_e3","KAWY2013_e3_5","spinningwheel.bmp",178,1,"DifferentContext",6,4674,"Include"
"KAWY2013_e3","KAWY2013_e3_5","mitten.bmp",179,1,"SameContext",2,3232,"Include"
"KAWY2013_e3","KAWY2013_e3_5","watermelon.bmp",180,1,"SameContext",6,1757,"Include"
"KAWY2013_e3","KAWY2013_e3_6","flute.bmp",1,1,"DifferentContext",5,3711,"Include"
"KAWY2013_e3","KAWY2013_e3_6","nailfile.bmp",2,1,"DifferentContext",6,1959,"Include"
"KAWY2013_e3","KAWY2013_e3_6","trumpet.bmp",3,1,"SameContext",6,1066,"Include"
"KAWY2013_e3","KAWY2013_e3_6","nail.bmp",4,1,"DifferentContext",6,1235,"Include"
"KAWY2013_e3","KAWY2013_e3_6","flower.bmp",5,1,"DifferentContext",5,2742,"Include"
"KAWY2013_e3","KAWY2013_e3_6","fish.bmp",6,1,"SameContext",4,3863,"Include"
"KAWY2013_e3","KAWY2013_e3_6","ring.bmp",7,1,"DifferentContext",6,1769,"Include"
"KAWY2013_e3","KAWY2013_e3_6","pig.bmp",8,1,"DifferentContext",6,1509,"Include"
"KAWY2013_e3","KAWY2013_e3_6","toaster.bmp",9,1,"DifferentContext",6,1339,"Include"
"KAWY2013_e3","KAWY2013_e3_6","arm.bmp",10,1,"DifferentContext",6,953,"Include"
"KAWY2013_e3","KAWY2013_e3_6","fryingpan.bmp",11,1,"DifferentContext",4,2951,"Include"
"KAWY2013_e3","KAWY2013_e3_6","fly.bmp",12,0,"New",2,2576,"Include"
"KAWY2013_e3","KAWY2013_e3_6","thumb.bmp",13,0,"New",2,1865,"Include"
"KAWY2013_e3","KAWY2013_e3_6","swing.bmp",14,1,"DifferentContext",6,1168,"Include"
"KAWY2013_e3","KAWY2013_e3_6","knife.bmp",15,1,"DifferentContext",6,869,"Include"
"KAWY2013_e3","KAWY2013_e3_6","seal.bmp",16,1,"DifferentContext",4,4343,"Include"
"KAWY2013_e3","KAWY2013_e3_6","fox.bmp",17,1,"SameContext",6,1124,"Include"
"KAWY2013_e3","KAWY2013_e3_6","bow.bmp",18,1,"SameContext",3,5083,"Include"
"KAWY2013_e3","KAWY2013_e3_6","zebra.bmp",19,1,"SameContext",6,952,"Include"
"KAWY2013_e3","KAWY2013_e3_6","door.bmp",20,1,"DifferentContext",3,2791,"Include"
"KAWY2013_e3","KAWY2013_e3_6","axe.bmp",21,0,"New",6,1655,"Include"
"KAWY2013_e3","KAWY2013_e3_6","elephant.bmp",22,0,"New",6,950,"Include"
"KAWY2013_e3","KAWY2013_e3_6","thimble.bmp",23,1,"DifferentContext",6,1126,"Include"
"KAWY2013_e3","KAWY2013_e3_6","swan.bmp",24,0,"New",4,1963,"Include"
"KAWY2013_e3","KAWY2013_e3_6","potato.bmp",25,1,"DifferentContext",6,1054,"Include"
"KAWY2013_e3","KAWY2013_e3_6","rollingpin.bmp",26,1,"DifferentContext",6,728,"Include"
"KAWY2013_e3","KAWY2013_e3_6","wheel.bmp",27,1,"SameContext",6,800,"Include"
"KAWY2013_e3","KAWY2013_e3_6","banana.bmp",28,0,"New",5,2437,"Include"
"KAWY2013_e3","KAWY2013_e3_6","peach.bmp",29,1,"SameContext",5,1588,"Include"
"KAWY2013_e3","KAWY2013_e3_6","plug.bmp",30,1,"SameContext",6,1303,"Include"
"KAWY2013_e3","KAWY2013_e3_6","drum.bmp",31,0,"New",4,2423,"Include"
"KAWY2013_e3","KAWY2013_e3_6","tomato.bmp",32,1,"DifferentContext",5,2438,"Include"
"KAWY2013_e3","KAWY2013_e3_6","jacket.bmp",33,0,"New",6,917,"Include"
"KAWY2013_e3","KAWY2013_e3_6","needle.bmp",34,1,"DifferentContext",6,757,"Include"
"KAWY2013_e3","KAWY2013_e3_6","desk.bmp",35,0,"New",6,779,"Include"
"KAWY2013_e3","KAWY2013_e3_6","sun.bmp",36,0,"New",2,2817,"Include"
"KAWY2013_e3","KAWY2013_e3_6","hat.bmp",37,0,"New",3,3087,"Include"
"KAWY2013_e3","KAWY2013_e3_6","rabbit.bmp",38,1,"DifferentContext",4,3906,"Include"
"KAWY2013_e3","KAWY2013_e3_6","cup.bmp",39,1,"DifferentContext",4,2722,"Include"
"KAWY2013_e3","KAWY2013_e3_6","belt.bmp",40,0,"New",3,1524,"Include"
"KAWY2013_e3","KAWY2013_e3_6","accordion.bmp",41,1,"SameContext",6,1002,"Include"
"KAWY2013_e3","KAWY2013_e3_6","cherry.bmp",42,1,"DifferentContext",4,2966,"Include"
"KAWY2013_e3","KAWY2013_e3_6","rollerrskates.bmp",43,1,"DifferentContext",2,1934,"Include"
"KAWY2013_e3","KAWY2013_e3_6","bowl.bmp",44,1,"SameContext",6,1186,"Include"
"KAWY2013_e3","KAWY2013_e3_6","squirrel.bmp",45,1,"SameContext",6,823,"Include"
"KAWY2013_e3","KAWY2013_e3_6","sailboat.bmp",46,1,"DifferentContext",6,890,"Include"
"KAWY2013_e3","KAWY2013_e3_6","dress.bmp",47,1,"DifferentContext",2,1851,"Include"
"KAWY2013_e3","KAWY2013_e3_6","heart.bmp",48,0,"New",2,1571,"Include"
"KAWY2013_e3","KAWY2013_e3_6","lobster.bmp",49,1,"DifferentContext",6,1399,"Include"
"KAWY2013_e3","KAWY2013_e3_6","fence.bmp",50,1,"SameContext",6,834,"Include"
"KAWY2013_e3","KAWY2013_e3_6","bed.bmp",51,1,"SameContext",6,965,"Include"
"KAWY2013_e3","KAWY2013_e3_6","corn.bmp",52,0,"New",3,2883,"Include"
"KAWY2013_e3","KAWY2013_e3_6","toothbrush.bmp",53,1,"SameContext",5,3295,"Include"
"KAWY2013_e3","KAWY2013_e3_6","alligator.bmp",54,1,"SameContext",6,969,"Include"
"KAWY2013_e3","KAWY2013_e3_6","vase.bmp",55,1,"SameContext",5,2967,"Include"
"KAWY2013_e3","KAWY2013_e3_6","recordplayer.bmp",56,1,"DifferentContext",3,3390,"Include"
"KAWY2013_e3","KAWY2013_e3_6","horse.bmp",57,1,"SameContext",6,932,"Include"
"KAWY2013_e3","KAWY2013_e3_6","cat.bmp",58,0,"New",5,2387,"Include"
"KAWY2013_e3","KAWY2013_e3_6","motorcycle.bmp",59,1,"SameContext",6,1060,"Include"
"KAWY2013_e3","KAWY2013_e3_6","cake.bmp",60,0,"New",4,3326,"Include"
"KAWY2013_e3","KAWY2013_e3_6","table.bmp",61,1,"SameContext",6,1239,"Include"
"KAWY2013_e3","KAWY2013_e3_6","pliers.bmp",62,1,"SameContext",6,1241,"Include"
"KAWY2013_e3","KAWY2013_e3_6","boot.bmp",63,0,"New",6,1771,"Include"
"KAWY2013_e3","KAWY2013_e3_6","leaf.bmp",64,1,"SameContext",6,1702,"Include"
"KAWY2013_e3","KAWY2013_e3_6","foot.bmp",65,1,"SameContext",6,1508,"Include"
"KAWY2013_e3","KAWY2013_e3_6","wagon.bmp",66,1,"DifferentContext",6,954,"Include"
"KAWY2013_e3","KAWY2013_e3_6","lion.bmp",67,1,"DifferentContext",6,761,"Include"
"KAWY2013_e3","KAWY2013_e3_6","purse.bmp",68,1,"DifferentContext",4,2607,"Include"
"KAWY2013_e3","KAWY2013_e3_6","piano.bmp",69,1,"SameContext",6,983,"Include"
"KAWY2013_e3","KAWY2013_e3_6","snail.bmp",70,0,"New",3,5444,"Include"
"KAWY2013_e3","KAWY2013_e3_6","raccoon.bmp",71,1,"DifferentContext",6,1041,"Include"
"KAWY2013_e3","KAWY2013_e3_6","cap.bmp",72,1,"SameContext",2,1739,"Include"
"KAWY2013_e3","KAWY2013_e3_6","dumbbell.bmp",73,0,"New",2,3080,"Include"
"KAWY2013_e3","KAWY2013_e3_6","chair.bmp",74,1,"DifferentContext",6,1435,"Include"
"KAWY2013_e3","KAWY2013_e3_6","crown.bmp",75,1,"DifferentContext",6,1492,"Include"
"KAWY2013_e3","KAWY2013_e3_6","spoon.bmp",76,0,"New",4,2763,"Include"
"KAWY2013_e3","KAWY2013_e3_6","lightbulb.bmp",77,1,"DifferentContext",5,2300,"Include"
"KAWY2013_e3","KAWY2013_e3_6","bus.bmp",78,0,"New",2,3968,"Include"
"KAWY2013_e3","KAWY2013_e3_6","arrow.bmp",79,1,"DifferentContext",6,1101,"Include"
"KAWY2013_e3","KAWY2013_e3_6","trafficlight.bmp",80,0,"New",1,2933,"Include"
"KAWY2013_e3","KAWY2013_e3_6","barrel.bmp",81,0,"New",4,3166,"Include"
"KAWY2013_e3","KAWY2013_e3_6","stove.bmp",82,1,"DifferentContext",4,4653,"Include"
"KAWY2013_e3","KAWY2013_e3_6","bell.bmp",83,1,"DifferentContext",5,2525,"Include"
"KAWY2013_e3","KAWY2013_e3_6","television.bmp",84,1,"DifferentContext",6,1496,"Include"
"KAWY2013_e3","KAWY2013_e3_6","mouse.bmp",85,1,"SameContext",6,927,"Include"
"KAWY2013_e3","KAWY2013_e3_6","pumpkin.bmp",86,1,"DifferentContext",5,2030,"Include"
"KAWY2013_e3","KAWY2013_e3_6","leopard.bmp",87,1,"SameContext",6,750,"Include"
"KAWY2013_e3","KAWY2013_e3_6","bike.bmp",88,1,"DifferentContext",6,997,"Include"
"KAWY2013_e3","KAWY2013_e3_6","shirt.bmp",89,1,"SameContext",4,2561,"Include"
"KAWY2013_e3","KAWY2013_e3_6","gorilla.bmp",90,0,"New",2,1658,"Include"
"KAWY2013_e3","KAWY2013_e3_6","bear.bmp",91,0,"New",2,2954,"Include"
"KAWY2013_e3","KAWY2013_e3_6","caterpillar.bmp",92,0,"New",2,3027,"Include"
"KAWY2013_e3","KAWY2013_e3_6","footballhelmet.bmp",93,1,"SameContext",3,3336,"Include"
"KAWY2013_e3","KAWY2013_e3_6","spinningwheel.bmp",94,1,"SameContext",5,2080,"Include"
"KAWY2013_e3","KAWY2013_e3_6","glass.bmp",95,1,"SameContext",2,1902,"Include"
"KAWY2013_e3","KAWY2013_e3_6","star.bmp",96,1,"DifferentContext",6,1108,"Include"
"KAWY2013_e3","KAWY2013_e3_6","saltshaker.bmp",97,1,"SameContext",6,1483,"Include"
"KAWY2013_e3","KAWY2013_e3_6","ostrich.bmp",98,0,"New",3,1763,"Include"
"KAWY2013_e3","KAWY2013_e3_6","mushroom.bmp",99,0,"New",3,4126,"Include"
"KAWY2013_e3","KAWY2013_e3_6","eagle.bmp",100,0,"New",3,1445,"Include"
"KAWY2013_e3","KAWY2013_e3_6","refrigerator.bmp",101,1,"SameContext",4,3118,"Include"
"KAWY2013_e3","KAWY2013_e3_6","butterfly.bmp",102,0,"New",2,1327,"Include"
"KAWY2013_e3","KAWY2013_e3_6","harp.bmp",103,1,"DifferentContext",3,1805,"Include"
"KAWY2013_e3","KAWY2013_e3_6","fly2.bmp",104,1,"DifferentContext",6,1799,"Include"
"KAWY2013_e3","KAWY2013_e3_6","lock.bmp",105,1,"SameContext",6,897,"Include"
"KAWY2013_e3","KAWY2013_e3_6","brush.bmp",106,0,"New",5,3874,"Include"
"KAWY2013_e3","KAWY2013_e3_6","pot.bmp",107,0,"New",5,1651,"Include"
"KAWY2013_e3","KAWY2013_e3_6","clock.bmp",108,1,"DifferentContext",6,1779,"Include"
"KAWY2013_e3","KAWY2013_e3_6","peanut.bmp",109,1,"SameContext",4,2622,"Include"
"KAWY2013_e3","KAWY2013_e3_6","coat.bmp",110,1,"DifferentContext",3,2341,"Include"
"KAWY2013_e3","KAWY2013_e3_6","deer.bmp",111,1,"SameContext",6,1176,"Include"
"KAWY2013_e3","KAWY2013_e3_6","pen.bmp",112,1,"SameContext",6,940,"Include"
"KAWY2013_e3","KAWY2013_e3_6","owl.bmp",113,0,"New",3,3227,"Include"
"KAWY2013_e3","KAWY2013_e3_6","football.bmp",114,1,"SameContext",6,1464,"Include"
"KAWY2013_e3","KAWY2013_e3_6","carrot.bmp",115,1,"DifferentContext",4,3311,"Include"
"KAWY2013_e3","KAWY2013_e3_6","ashtray.bmp",116,0,"New",2,2168,"Include"
"KAWY2013_e3","KAWY2013_e3_6","penguin.bmp",117,1,"DifferentContext",6,1139,"Include"
"KAWY2013_e3","KAWY2013_e3_6","pepper.bmp",118,1,"SameContext",5,3817,"Include"
"KAWY2013_e3","KAWY2013_e3_6","tie.bmp",119,0,"New",2,1597,"Include"
"KAWY2013_e3","KAWY2013_e3_6","candle.bmp",120,0,"New",3,1807,"Include"
"KAWY2013_e3","KAWY2013_e3_6","screw.bmp",121,0,"New",3,2249,"Include"
"KAWY2013_e3","KAWY2013_e3_6","moon.bmp",122,0,"New",2,1376,"Include"
"KAWY2013_e3","KAWY2013_e3_6","couch.bmp",123,0,"New",4,2556,"Include"
"KAWY2013_e3","KAWY2013_e3_6","pants.bmp",124,1,"DifferentContext",3,1717,"Include"
"KAWY2013_e3","KAWY2013_e3_6","airplane.bmp",125,1,"SameContext",6,1091,"Include"
"KAWY2013_e3","KAWY2013_e3_6","wrench.bmp",126,1,"DifferentContext",6,875,"Include"
"KAWY2013_e3","KAWY2013_e3_6","helicopter.bmp",127,0,"New",4,2892,"Include"
"KAWY2013_e3","KAWY2013_e3_6","thread.bmp",128,0,"New",3,1736,"Include"
"KAWY2013_e3","KAWY2013_e3_6","lettuce.bmp",129,0,"New",2,2325,"Include"
"KAWY2013_e3","KAWY2013_e3_6","mountain.bmp",130,0,"New",2,1480,"Include"
"KAWY2013_e3","KAWY2013_e3_6","ladder.bmp",131,1,"SameContext",4,2272,"Include"
"KAWY2013_e3","KAWY2013_e3_6","orange.bmp",132,0,"New",5,1814,"Include"
"KAWY2013_e3","KAWY2013_e3_6","asparagus .bmp",133,1,"DifferentContext",5,2847,"Include"
"KAWY2013_e3","KAWY2013_e3_6","well.bmp",134,0,"New",4,2508,"Include"
"KAWY2013_e3","KAWY2013_e3_6","blouse.bmp",135,1,"SameContext",2,2088,"Include"
"KAWY2013_e3","KAWY2013_e3_6","watermelon.bmp",136,0,"New",2,1830,"Include"
"KAWY2013_e3","KAWY2013_e3_6","seahorse.bmp",137,0,"New",3,1758,"Include"
"KAWY2013_e3","KAWY2013_e3_6","stool.bmp",138,0,"New",6,1130,"Include"
"KAWY2013_e3","KAWY2013_e3_6","sock.bmp",139,1,"DifferentContext",6,928,"Include"
"KAWY2013_e3","KAWY2013_e3_6","lemon.bmp",140,1,"SameContext",4,1680,"Include"
"KAWY2013_e3","KAWY2013_e3_6","sandwich.bmp",141,1,"DifferentContext",3,1567,"Include"
"KAWY2013_e3","KAWY2013_e3_6","tool.bmp",142,1,"SameContext",5,2611,"Include"
"KAWY2013_e3","KAWY2013_e3_6","clown.bmp",143,1,"SameContext",3,2521,"Include"
"KAWY2013_e3","KAWY2013_e3_6","gun.bmp",144,0,"New",2,1301,"Include"
"KAWY2013_e3","KAWY2013_e3_6","book.bmp",145,1,"SameContext",4,1829,"Include"
"KAWY2013_e3","KAWY2013_e3_6","box.bmp",146,1,"SameContext",6,1405,"Include"
"KAWY2013_e3","KAWY2013_e3_6","sweater.bmp",147,0,"New",6,1896,"Include"
"KAWY2013_e3","KAWY2013_e3_6","lips.bmp",148,1,"SameContext",6,1070,"Include"
"KAWY2013_e3","KAWY2013_e3_6","rockingchair.bmp",149,0,"New",5,2264,"Include"
"KAWY2013_e3","KAWY2013_e3_6","glasses.bmp",150,1,"SameContext",6,1278,"Include"
"KAWY2013_e3","KAWY2013_e3_6","kettle.bmp",151,1,"SameContext",6,1006,"Include"
"KAWY2013_e3","KAWY2013_e3_6","duck.bmp",152,1,"DifferentContext",5,2105,"Include"
"KAWY2013_e3","KAWY2013_e3_6","iron.bmp",153,1,"DifferentContext",4,2951,"Include"
"KAWY2013_e3","KAWY2013_e3_6","anchor.bmp",154,1,"DifferentContext",3,1728,"Include"
"KAWY2013_e3","KAWY2013_e3_6","wineglass.bmp",155,1,"SameContext",6,2445,"Include"
"KAWY2013_e3","KAWY2013_e3_6","cloud.bmp",156,1,"SameContext",5,5147,"Include"
"KAWY2013_e3","KAWY2013_e3_6","grasshopper.bmp",157,0,"New",2,1445,"Include"
"KAWY2013_e3","KAWY2013_e3_6","mitten.bmp",158,0,"New",3,1550,"Include"
"KAWY2013_e3","KAWY2013_e3_6","nut.bmp",159,0,"New",3,1379,"Include"
"KAWY2013_e3","KAWY2013_e3_6","wateringcan.bmp",160,1,"SameContext",6,2047,"Include"
"KAWY2013_e3","KAWY2013_e3_6","rooster.bmp",161,0,"New",5,1598,"Include"
"KAWY2013_e3","KAWY2013_e3_6","frog.bmp",162,1,"DifferentContext",6,1345,"Include"
"KAWY2013_e3","KAWY2013_e3_6","balloon.bmp",163,1,"DifferentContext",2,1534,"Include"
"KAWY2013_e3","KAWY2013_e3_6","cigar.bmp",164,0,"New",3,2258,"Include"
"KAWY2013_e3","KAWY2013_e3_6","sled.bmp",165,1,"SameContext",6,1465,"Include"
"KAWY2013_e3","KAWY2013_e3_6","whistle.bmp",166,0,"New",3,2353,"Include"
"KAWY2013_e3","KAWY2013_e3_6","apple.bmp",167,1,"DifferentContext",4,1428,"Include"
"KAWY2013_e3","KAWY2013_e3_6","car.bmp",168,1,"DifferentContext",3,3341,"Include"
"KAWY2013_e3","KAWY2013_e3_6","vest.bmp",169,1,"SameContext",3,1349,"Include"
"KAWY2013_e3","KAWY2013_e3_6","ear.bmp",170,1,"SameContext",6,979,"Include"
"KAWY2013_e3","KAWY2013_e3_6","screwdriver.bmp",171,1,"DifferentContext",6,800,"Include"
"KAWY2013_e3","KAWY2013_e3_6","bottle.bmp",172,0,"New",3,1509,"Include"
"KAWY2013_e3","KAWY2013_e3_6","telephone.bmp",173,1,"SameContext",6,939,"Include"
"KAWY2013_e3","KAWY2013_e3_6","basket.bmp",174,1,"SameContext",4,2217,"Include"
"KAWY2013_e3","KAWY2013_e3_6","cigarette.bmp",175,0,"New",1,2370,"Include"
"KAWY2013_e3","KAWY2013_e3_6","broom.bmp",176,1,"SameContext",6,1172,"Include"
"KAWY2013_e3","KAWY2013_e3_6","carriage .bmp",177,0,"New",4,2361,"Include"
"KAWY2013_e3","KAWY2013_e3_6","giraffe.bmp",178,1,"SameContext",6,1115,"Include"
"KAWY2013_e3","KAWY2013_e3_6","doll.bmp",179,1,"DifferentContext",2,2802,"Include"
"KAWY2013_e3","KAWY2013_e3_6","monkey.bmp",180,1,"SameContext",6,1265,"Include"
"KAWY2013_e3","KAWY2013_e3_7","house.bmp",1,1,"DifferentContext",5,3362,"Include"
"KAWY2013_e3","KAWY2013_e3_7","monkey.bmp",2,0,"New",2,14089,"Include"
"KAWY2013_e3","KAWY2013_e3_7","fryingpan.bmp",3,1,"SameContext",6,1893,"Include"
"KAWY2013_e3","KAWY2013_e3_7","nailfile.bmp",4,1,"SameContext",6,1834,"Include"
"KAWY2013_e3","KAWY2013_e3_7","duck.bmp",5,1,"SameContext",4,3363,"Include"
"KAWY2013_e3","KAWY2013_e3_7","strawberry.bmp",6,1,"DifferentContext",6,2441,"Include"
"KAWY2013_e3","KAWY2013_e3_7","ladder.bmp",7,0,"New",2,2617,"Include"
"KAWY2013_e3","KAWY2013_e3_7","tiger.bmp",8,1,"DifferentContext",2,1328,"Include"
"KAWY2013_e3","KAWY2013_e3_7","saw.bmp",9,1,"DifferentContext",6,1598,"Include"
"KAWY2013_e3","KAWY2013_e3_7","penguin.bmp",10,1,"SameContext",6,1344,"Include"
"KAWY2013_e3","KAWY2013_e3_7","wheel.bmp",11,0,"New",1,1454,"Include"
"KAWY2013_e3","KAWY2013_e3_7","vest.bmp",12,0,"New",2,5383,"Include"
"KAWY2013_e3","KAWY2013_e3_7","telephone.bmp",13,0,"New",4,5959,"Include"
"KAWY2013_e3","KAWY2013_e3_7","apple.bmp",14,1,"SameContext",6,1599,"Include"
"KAWY2013_e3","KAWY2013_e3_7","sandwich.bmp",15,1,"SameContext",5,3457,"Include"
"KAWY2013_e3","KAWY2013_e3_7","fox.bmp",16,0,"New",4,1700,"Include"
"KAWY2013_e3","KAWY2013_e3_7","paintbrush.bmp",17,1,"DifferentContext",6,1779,"Include"
"KAWY2013_e3","KAWY2013_e3_7","basket.bmp",18,0,"New",1,1564,"Include"
"KAWY2013_e3","KAWY2013_e3_7","eye.bmp",19,1,"DifferentContext",6,2656,"Include"
"KAWY2013_e3","KAWY2013_e3_7","camel.bmp",20,1,"DifferentContext",3,1734,"Include"
"KAWY2013_e3","KAWY2013_e3_7","donkey.bmp",21,1,"DifferentContext",3,1155,"Include"
"KAWY2013_e3","KAWY2013_e3_7","guitar.bmp",22,1,"DifferentContext",3,1096,"Include"
"KAWY2013_e3","KAWY2013_e3_7","bird.bmp",23,1,"DifferentContext",6,1953,"Include"
"KAWY2013_e3","KAWY2013_e3_7","bow.bmp",24,0,"New",1,1668,"Include"
"KAWY2013_e3","KAWY2013_e3_7","lobster.bmp",25,1,"SameContext",6,1492,"Include"
"KAWY2013_e3","KAWY2013_e3_7","arrow.bmp",26,1,"SameContext",6,1499,"Include"
"KAWY2013_e3","KAWY2013_e3_7","broom.bmp",27,0,"New",3,2370,"Include"
"KAWY2013_e3","KAWY2013_e3_7","button.bmp",28,1,"DifferentContext",6,1491,"Include"
"KAWY2013_e3","KAWY2013_e3_7","arm.bmp",29,1,"SameContext",6,1178,"Include"
"KAWY2013_e3","KAWY2013_e3_7","bike.bmp",30,1,"SameContext",5,2431,"Include"
"KAWY2013_e3","KAWY2013_e3_7","dresser.bmp",31,1,"DifferentContext",5,2797,"Include"
"KAWY2013_e3","KAWY2013_e3_7","trumpet.bmp",32,0,"New",2,2412,"Include"
"KAWY2013_e3","KAWY2013_e3_7","thimble.bmp",33,1,"SameContext",5,3244,"Include"
"KAWY2013_e3","KAWY2013_e3_7","pineapple.bmp",34,1,"DifferentContext",4,2184,"Include"
"KAWY2013_e3","KAWY2013_e3_7","ball .bmp",35,1,"DifferentContext",5,2754,"Include"
"KAWY2013_e3","KAWY2013_e3_7","ironingboard.bmp",36,1,"DifferentContext",3,2099,"Include"
"KAWY2013_e3","KAWY2013_e3_7","footballhelmet.bmp",37,0,"New",1,1392,"Include"
"KAWY2013_e3","KAWY2013_e3_7","pants.bmp",38,1,"SameContext",6,1771,"Include"
"KAWY2013_e3","KAWY2013_e3_7","spinningwheel.bmp",39,0,"New",1,2230,"Include"
"KAWY2013_e3","KAWY2013_e3_7","shirt.bmp",40,0,"New",3,3438,"Include"
"KAWY2013_e3","KAWY2013_e3_7","glasses.bmp",41,0,"New",3,1249,"Include"
"KAWY2013_e3","KAWY2013_e3_7","jug.bmp",42,1,"DifferentContext",5,1731,"Include"
"KAWY2013_e3","KAWY2013_e3_7","top.bmp",43,1,"DifferentContext",5,4704,"Include"
"KAWY2013_e3","KAWY2013_e3_7","frenchhorn.bmp",44,1,"DifferentContext",3,1885,"Include"
"KAWY2013_e3","KAWY2013_e3_7","coat.bmp",45,1,"SameContext",6,1764,"Include"
"KAWY2013_e3","KAWY2013_e3_7","wateringcan.bmp",46,0,"New",3,3215,"Include"
"KAWY2013_e3","KAWY2013_e3_7","purse.bmp",47,1,"SameContext",6,1420,"Include"
"KAWY2013_e3","KAWY2013_e3_7","leopard.bmp",48,0,"New",3,1446,"Include"
"KAWY2013_e3","KAWY2013_e3_7","balloon.bmp",49,1,"SameContext",5,2783,"Include"
"KAWY2013_e3","KAWY2013_e3_7","skunk.bmp",50,1,"DifferentContext",5,1551,"Include"
"KAWY2013_e3","KAWY2013_e3_7","raccoon.bmp",51,1,"SameContext",2,1540,"Include"
"KAWY2013_e3","KAWY2013_e3_7","bug.bmp",52,1,"DifferentContext",6,1289,"Include"
"KAWY2013_e3","KAWY2013_e3_7","suitcase.bmp",53,1,"DifferentContext",4,1513,"Include"
"KAWY2013_e3","KAWY2013_e3_7","pipe.bmp",54,1,"DifferentContext",4,1056,"Include"
"KAWY2013_e3","KAWY2013_e3_7","asparagus .bmp",55,1,"SameContext",6,1193,"Include"
"KAWY2013_e3","KAWY2013_e3_7","hanger.bmp",56,1,"DifferentContext",2,2926,"Include"
"KAWY2013_e3","KAWY2013_e3_7","box.bmp",57,0,"New",2,1336,"Include"
"KAWY2013_e3","KAWY2013_e3_7","potato.bmp",58,1,"SameContext",6,1270,"Include"
"KAWY2013_e3","KAWY2013_e3_7","ant.bmp",59,1,"DifferentContext",6,1783,"Include"
"KAWY2013_e3","KAWY2013_e3_7","sled.bmp",60,0,"New",1,1585,"Include"
"KAWY2013_e3","KAWY2013_e3_7","watch.bmp",61,1,"DifferentContext",6,1877,"Include"
"KAWY2013_e3","KAWY2013_e3_7","lemon.bmp",62,0,"New",2,2283,"Include"
"KAWY2013_e3","KAWY2013_e3_7","pig.bmp",63,1,"SameContext",5,3696,"Include"
"KAWY2013_e3","KAWY2013_e3_7","wagon.bmp",64,1,"SameContext",5,1224,"Include"
"KAWY2013_e3","KAWY2013_e3_7","leaf.bmp",65,0,"New",1,1370,"Include"
"KAWY2013_e3","KAWY2013_e3_7","chicken.bmp",66,1,"DifferentContext",3,6519,"Include"
"KAWY2013_e3","KAWY2013_e3_7","celery.bmp",67,1,"DifferentContext",5,2071,"Include"
"KAWY2013_e3","KAWY2013_e3_7","cannon.bmp",68,1,"DifferentContext",3,1509,"Include"
"KAWY2013_e3","KAWY2013_e3_7","cherry.bmp",69,1,"SameContext",5,1932,"Include"
"KAWY2013_e3","KAWY2013_e3_7","alligator.bmp",70,0,"New",2,1792,"Include"
"KAWY2013_e3","KAWY2013_e3_7","seal.bmp",71,1,"SameContext",6,2026,"Include"
"KAWY2013_e3","KAWY2013_e3_7","refrigerator.bmp",72,0,"New",3,2202,"Include"
"KAWY2013_e3","KAWY2013_e3_7","flag.bmp",73,1,"DifferentContext",3,1378,"Include"
"KAWY2013_e3","KAWY2013_e3_7","football.bmp",74,0,"New",2,2206,"Include"
"KAWY2013_e3","KAWY2013_e3_7","cup.bmp",75,1,"SameContext",2,2311,"Include"
"KAWY2013_e3","KAWY2013_e3_7","clock.bmp",76,1,"SameContext",6,1435,"Include"
"KAWY2013_e3","KAWY2013_e3_7","chain.bmp",77,1,"DifferentContext",6,1669,"Include"
"KAWY2013_e3","KAWY2013_e3_7","star.bmp",78,1,"SameContext",6,2404,"Include"
"KAWY2013_e3","KAWY2013_e3_7","hand.bmp",79,1,"DifferentContext",6,2661,"Include"
"KAWY2013_e3","KAWY2013_e3_7","car.bmp",80,1,"SameContext",6,1273,"Include"
"KAWY2013_e3","KAWY2013_e3_7","goat.bmp",81,1,"DifferentContext",4,1962,"Include"
"KAWY2013_e3","KAWY2013_e3_7","bread.bmp",82,1,"DifferentContext",3,2333,"Include"
"KAWY2013_e3","KAWY2013_e3_7","accordion.bmp",83,0,"New",2,1808,"Include"
"KAWY2013_e3","KAWY2013_e3_7","gloves.bmp",84,1,"DifferentContext",5,4073,"Include"
"KAWY2013_e3","KAWY2013_e3_7","tool.bmp",85,0,"New",2,3666,"Include"
"KAWY2013_e3","KAWY2013_e3_7","dog.bmp",86,1,"DifferentContext",2,3820,"Include"
"KAWY2013_e3","KAWY2013_e3_7","rollingpin.bmp",87,1,"SameContext",2,4879,"Include"
"KAWY2013_e3","KAWY2013_e3_7","blouse.bmp",88,0,"New",1,1557,"Include"
"KAWY2013_e3","KAWY2013_e3_7","cap.bmp",89,0,"New",2,1705,"Include"
"KAWY2013_e3","KAWY2013_e3_7","chair.bmp",90,1,"SameContext",2,1512,"Include"
"KAWY2013_e3","KAWY2013_e3_7","skirt.bmp",91,1,"DifferentContext",2,2127,"Include"
"KAWY2013_e3","KAWY2013_e3_7","wrench.bmp",92,1,"SameContext",5,2122,"Include"
"KAWY2013_e3","KAWY2013_e3_7","anchor.bmp",93,1,"SameContext",4,4711,"Include"
"KAWY2013_e3","KAWY2013_e3_7","saltshaker.bmp",94,0,"New",2,2292,"Include"
"KAWY2013_e3","KAWY2013_e3_7","dress.bmp",95,1,"SameContext",3,1929,"Include"
"KAWY2013_e3","KAWY2013_e3_7","bat.bmp",96,1,"DifferentContext",3,6861,"Include"
"KAWY2013_e3","KAWY2013_e3_7","kangaroo.bmp",97,1,"DifferentContext",5,1502,"Include"
"KAWY2013_e3","KAWY2013_e3_7","swing.bmp",98,1,"SameContext",5,1253,"Include"
"KAWY2013_e3","KAWY2013_e3_7","flute.bmp",99,1,"SameContext",3,1991,"Include"
"KAWY2013_e3","KAWY2013_e3_7","television.bmp",100,1,"SameContext",3,1625,"Include"
"KAWY2013_e3","KAWY2013_e3_7","table.bmp",101,0,"New",3,2538,"Include"
"KAWY2013_e3","KAWY2013_e3_7","peach.bmp",102,0,"New",3,1364,"Include"
"KAWY2013_e3","KAWY2013_e3_7","snowman.bmp",103,1,"DifferentContext",6,1825,"Include"
"KAWY2013_e3","KAWY2013_e3_7","key.bmp",104,1,"DifferentContext",6,1624,"Include"
"KAWY2013_e3","KAWY2013_e3_7","rollerrskates.bmp",105,1,"SameContext",6,1466,"Include"
"KAWY2013_e3","KAWY2013_e3_7","peanut.bmp",106,0,"New",2,2019,"Include"
"KAWY2013_e3","KAWY2013_e3_7","sheep.bmp",107,1,"DifferentContext",2,1859,"Include"
"KAWY2013_e3","KAWY2013_e3_7","lightbulb.bmp",108,1,"SameContext",6,1274,"Include"
"KAWY2013_e3","KAWY2013_e3_7","stove.bmp",109,1,"SameContext",3,4235,"Include"
"KAWY2013_e3","KAWY2013_e3_7","clown.bmp",110,0,"New",1,1564,"Include"
"KAWY2013_e3","KAWY2013_e3_7","mouse.bmp",111,0,"New",3,2672,"Include"
"KAWY2013_e3","KAWY2013_e3_7","artichoke.bmp",112,1,"DifferentContext",2,4421,"Include"
"KAWY2013_e3","KAWY2013_e3_7","doll.bmp",113,1,"SameContext",1,1566,"Include"
"KAWY2013_e3","KAWY2013_e3_7","violin.bmp",114,1,"DifferentContext",3,1538,"Include"
"KAWY2013_e3","KAWY2013_e3_7","flower.bmp",115,1,"SameContext",5,1847,"Include"
"KAWY2013_e3","KAWY2013_e3_7","airplane.bmp",116,0,"New",3,1951,"Include"
"KAWY2013_e3","KAWY2013_e3_7","knife.bmp",117,1,"SameContext",5,2675,"Include"
"KAWY2013_e3","KAWY2013_e3_7","sailboat.bmp",118,1,"SameContext",3,3671,"Include"
"KAWY2013_e3","KAWY2013_e3_7","door.bmp",119,1,"SameContext",6,1537,"Include"
"KAWY2013_e3","KAWY2013_e3_7","ring.bmp",120,1,"SameContext",2,3847,"Include"
"KAWY2013_e3","KAWY2013_e3_7","bowl.bmp",121,0,"New",2,1353,"Include"
"KAWY2013_e3","KAWY2013_e3_7","lamp.bmp",122,1,"DifferentContext",5,1686,"Include"
"KAWY2013_e3","KAWY2013_e3_7","frog.bmp",123,1,"SameContext",4,2805,"Include"
"KAWY2013_e3","KAWY2013_e3_7","truck.bmp",124,1,"DifferentContext",3,2180,"Include"
"KAWY2013_e3","KAWY2013_e3_7","rhinoceros.bmp",125,1,"DifferentContext",3,1438,"Include"
"KAWY2013_e3","KAWY2013_e3_7","pliers.bmp",126,0,"New",3,1144,"Include"
"KAWY2013_e3","KAWY2013_e3_7","clothespin.bmp",127,1,"DifferentContext",3,2094,"Include"
"KAWY2013_e3","KAWY2013_e3_7","fence.bmp",128,0,"New",2,1435,"Include"
"KAWY2013_e3","KAWY2013_e3_7","ear.bmp",129,0,"New",3,1972,"Include"
"KAWY2013_e3","KAWY2013_e3_7","wineglass.bmp",130,0,"New",3,983,"Include"
"KAWY2013_e3","KAWY2013_e3_7","piano.bmp",131,0,"New",3,1844,"Include"
"KAWY2013_e3","KAWY2013_e3_7","sock.bmp",132,1,"SameContext",6,1420,"Include"
"KAWY2013_e3","KAWY2013_e3_7","grapes.bmp",133,1,"DifferentContext",5,2215,"Include"
"KAWY2013_e3","KAWY2013_e3_7","horse.bmp",134,0,"New",3,3263,"Include"
"KAWY2013_e3","KAWY2013_e3_7","peacock.bmp",135,1,"DifferentContext",3,889,"Include"
"KAWY2013_e3","KAWY2013_e3_7","iron.bmp",136,1,"SameContext",6,1979,"Include"
"KAWY2013_e3","KAWY2013_e3_7","vase.bmp",137,0,"New",2,2237,"Include"
"KAWY2013_e3","KAWY2013_e3_7","bell.bmp",138,1,"SameContext",6,1748,"Include"
"KAWY2013_e3","KAWY2013_e3_7","needle.bmp",139,1,"SameContext",6,1184,"Include"
"KAWY2013_e3","KAWY2013_e3_7","bed.bmp",140,0,"New",2,5493,"Include"
"KAWY2013_e3","KAWY2013_e3_7","pen.bmp",141,0,"New",5,4881,"Include"
"KAWY2013_e3","KAWY2013_e3_7","toaster.bmp",142,1,"SameContext",6,1639,"Include"
"KAWY2013_e3","KAWY2013_e3_7","tomato.bmp",143,1,"SameContext",6,3752,"Include"
"KAWY2013_e3","KAWY2013_e3_7","kettle.bmp",144,0,"New",3,3469,"Include"
"KAWY2013_e3","KAWY2013_e3_7","scissor.bmp",145,1,"DifferentContext",5,1615,"Include"
"KAWY2013_e3","KAWY2013_e3_7","comb.bmp",146,1,"DifferentContext",2,1617,"Include"
"KAWY2013_e3","KAWY2013_e3_7","lips.bmp",147,0,"New",1,1619,"Include"
"KAWY2013_e3","KAWY2013_e3_7","zebra.bmp",148,0,"New",2,2485,"Include"
"KAWY2013_e3","KAWY2013_e3_7","glass.bmp",149,0,"New",2,2017,"Include"
"KAWY2013_e3","KAWY2013_e3_7","nail.bmp",150,1,"SameContext",5,2002,"Include"
"KAWY2013_e3","KAWY2013_e3_7","recordplayer.bmp",151,1,"SameContext",2,1683,"Include"
"KAWY2013_e3","KAWY2013_e3_7","fish.bmp",152,0,"New",2,3522,"Include"
"KAWY2013_e3","KAWY2013_e3_7","carrot.bmp",153,1,"SameContext",5,1762,"Include"
"KAWY2013_e3","KAWY2013_e3_7","screwdriver.bmp",154,1,"SameContext",6,1470,"Include"
"KAWY2013_e3","KAWY2013_e3_7","toothbrush.bmp",155,0,"New",3,2022,"Include"
"KAWY2013_e3","KAWY2013_e3_7","fly2.bmp",156,1,"SameContext",2,1271,"Include"
"KAWY2013_e3","KAWY2013_e3_7","garbagecan.bmp",157,1,"DifferentContext",2,1800,"Include"
"KAWY2013_e3","KAWY2013_e3_7","crown.bmp",158,1,"SameContext",6,1410,"Include"
"KAWY2013_e3","KAWY2013_e3_7","motorcycle.bmp",159,0,"New",2,4092,"Include"
"KAWY2013_e3","KAWY2013_e3_7","pumpkin.bmp",160,1,"SameContext",6,1364,"Include"
"KAWY2013_e3","KAWY2013_e3_7","lion.bmp",161,1,"SameContext",6,2993,"Include"
"KAWY2013_e3","KAWY2013_e3_7","cloud.bmp",162,0,"New",2,1720,"Include"
"KAWY2013_e3","KAWY2013_e3_7","harp.bmp",163,1,"SameContext",6,1717,"Include"
"KAWY2013_e3","KAWY2013_e3_7","hair.bmp",164,1,"DifferentContext",6,1747,"Include"
"KAWY2013_e3","KAWY2013_e3_7","plug.bmp",165,0,"New",1,1647,"Include"
"KAWY2013_e3","KAWY2013_e3_7","lock.bmp",166,0,"New",1,959,"Include"
"KAWY2013_e3","KAWY2013_e3_7","giraffe.bmp",167,0,"New",1,1437,"Include"
"KAWY2013_e3","KAWY2013_e3_7","squirrel.bmp",168,0,"New",2,1767,"Include"
"KAWY2013_e3","KAWY2013_e3_7","necklace.bmp",169,1,"DifferentContext",5,1858,"Include"
"KAWY2013_e3","KAWY2013_e3_7","nose.bmp",170,1,"DifferentContext",4,2201,"Include"
"KAWY2013_e3","KAWY2013_e3_7","racket.bmp",171,1,"DifferentContext",5,2915,"Include"
"KAWY2013_e3","KAWY2013_e3_7","hammer.bmp",172,1,"DifferentContext",5,1853,"Include"
"KAWY2013_e3","KAWY2013_e3_7","finger.bmp",173,1,"DifferentContext",1,2421,"Include"
"KAWY2013_e3","KAWY2013_e3_7","foot.bmp",174,0,"New",3,2148,"Include"
"KAWY2013_e3","KAWY2013_e3_7","deer.bmp",175,0,"New",2,1663,"Include"
"KAWY2013_e3","KAWY2013_e3_7","envelope.bmp",176,1,"DifferentContext",2,1759,"Include"
"KAWY2013_e3","KAWY2013_e3_7","book.bmp",177,0,"New",2,1130,"Include"
"KAWY2013_e3","KAWY2013_e3_7","rabbit.bmp",178,1,"SameContext",5,1713,"Include"
"KAWY2013_e3","KAWY2013_e3_7","pepper.bmp",179,0,"New",2,1742,"Include"
"KAWY2013_e3","KAWY2013_e3_7","fork.bmp",180,1,"DifferentContext",2,1290,"Include"
"KAWY2013_e3","KAWY2013_e3_8","nose.bmp",1,1,"SameContext",1,4283,"Include"
"KAWY2013_e3","KAWY2013_e3_8","cat.bmp",2,1,"DifferentContext",6,3306,"Include"
"KAWY2013_e3","KAWY2013_e3_8","orange.bmp",3,1,"DifferentContext",6,1812,"Include"
"KAWY2013_e3","KAWY2013_e3_8","bat.bmp",4,1,"SameContext",6,1261,"Include"
"KAWY2013_e3","KAWY2013_e3_8","television.bmp",5,0,"New",3,5918,"Include"
"KAWY2013_e3","KAWY2013_e3_8","pipe.bmp",6,1,"SameContext",6,1592,"Include"
"KAWY2013_e3","KAWY2013_e3_8","wagon.bmp",7,0,"New",2,2474,"Include"
"KAWY2013_e3","KAWY2013_e3_8","flower.bmp",8,0,"New",1,3959,"Include"
"KAWY2013_e3","KAWY2013_e3_8","frog.bmp",9,0,"New",6,1637,"Include"
"KAWY2013_e3","KAWY2013_e3_8","ring.bmp",10,0,"New",2,6118,"Include"
"KAWY2013_e3","KAWY2013_e3_8","anchor.bmp",11,0,"New",3,3591,"Include"
"KAWY2013_e3","KAWY2013_e3_8","couch.bmp",12,1,"DifferentContext",6,1540,"Include"
"KAWY2013_e3","KAWY2013_e3_8","jug.bmp",13,1,"SameContext",2,3417,"Include"
"KAWY2013_e3","KAWY2013_e3_8","hammer.bmp",14,1,"SameContext",6,1342,"Include"
"KAWY2013_e3","KAWY2013_e3_8","chair.bmp",15,0,"New",2,5163,"Include"
"KAWY2013_e3","KAWY2013_e3_8","swan.bmp",16,1,"DifferentContext",1,2260,"Include"
"KAWY2013_e3","KAWY2013_e3_8","lettuce.bmp",17,1,"DifferentContext",1,3242,"Include"
"KAWY2013_e3","KAWY2013_e3_8","pig.bmp",18,0,"New",1,1639,"Include"
