"exp","id","block","isold","condition1","rating","RT","excluding","trial","item"
"KK2015_e1","KK2015_e1_1",1,1,"ValNegative",2,1999,"Include",1,"3168.jpg"
"KK2015_e1","KK2015_e1_1",1,0,"ValPositive",2,2341,"Include",2,"1650.jpg"
"KK2015_e1","KK2015_e1_1",1,0,"ValNegative",2,2145,"Include",3,"9920.jpg"
"KK2015_e1","KK2015_e1_1",1,0,"ValNegative",1,2153,"Include",4,"2276.jpg"
"KK2015_e1","KK2015_e1_1",1,0,"ValNeutral",1,1574,"Include",5,"7110.jpg"
"KK2015_e1","KK2015_e1_1",1,0,"ValNegative",3,1978,"Include",6,"9582.jpg"
"KK2015_e1","KK2015_e1_1",1,0,"ValPositive",2,1863,"Include",7,"4520.jpg"
"KK2015_e1","KK2015_e1_1",1,1,"ValNegative",4,2065,"Include",8,"9611.jpg"
"KK2015_e1","KK2015_e1_1",1,0,"ValNegative",3,2001,"Include",9,"9140.jpg"
"KK2015_e1","KK2015_e1_1",1,0,"ValNegative",2,2112,"Include",10,"2053.jpg"
"KK2015_e1","KK2015_e1_1",1,0,"ValNegative",2,1731,"Include",11,"9800.jpg"
"KK2015_e1","KK2015_e1_1",1,1,"ValNeutral",2,2017,"Include",12,"2570.jpg"
"KK2015_e1","KK2015_e1_1",1,1,"ValNeutral",4,1818,"Include",13,"2487.jpg"
"KK2015_e1","KK2015_e1_1",1,0,"ValPositive",3,2155,"Include",14,"7230.jpg"
"KK2015_e1","KK2015_e1_1",1,0,"ValNeutral",2,1919,"Include",15,"4000.jpg"
"KK2015_e1","KK2015_e1_1",1,0,"ValNeutral",2,1429,"Include",16,"5130.jpg"
"KK2015_e1","KK2015_e1_1",1,1,"ValPositive",2,1983,"Include",17,"2209.jpg"
"KK2015_e1","KK2015_e1_1",1,0,"ValNegative",3,2835,"Include",18,"2753.jpg"
"KK2015_e1","KK2015_e1_1",1,0,"ValPositive",2,1345,"Include",19,"8280.jpg"
"KK2015_e1","KK2015_e1_1",1,0,"ValNeutral",3,2084,"Include",20,"2495.jpg"
"KK2015_e1","KK2015_e1_1",1,0,"ValNeutral",2,2396,"Include",21,"2575.jpg"
"KK2015_e1","KK2015_e1_1",1,1,"ValPositive",4,2159,"Include",22,"2345.jpg"
"KK2015_e1","KK2015_e1_1",1,0,"ValNegative",2,1983,"Include",23,"2141.jpg"
"KK2015_e1","KK2015_e1_1",1,1,"ValNeutral",4,1517,"Include",24,"2214.jpg"
"KK2015_e1","KK2015_e1_1",1,1,"ValNeutral",4,2187,"Include",25,"3210.jpg"
"KK2015_e1","KK2015_e1_1",1,0,"ValNeutral",3,2090,"Include",26,"2271.jpg"
"KK2015_e1","KK2015_e1_1",1,0,"ValNeutral",1,1744,"Include",27,"2200.jpg"
"KK2015_e1","KK2015_e1_1",1,1,"ValNegative",4,1362,"Include",28,"9042.jpg"
"KK2015_e1","KK2015_e1_1",1,0,"ValNegative",3,233,"Include",29,"7560.jpg"
"KK2015_e1","KK2015_e1_1",1,0,"ValNegative",3,2298,"Include",30,"3220.jpg"
"KK2015_e1","KK2015_e1_1",1,0,"ValNeutral",2,1999,"Include",31,"4279.jpg"
"KK2015_e1","KK2015_e1_1",1,0,"ValPositive",2,2445,"Include",32,"4653.jpg"
"KK2015_e1","KK2015_e1_1",1,0,"ValNegative",2,1785,"Include",33,"6300.jpg"
"KK2015_e1","KK2015_e1_1",1,0,"ValNeutral",2,2038,"Include",34,"2485.jpg"
"KK2015_e1","KK2015_e1_1",1,1,"ValNegative",3,2540,"Include",35,"9921.jpg"
"KK2015_e1","KK2015_e1_1",1,1,"ValNegative",3,2055,"Include",36,"2130.jpg"
"KK2015_e1","KK2015_e1_1",1,1,"ValPositive",4,1025,"Include",37,"5470.jpg"
"KK2015_e1","KK2015_e1_1",1,0,"ValNeutral",2,2761,"Include",38,"2515.jpg"
"KK2015_e1","KK2015_e1_1",1,0,"ValPositive",3,2277,"Include",39,"2208.jpg"
"KK2015_e1","KK2015_e1_1",1,1,"ValPositive",4,2306,"Include",40,"2160.jpg"
"KK2015_e1","KK2015_e1_1",1,1,"ValNeutral",4,1258,"Include",41,"7130.jpg"
"KK2015_e1","KK2015_e1_1",1,0,"ValPositive",2,1841,"Include",42,"5480.jpg"
"KK2015_e1","KK2015_e1_1",1,1,"ValPositive",3,0,"Include",43,"4660.jpg"
"KK2015_e1","KK2015_e1_1",1,0,"ValNegative",3,2166,"Include",44,"1321.jpg"
"KK2015_e1","KK2015_e1_1",1,0,"ValPositive",3,1632,"Include",45,"4689.jpg"
"KK2015_e1","KK2015_e1_1",1,1,"ValNegative",4,1268,"Include",46,"1200.jpg"
"KK2015_e1","KK2015_e1_1",1,1,"ValNeutral",3,1540,"Include",47,"5500.jpg"
"KK2015_e1","KK2015_e1_1",1,1,"ValNegative",4,986,"Include",48,"9300.jpg"
"KK2015_e1","KK2015_e1_1",1,0,"ValNeutral",2,2401,"Include",49,"4571.jpg"
"KK2015_e1","KK2015_e1_1",1,1,"ValPositive",4,1538,"Include",50,"4533.jpg"
"KK2015_e1","KK2015_e1_1",1,1,"ValNegative",3,1847,"Include",51,"3063.jpg"
"KK2015_e1","KK2015_e1_1",1,1,"ValNeutral",4,1707,"Include",52,"5535.jpg"
"KK2015_e1","KK2015_e1_1",1,0,"ValNeutral",2,1813,"Include",53,"7009.jpg"
"KK2015_e1","KK2015_e1_1",1,0,"ValNegative",4,2234,"Include",54,"9405.jpg"
"KK2015_e1","KK2015_e1_1",1,0,"ValPositive",2,2192,"Include",55,"4601.jpg"
"KK2015_e1","KK2015_e1_1",1,1,"ValNeutral",3,1877,"Include",56,"2880.jpg"
"KK2015_e1","KK2015_e1_1",1,1,"ValNegative",2,1780,"Include",57,"6838.jpg"
"KK2015_e1","KK2015_e1_1",1,1,"ValNegative",3,2889,"Include",58,"2661.jpg"
"KK2015_e1","KK2015_e1_1",1,1,"ValPositive",4,1141,"Include",59,"8380.jpg"
"KK2015_e1","KK2015_e1_1",1,0,"ValNegative",3,1792,"Include",60,"2900.jpg"
"KK2015_e1","KK2015_e1_1",1,0,"ValNeutral",2,1768,"Include",61,"7004.jpg"
"KK2015_e1","KK2015_e1_1",1,1,"ValNegative",2,1455,"Include",62,"6370.jpg"
"KK2015_e1","KK2015_e1_1",1,0,"ValPositive",3,2094,"Include",63,"5628.jpg"
"KK2015_e1","KK2015_e1_1",1,0,"ValNegative",2,2090,"Include",64,"6410.jpg"
"KK2015_e1","KK2015_e1_1",1,0,"ValNeutral",2,2297,"Include",65,"2720.jpg"
"KK2015_e1","KK2015_e1_1",1,1,"ValNegative",3,2248,"Include",66,"9253.jpg"
"KK2015_e1","KK2015_e1_1",1,0,"ValPositive",3,2467,"Include",67,"1999.jpg"
"KK2015_e1","KK2015_e1_1",1,0,"ValNeutral",2,1701,"Include",68,"2210.jpg"
"KK2015_e1","KK2015_e1_1",1,1,"ValPositive",2,993,"Include",69,"5626.jpg"
"KK2015_e1","KK2015_e1_1",1,1,"ValNeutral",2,1499,"Include",70,"2480.jpg"
"KK2015_e1","KK2015_e1_1",1,0,"ValNegative",1,2549,"Include",71,"1300.jpg"
"KK2015_e1","KK2015_e1_1",1,0,"ValNeutral",2,2108,"Include",72,"5593.jpg"
"KK2015_e1","KK2015_e1_1",1,1,"ValPositive",2,2307,"Include",73,"8461.jpg"
"KK2015_e1","KK2015_e1_1",1,1,"ValNegative",4,1506,"Include",74,"1390.jpg"
"KK2015_e1","KK2015_e1_1",1,0,"ValNeutral",2,1897,"Include",75,"5455.jpg"
"KK2015_e1","KK2015_e1_1",1,0,"ValPositive",NA,0,"Exclude",76,"7402.jpg"
"KK2015_e1","KK2015_e1_1",1,0,"ValNeutral",3,1683,"Include",77,"1945.jpg"
"KK2015_e1","KK2015_e1_1",1,1,"ValNeutral",2,1727,"Include",78,"2580.jpg"
"KK2015_e1","KK2015_e1_1",1,1,"ValNeutral",4,1022,"Include",79,"2190.jpg"
"KK2015_e1","KK2015_e1_1",1,1,"ValPositive",4,1691,"Include",80,"5950.jpg"
"KK2015_e1","KK2015_e1_1",1,0,"ValNeutral",2,2161,"Include",81,"7000.jpg"
"KK2015_e1","KK2015_e1_1",1,0,"ValNegative",4,1886,"Include",82,"9910.jpg"
"KK2015_e1","KK2015_e1_1",1,1,"ValPositive",4,2095,"Include",83,"7282.jpg"
"KK2015_e1","KK2015_e1_1",1,1,"ValPositive",4,924,"Include",84,"8350.jpg"
"KK2015_e1","KK2015_e1_1",1,1,"ValNegative",2,2634,"Include",85,"9400.jpg"
"KK2015_e1","KK2015_e1_1",1,1,"ValPositive",3,1534,"Include",86,"4250.jpg"
"KK2015_e1","KK2015_e1_1",1,0,"ValPositive",2,2131,"Include",87,"8370.jpg"
"KK2015_e1","KK2015_e1_1",1,0,"ValNegative",2,1691,"Include",88,"1302.jpg"
"KK2015_e1","KK2015_e1_1",1,0,"ValNegative",3,1836,"Include",89,"6830.jpg"
"KK2015_e1","KK2015_e1_1",1,1,"ValPositive",3,1887,"Include",90,"8300.jpg"
"KK2015_e1","KK2015_e1_1",1,0,"ValPositive",4,1750,"Include",91,"4640.jpg"
"KK2015_e1","KK2015_e1_1",1,0,"ValNeutral",2,2264,"Include",92,"5530.jpg"
"KK2015_e1","KK2015_e1_1",1,0,"ValNeutral",2,1184,"Include",93,"4510.jpg"
"KK2015_e1","KK2015_e1_1",1,1,"ValNegative",4,1464,"Include",94,"6821.jpg"
"KK2015_e1","KK2015_e1_1",1,1,"ValPositive",3,1973,"Include",95,"4641.jpg"
"KK2015_e1","KK2015_e1_1",1,0,"ValNeutral",2,1962,"Include",96,"5875.jpg"
"KK2015_e1","KK2015_e1_1",1,1,"ValNegative",4,1177,"Include",97,"6250.jpg"
"KK2015_e1","KK2015_e1_1",1,1,"ValPositive",4,1420,"Include",98,"5629.jpg"
"KK2015_e1","KK2015_e1_1",1,1,"ValNegative",4,968,"Include",99,"9000.jpg"
"KK2015_e1","KK2015_e1_1",1,0,"ValNeutral",1,2597,"Include",100,"5740.jpg"
"KK2015_e1","KK2015_e1_1",1,0,"ValNegative",2,2918,"Include",101,"6571.jpg"
"KK2015_e1","KK2015_e1_1",1,0,"ValNeutral",2,2368,"Include",102,"2381.jpg"
"KK2015_e1","KK2015_e1_1",1,1,"ValNegative",4,2009,"Include",103,"2205.jpg"
"KK2015_e1","KK2015_e1_1",1,0,"ValNegative",3,2086,"Include",104,"3301.jpg"
"KK2015_e1","KK2015_e1_1",1,1,"ValPositive",2,1884,"Include",105,"2303.jpg"
"KK2015_e1","KK2015_e1_1",1,0,"ValPositive",4,2898,"Include",106,"5460.jpg"
"KK2015_e1","KK2015_e1_1",1,1,"ValNeutral",2,2194,"Include",107,"4605.jpg"
"KK2015_e1","KK2015_e1_1",1,0,"ValPositive",4,1913,"Include",108,"5910.jpg"
"KK2015_e1","KK2015_e1_1",1,1,"ValNeutral",4,1522,"Include",109,"7080.jpg"
"KK2015_e1","KK2015_e1_1",1,0,"ValPositive",1,2639,"Include",110,"4617.jpg"
"KK2015_e1","KK2015_e1_1",1,1,"ValNegative",2,2818,"Include",111,"2751.jpg"
"KK2015_e1","KK2015_e1_1",1,0,"ValPositive",3,1625,"Include",112,"2050.jpg"
"KK2015_e1","KK2015_e1_1",1,0,"ValPositive",2,1897,"Include",113,"8400.jpg"
"KK2015_e1","KK2015_e1_1",1,1,"ValPositive",3,2244,"Include",114,"4631.jpg"
"KK2015_e1","KK2015_e1_1",1,0,"ValPositive",3,2945,"Include",115,"7289.jpg"
"KK2015_e1","KK2015_e1_1",1,0,"ValPositive",2,2627,"Include",116,"7481.jpg"
"KK2015_e1","KK2015_e1_1",1,1,"ValNegative",4,1964,"Include",117,"2800.jpg"
"KK2015_e1","KK2015_e1_1",1,0,"ValNeutral",3,2676,"Include",118,"7030.jpg"
"KK2015_e1","KK2015_e1_1",1,1,"ValNegative",3,2072,"Include",119,"1310.jpg"
"KK2015_e1","KK2015_e1_1",1,0,"ValNeutral",1,2102,"Include",120,"2840.jpg"
"KK2015_e1","KK2015_e1_1",1,1,"ValNegative",2,2030,"Include",121,"4621.jpg"
"KK2015_e1","KK2015_e1_1",1,1,"ValNeutral",1,1698,"Include",122,"5731.jpg"
"KK2015_e1","KK2015_e1_1",1,0,"ValNegative",3,2674,"Include",123,"2692.jpg"
"KK2015_e1","KK2015_e1_1",1,1,"ValNegative",4,2677,"Include",124,"3350.jpg"
"KK2015_e1","KK2015_e1_1",1,0,"ValNeutral",1,2793,"Include",125,"7140.jpg"
"KK2015_e1","KK2015_e1_1",1,1,"ValNeutral",2,2509,"Include",126,"7050.jpg"
"KK2015_e1","KK2015_e1_1",1,1,"ValNegative",4,1269,"Include",127,"3261.jpg"
"KK2015_e1","KK2015_e1_1",1,1,"ValNegative",3,1859,"Include",128,"5972.jpg"
"KK2015_e1","KK2015_e1_1",1,1,"ValNegative",4,999,"Include",129,"1030.jpg"
"KK2015_e1","KK2015_e1_1",1,0,"ValPositive",3,1702,"Include",130,"8496.jpg"
"KK2015_e1","KK2015_e1_1",1,0,"ValNegative",3,2544,"Include",131,"9270.jpg"
"KK2015_e1","KK2015_e1_1",1,1,"ValNegative",2,2043,"Include",132,"9160.jpg"
"KK2015_e1","KK2015_e1_1",1,1,"ValNeutral",4,1473,"Include",133,"7010.jpg"
"KK2015_e1","KK2015_e1_1",1,1,"ValPositive",4,2091,"Include",134,"7501.jpg"
"KK2015_e1","KK2015_e1_1",1,0,"ValPositive",1,1856,"Include",135,"7270.jpg"
"KK2015_e1","KK2015_e1_1",1,0,"ValNegative",2,1600,"Include",136,"7360.jpg"
"KK2015_e1","KK2015_e1_1",1,1,"ValPositive",4,1090,"Include",137,"7570.jpg"
"KK2015_e1","KK2015_e1_1",1,1,"ValNeutral",4,1288,"Include",138,"2514.jpg"
"KK2015_e1","KK2015_e1_1",1,1,"ValPositive",4,1622,"Include",139,"7460.jpg"
"KK2015_e1","KK2015_e1_1",1,1,"ValNeutral",4,2078,"Include",140,"7183.jpg"
"KK2015_e1","KK2015_e1_1",1,1,"ValPositive",4,873,"Include",141,"1121.jpg"
"KK2015_e1","KK2015_e1_1",1,0,"ValNegative",3,1865,"Include",142,"9006.jpg"
"KK2015_e1","KK2015_e1_1",1,0,"ValPositive",2,2007,"Include",143,"8030.jpg"
"KK2015_e1","KK2015_e1_1",1,1,"ValPositive",4,1205,"Include",144,"2058.jpg"
"KK2015_e1","KK2015_e1_1",1,1,"ValNegative",3,1898,"Include",145,"8230.jpg"
"KK2015_e1","KK2015_e1_1",1,0,"ValNeutral",2,2636,"Include",146,"7090.jpg"
"KK2015_e1","KK2015_e1_1",1,1,"ValPositive",4,1348,"Include",147,"1440.jpg"
"KK2015_e1","KK2015_e1_1",1,0,"ValNegative",3,2286,"Include",148,"3280.jpg"
"KK2015_e1","KK2015_e1_1",1,1,"ValPositive",3,2081,"Include",149,"5700.jpg"
"KK2015_e1","KK2015_e1_1",1,1,"ValNeutral",4,1391,"Include",150,"4534.jpg"
"KK2015_e1","KK2015_e1_1",1,1,"ValNeutral",4,1138,"Include",151,"7180.jpg"
"KK2015_e1","KK2015_e1_1",1,1,"ValNeutral",1,1948,"Include",152,"2620.jpg"
"KK2015_e1","KK2015_e1_1",1,1,"ValNeutral",4,2309,"Include",153,"2221.jpg"
"KK2015_e1","KK2015_e1_1",1,1,"ValNeutral",3,1381,"Include",154,"2010.jpg"
"KK2015_e1","KK2015_e1_1",1,1,"ValPositive",4,1995,"Include",155,"7220.jpg"
"KK2015_e1","KK2015_e1_1",1,0,"ValPositive",2,2016,"Include",156,"2616.jpg"
"KK2015_e1","KK2015_e1_1",1,1,"ValPositive",3,1508,"Include",157,"4606.jpg"
"KK2015_e1","KK2015_e1_1",1,1,"ValNeutral",2,2443,"Include",158,"5120.jpg"
"KK2015_e1","KK2015_e1_1",1,1,"ValNegative",2,2460,"Include",159,"6834.jpg"
"KK2015_e1","KK2015_e1_1",1,0,"ValNeutral",4,1297,"Include",160,"7182.jpg"
"KK2015_e1","KK2015_e1_1",1,1,"ValNeutral",4,1325,"Include",161,"2383.jpg"
"KK2015_e1","KK2015_e1_1",1,1,"ValPositive",2,2804,"Include",162,"5622.jpg"
"KK2015_e1","KK2015_e1_1",1,1,"ValNeutral",2,2030,"Include",163,"4500.jpg"
"KK2015_e1","KK2015_e1_1",1,1,"ValPositive",3,1942,"Include",164,"7260.jpg"
"KK2015_e1","KK2015_e1_1",1,1,"ValNeutral",4,1497,"Include",165,"7031.jpg"
"KK2015_e1","KK2015_e1_1",1,1,"ValNeutral",3,2713,"Include",166,"2372.jpg"
"KK2015_e1","KK2015_e1_1",1,0,"ValNegative",1,0,"Include",167,"3180.jpg"
"KK2015_e1","KK2015_e1_1",1,1,"ValPositive",2,0,"Include",168,"8420.jpg"
"KK2015_e1","KK2015_e1_1",1,0,"ValNeutral",2,2797,"Include",169,"5395.jpg"
"KK2015_e1","KK2015_e1_1",1,0,"ValPositive",3,1516,"Include",170,"1590.jpg"
"KK2015_e1","KK2015_e1_1",1,0,"ValNegative",2,2393,"Include",171,"9250.jpg"
"KK2015_e1","KK2015_e1_1",1,0,"ValPositive",3,2320,"Include",172,"1340.jpg"
"KK2015_e1","KK2015_e1_1",1,0,"ValNeutral",1,2374,"Include",173,"7034.jpg"
"KK2015_e1","KK2015_e1_1",1,1,"ValPositive",4,1220,"Include",174,"8260.jpg"
"KK2015_e1","KK2015_e1_1",1,0,"ValPositive",1,2231,"Include",175,"2391.jpg"
"KK2015_e1","KK2015_e1_1",1,1,"ValNegative",2,2570,"Include",176,"1301.jpg"
"KK2015_e1","KK2015_e1_1",1,0,"ValNegative",3,1812,"Include",177,"3022.jpg"
"KK2015_e1","KK2015_e1_1",1,1,"ValNeutral",4,1243,"Include",178,"7095.jpg"
"KK2015_e1","KK2015_e1_1",1,1,"ValNeutral",2,1769,"Include",179,"2830.jpg"
"KK2015_e1","KK2015_e1_1",1,1,"ValNeutral",2,1784,"Include",180,"2850.jpg"
"KK2015_e1","KK2015_e1_1",1,1,"ValNegative",3,2074,"Include",181,"6836.jpg"
"KK2015_e1","KK2015_e1_1",1,1,"ValPositive",4,1042,"Include",182,"7400.jpg"
"KK2015_e1","KK2015_e1_1",1,1,"ValPositive",4,1413,"Include",183,"2040.jpg"
"KK2015_e1","KK2015_e1_1",1,0,"ValNegative",2,2495,"Include",184,"9592.jpg"
"KK2015_e1","KK2015_e1_1",1,0,"ValNegative",2,2494,"Include",185,"9041.jpg"
"KK2015_e1","KK2015_e1_1",1,1,"ValNegative",3,1903,"Include",186,"3181.jpg"
"KK2015_e1","KK2015_e1_1",1,0,"ValPositive",1,2552,"Include",187,"5621.jpg"
"KK2015_e1","KK2015_e1_1",1,1,"ValNegative",2,2560,"Include",188,"3300.jpg"
"KK2015_e1","KK2015_e1_1",1,1,"ValNeutral",2,1662,"Include",189,"7150.jpg"
"KK2015_e1","KK2015_e1_1",1,1,"ValPositive",3,1846,"Include",190,"4608.jpg"
"KK2015_e1","KK2015_e1_1",1,0,"ValNegative",3,2925,"Include",191,"3061.jpg"
"KK2015_e1","KK2015_e1_1",1,0,"ValNeutral",1,1971,"Include",192,"2440.jpg"
"KK2015_e1","KK2015_e1_1",1,1,"ValNeutral",4,1217,"Include",193,"2410.jpg"
"KK2015_e1","KK2015_e1_1",1,1,"ValNeutral",4,930,"Include",194,"7170.jpg"
"KK2015_e1","KK2015_e1_1",1,1,"ValPositive",3,2098,"Include",195,"1640.jpg"
"KK2015_e1","KK2015_e1_1",1,0,"ValNegative",4,1794,"Include",196,"9340.jpg"
"KK2015_e1","KK2015_e1_1",1,1,"ValPositive",4,2306,"Include",197,"7330.jpg"
"KK2015_e1","KK2015_e1_1",1,0,"ValPositive",3,1635,"Include",198,"5830.jpg"
"KK2015_e1","KK2015_e1_1",1,0,"ValNeutral",2,1831,"Include",199,"7060.jpg"
"KK2015_e1","KK2015_e1_1",1,0,"ValNegative",2,1563,"Include",200,"8480.jpg"
"KK2015_e1","KK2015_e1_1",1,0,"ValPositive",2,2188,"Include",201,"1720.jpg"
"KK2015_e1","KK2015_e1_1",1,0,"ValPositive",2,1555,"Include",202,"8470.jpg"
"KK2015_e1","KK2015_e1_1",1,1,"ValPositive",4,1827,"Include",203,"8600.jpg"
"KK2015_e1","KK2015_e1_1",1,1,"ValNeutral",4,1668,"Include",204,"1313.jpg"
"KK2015_e1","KK2015_e1_1",1,0,"ValNeutral",3,2275,"Include",205,"2351.jpg"
"KK2015_e1","KK2015_e1_1",1,1,"ValPositive",4,1871,"Include",206,"5600.jpg"
"KK2015_e1","KK2015_e1_1",1,0,"ValNeutral",2,1933,"Include",207,"2600.jpg"
"KK2015_e1","KK2015_e1_1",1,0,"ValNegative",4,1763,"Include",208,"9480.jpg"
"KK2015_e1","KK2015_e1_1",1,1,"ValNeutral",4,999,"Include",209,"4274.jpg"
"KK2015_e1","KK2015_e1_1",1,0,"ValNeutral",2,2099,"Include",210,"7175.jpg"
"KK2015_e1","KK2015_e1_1",1,1,"ValNegative",3,2069,"Include",211,"9911.jpg"
"KK2015_e1","KK2015_e1_1",1,1,"ValNegative",4,1506,"Include",212,"6570.jpg"
"KK2015_e1","KK2015_e1_1",1,0,"ValNegative",2,2961,"Include",213,"3550.jpg"
"KK2015_e1","KK2015_e1_1",1,1,"ValNegative",4,1355,"Include",214,"1019.jpg"
"KK2015_e1","KK2015_e1_1",1,0,"ValPositive",3,2243,"Include",215,"5623.jpg"
"KK2015_e1","KK2015_e1_1",1,0,"ValPositive",4,1769,"Include",216,"4220.jpg"
"KK2015_e1","KK2015_e1_1",1,0,"ValNegative",2,1817,"Include",217,"9101.jpg"
"KK2015_e1","KK2015_e1_1",1,0,"ValNeutral",2,1829,"Include",218,"2518.jpg"
"KK2015_e1","KK2015_e1_1",1,0,"ValNegative",2,1920,"Include",219,"9181.jpg"
"KK2015_e1","KK2015_e1_1",1,1,"ValNegative",4,1055,"Include",220,"6940.jpg"
"KK2015_e1","KK2015_e1_1",1,0,"ValPositive",3,2181,"Include",221,"4607.jpg"
"KK2015_e1","KK2015_e1_1",1,0,"ValNegative",2,1941,"Include",222,"9046.jpg"
"KK2015_e1","KK2015_e1_1",1,1,"ValPositive",4,2404,"Include",223,"2389.jpg"
"KK2015_e1","KK2015_e1_1",1,0,"ValNeutral",2,2007,"Include",224,"2890.jpg"
"KK2015_e1","KK2015_e1_1",1,0,"ValNeutral",2,1830,"Include",225,"7184.jpg"
"KK2015_e1","KK2015_e1_1",1,1,"ValNegative",4,1681,"Include",226,"9120.jpg"
"KK2015_e1","KK2015_e1_1",1,1,"ValNeutral",NA,0,"Exclude",227,"2516.jpg"
"KK2015_e1","KK2015_e1_1",1,1,"ValPositive",1,1442,"Include",228,"4150.jpg"
"KK2015_e1","KK2015_e1_1",1,1,"ValPositive",4,997,"Include",229,"1560.jpg"
"KK2015_e1","KK2015_e1_1",1,0,"ValNegative",4,1617,"Include",230,"2750.jpg"
"KK2015_e1","KK2015_e1_1",1,0,"ValPositive",3,1785,"Include",231,"7350.jpg"
"KK2015_e1","KK2015_e1_1",1,1,"ValNeutral",4,1477,"Include",232,"7100.jpg"
"KK2015_e1","KK2015_e1_1",1,1,"ValNegative",2,1899,"Include",233,"3230.jpg"
"KK2015_e1","KK2015_e1_1",1,0,"ValNegative",2,2116,"Include",234,"2682.jpg"
"KK2015_e1","KK2015_e1_1",1,0,"ValNegative",3,2114,"Include",235,"3160.jpg"
"KK2015_e1","KK2015_e1_1",1,1,"ValNegative",3,2273,"Include",236,"9040.jpg"
"KK2015_e1","KK2015_e1_1",1,1,"ValNeutral",3,2284,"Include",237,"5900.jpg"
"KK2015_e1","KK2015_e1_1",1,1,"ValNeutral",2,2717,"Include",238,"5520.jpg"
"KK2015_e1","KK2015_e1_1",1,1,"ValPositive",4,1193,"Include",239,"8021.jpg"
"KK2015_e1","KK2015_e1_1",1,0,"ValPositive",2,2956,"Include",240,"7200.jpg"
"KK2015_e1","KK2015_e1_1",1,1,"ValNegative",4,1647,"Include",241,"9810.jpg"
"KK2015_e1","KK2015_e1_1",1,0,"ValPositive",3,717,"Include",242,"2352.jpg"
"KK2015_e1","KK2015_e1_1",1,0,"ValPositive",2,2238,"Include",243,"1463.jpg"
"KK2015_e1","KK2015_e1_1",1,0,"ValNeutral",2,1865,"Include",244,"2385.jpg"
"KK2015_e1","KK2015_e1_1",1,0,"ValPositive",3,2507,"Include",245,"2091.jpg"
"KK2015_e1","KK2015_e1_1",1,0,"ValPositive",3,1635,"Include",246,"4609.jpg"
"KK2015_e1","KK2015_e1_1",1,1,"ValPositive",4,2249,"Include",247,"1710.jpg"
"KK2015_e1","KK2015_e1_1",1,0,"ValPositive",3,2658,"Include",248,"8500.jpg"
"KK2015_e1","KK2015_e1_1",1,1,"ValPositive",4,1426,"Include",249,"2550.jpg"
"KK2015_e1","KK2015_e1_1",1,0,"ValNeutral",1,2093,"Include",250,"2870.jpg"
"KK2015_e1","KK2015_e1_1",1,1,"ValNegative",4,1932,"Include",251,"9050.jpg"
"KK2015_e1","KK2015_e1_1",1,0,"ValNeutral",2,1663,"Include",252,"7020.jpg"
"KK2015_e1","KK2015_e1_1",1,0,"ValNegative",1,1415,"Include",253,"9560.jpg"
"KK2015_e1","KK2015_e1_1",1,0,"ValNegative",2,2355,"Include",254,"2120.jpg"
"KK2015_e1","KK2015_e1_1",1,0,"ValPositive",2,2536,"Include",255,"4598.jpg"
"KK2015_e1","KK2015_e1_1",1,0,"ValNegative",2,1368,"Include",256,"6000.jpg"
"KK2015_e1","KK2015_e1_1",1,1,"ValNeutral",4,1308,"Include",257,"2206.jpg"
"KK2015_e1","KK2015_e1_1",1,1,"ValPositive",4,2457,"Include",258,"5260.jpg"
"KK2015_e1","KK2015_e1_1",1,0,"ValNeutral",2,2064,"Include",259,"7096.jpg"
"KK2015_e1","KK2015_e1_1",1,0,"ValPositive",1,1803,"Include",260,"7450.jpg"
"KK2015_e1","KK2015_e1_1",1,0,"ValPositive",2,2008,"Include",261,"7502.jpg"
"KK2015_e1","KK2015_e1_1",1,0,"ValPositive",4,1258,"Include",262,"5660.jpg"
"KK2015_e1","KK2015_e1_1",1,0,"ValNeutral",2,0,"Include",263,"5020.jpg"
"KK2015_e1","KK2015_e1_1",1,1,"ValNegative",1,2270,"Include",264,"9230.jpg"
"KK2015_e1","KK2015_e1_1",1,1,"ValPositive",3,2311,"Include",265,"1811.jpg"
"KK2015_e1","KK2015_e1_1",1,1,"ValNegative",3,1906,"Include",266,"2691.jpg"
"KK2015_e1","KK2015_e1_1",1,0,"ValPositive",3,1873,"Include",267,"8460.jpg"
"KK2015_e1","KK2015_e1_1",1,1,"ValNeutral",4,1558,"Include",268,"5410.jpg"
"KK2015_e1","KK2015_e1_1",1,0,"ValNeutral",3,1289,"Include",269,"2215.jpg"
"KK2015_e1","KK2015_e1_1",1,1,"ValNegative",NA,0,"Exclude",270,"2100.jpg"
"KK2015_e1","KK2015_e1_1",1,1,"ValNegative",4,2574,"Include",271,"9008.jpg"
"KK2015_e1","KK2015_e1_1",1,1,"ValNegative",2,2029,"Include",272,"6312.jpg"
"KK2015_e1","KK2015_e1_1",1,1,"ValNegative",2,1918,"Include",273,"2710.jpg"
"KK2015_e1","KK2015_e1_1",1,0,"ValPositive",3,2433,"Include",274,"8490.jpg"
"KK2015_e1","KK2015_e1_1",1,1,"ValNeutral",NA,0,"Exclude",275,"7002.jpg"
"KK2015_e1","KK2015_e1_1",1,0,"ValNegative",3,2244,"Include",276,"9520.jpg"
"KK2015_e1","KK2015_e1_1",1,1,"ValNeutral",4,1051,"Include",277,"7025.jpg"
"KK2015_e1","KK2015_e1_1",1,0,"ValNegative",3,1978,"Include",278,"9621.jpg"
"KK2015_e1","KK2015_e1_1",1,1,"ValNeutral",3,2099,"Include",279,"7006.jpg"
"KK2015_e1","KK2015_e1_1",1,0,"ValPositive",2,2186,"Include",280,"2216.jpg"
"KK2015_e1","KK2015_e1_1",1,0,"ValNeutral",4,2023,"Include",281,"5510.jpg"
"KK2015_e1","KK2015_e1_1",1,0,"ValNegative",2,2162,"Include",282,"9490.jpg"
"KK2015_e1","KK2015_e1_1",1,0,"ValNeutral",2,2554,"Include",283,"7040.jpg"
"KK2015_e1","KK2015_e1_1",1,0,"ValNegative",3,2520,"Include",284,"9010.jpg"
"KK2015_e1","KK2015_e1_1",1,0,"ValPositive",4,2442,"Include",285,"2311.jpg"
"KK2015_e1","KK2015_e1_1",1,0,"ValNeutral",4,1752,"Include",286,"2020.jpg"
"KK2015_e1","KK2015_e1_1",1,1,"ValPositive",4,1350,"Include",287,"8540.jpg"
"KK2015_e1","KK2015_e1_1",1,1,"ValNeutral",2,1793,"Include",288,"5800.jpg"
"KK2015_e1","KK2015_e1_1",1,0,"ValNegative",3,1439,"Include",289,"6840.jpg"
"KK2015_e1","KK2015_e1_1",1,0,"ValPositive",2,2389,"Include",290,"8340.jpg"
"KK2015_e1","KK2015_e1_1",1,1,"ValPositive",3,1502,"Include",291,"4599.jpg"
"KK2015_e1","KK2015_e1_1",1,0,"ValNeutral",2,1643,"Include",292,"7160.jpg"
"KK2015_e1","KK2015_e1_1",1,1,"ValNeutral",3,2129,"Include",293,"2280.jpg"
"KK2015_e1","KK2015_e1_1",1,0,"ValNeutral",2,2225,"Include",294,"1616.jpg"
"KK2015_e1","KK2015_e1_1",1,1,"ValNeutral",4,1768,"Include",295,"7035.jpg"
"KK2015_e1","KK2015_e1_1",1,1,"ValNeutral",NA,0,"Exclude",296,"5390.jpg"
"KK2015_e1","KK2015_e1_1",1,1,"ValNeutral",4,1445,"Include",297,"1670.jpg"
"KK2015_e1","KK2015_e1_1",1,1,"ValNegative",4,1492,"Include",298,"1274.jpg"
"KK2015_e1","KK2015_e1_1",1,1,"ValPositive",3,1808,"Include",299,"4610.jpg"
"KK2015_e1","KK2015_e1_2",1,0,"ValNegative",1,1442,"Include",1,"3168.jpg"
"KK2015_e1","KK2015_e1_2",1,1,"ValPositive",4,1484,"Include",2,"1650.jpg"
"KK2015_e1","KK2015_e1_2",1,1,"ValNegative",3,1537,"Include",3,"9920.jpg"
"KK2015_e1","KK2015_e1_2",1,1,"ValNegative",4,1375,"Include",4,"2276.jpg"
"KK2015_e1","KK2015_e1_2",1,1,"ValNeutral",2,1672,"Include",5,"7110.jpg"
"KK2015_e1","KK2015_e1_2",1,1,"ValNegative",4,1435,"Include",6,"9582.jpg"
"KK2015_e1","KK2015_e1_2",1,1,"ValPositive",4,1460,"Include",7,"4520.jpg"
"KK2015_e1","KK2015_e1_2",1,0,"ValNegative",2,1793,"Include",8,"9611.jpg"
"KK2015_e1","KK2015_e1_2",1,1,"ValNegative",4,1441,"Include",9,"9140.jpg"
"KK2015_e1","KK2015_e1_2",1,1,"ValNegative",4,1872,"Include",10,"2053.jpg"
"KK2015_e1","KK2015_e1_2",1,1,"ValNegative",4,1190,"Include",11,"9800.jpg"
"KK2015_e1","KK2015_e1_2",1,0,"ValNeutral",2,1557,"Include",12,"2570.jpg"
"KK2015_e1","KK2015_e1_2",1,0,"ValNeutral",3,1786,"Include",13,"2487.jpg"
"KK2015_e1","KK2015_e1_2",1,1,"ValPositive",2,2212,"Include",14,"7230.jpg"
"KK2015_e1","KK2015_e1_2",1,1,"ValNeutral",4,1269,"Include",15,"4000.jpg"
"KK2015_e1","KK2015_e1_2",1,1,"ValNeutral",2,1924,"Include",16,"5130.jpg"
"KK2015_e1","KK2015_e1_2",1,0,"ValPositive",2,1917,"Include",17,"2209.jpg"
"KK2015_e1","KK2015_e1_2",1,1,"ValNegative",2,1803,"Include",18,"2753.jpg"
"KK2015_e1","KK2015_e1_2",1,1,"ValPositive",4,1434,"Include",19,"8280.jpg"
"KK2015_e1","KK2015_e1_2",1,1,"ValNeutral",4,1521,"Include",20,"2495.jpg"
"KK2015_e1","KK2015_e1_2",1,1,"ValNeutral",4,2039,"Include",21,"2575.jpg"
"KK2015_e1","KK2015_e1_2",1,0,"ValPositive",2,1939,"Include",22,"2345.jpg"
"KK2015_e1","KK2015_e1_2",1,1,"ValNegative",2,2259,"Include",23,"2141.jpg"
"KK2015_e1","KK2015_e1_2",1,0,"ValNeutral",4,1221,"Include",24,"2214.jpg"
"KK2015_e1","KK2015_e1_2",1,0,"ValNeutral",2,2082,"Include",25,"3210.jpg"
"KK2015_e1","KK2015_e1_2",1,1,"ValNeutral",2,2136,"Include",26,"2271.jpg"
"KK2015_e1","KK2015_e1_2",1,1,"ValNeutral",4,1166,"Include",27,"2200.jpg"
"KK2015_e1","KK2015_e1_2",1,0,"ValNegative",1,1634,"Include",28,"9042.jpg"
"KK2015_e1","KK2015_e1_2",1,1,"ValNegative",4,1068,"Include",29,"7560.jpg"
"KK2015_e1","KK2015_e1_2",1,1,"ValNegative",4,1494,"Include",30,"3220.jpg"
"KK2015_e1","KK2015_e1_2",1,1,"ValNeutral",2,2303,"Include",31,"4279.jpg"
"KK2015_e1","KK2015_e1_2",1,1,"ValPositive",4,1155,"Include",32,"4653.jpg"
"KK2015_e1","KK2015_e1_2",1,1,"ValNegative",4,1867,"Include",33,"6300.jpg"
"KK2015_e1","KK2015_e1_2",1,1,"ValNeutral",4,1525,"Include",34,"2485.jpg"
"KK2015_e1","KK2015_e1_2",1,0,"ValNegative",2,2426,"Include",35,"9921.jpg"
"KK2015_e1","KK2015_e1_2",1,0,"ValNegative",3,2249,"Include",36,"2130.jpg"
"KK2015_e1","KK2015_e1_2",1,0,"ValPositive",1,2015,"Include",37,"5470.jpg"
"KK2015_e1","KK2015_e1_2",1,1,"ValNeutral",4,1390,"Include",38,"2515.jpg"
"KK2015_e1","KK2015_e1_2",1,1,"ValPositive",4,1591,"Include",39,"2208.jpg"
"KK2015_e1","KK2015_e1_2",1,0,"ValPositive",2,2459,"Include",40,"2160.jpg"
"KK2015_e1","KK2015_e1_2",1,0,"ValNeutral",1,1484,"Include",41,"7130.jpg"
"KK2015_e1","KK2015_e1_2",1,1,"ValPositive",4,1153,"Include",42,"5480.jpg"
"KK2015_e1","KK2015_e1_2",1,0,"ValPositive",2,2087,"Include",43,"4660.jpg"
"KK2015_e1","KK2015_e1_2",1,1,"ValNegative",4,1041,"Include",44,"1321.jpg"
"KK2015_e1","KK2015_e1_2",1,1,"ValPositive",4,1573,"Include",45,"4689.jpg"
"KK2015_e1","KK2015_e1_2",1,0,"ValNegative",1,1452,"Include",46,"1200.jpg"
"KK2015_e1","KK2015_e1_2",1,0,"ValNeutral",2,2257,"Include",47,"5500.jpg"
"KK2015_e1","KK2015_e1_2",1,0,"ValNegative",2,2178,"Include",48,"9300.jpg"
"KK2015_e1","KK2015_e1_2",1,1,"ValNeutral",4,1365,"Include",49,"4571.jpg"
"KK2015_e1","KK2015_e1_2",1,0,"ValPositive",2,1941,"Include",50,"4533.jpg"
"KK2015_e1","KK2015_e1_2",1,0,"ValNegative",1,1836,"Include",51,"3063.jpg"
"KK2015_e1","KK2015_e1_2",1,0,"ValNeutral",1,2021,"Include",52,"5535.jpg"
"KK2015_e1","KK2015_e1_2",1,1,"ValNeutral",3,2458,"Include",53,"7009.jpg"
"KK2015_e1","KK2015_e1_2",1,1,"ValNegative",2,2376,"Include",54,"9405.jpg"
"KK2015_e1","KK2015_e1_2",1,1,"ValPositive",2,2387,"Include",55,"4601.jpg"
"KK2015_e1","KK2015_e1_2",1,0,"ValNeutral",2,2053,"Include",56,"2880.jpg"
"KK2015_e1","KK2015_e1_2",1,0,"ValNegative",1,1948,"Include",57,"6838.jpg"
"KK2015_e1","KK2015_e1_2",1,0,"ValNegative",4,1948,"Include",58,"2661.jpg"
"KK2015_e1","KK2015_e1_2",1,0,"ValPositive",1,1115,"Include",59,"8380.jpg"
"KK2015_e1","KK2015_e1_2",1,1,"ValNegative",1,2131,"Include",60,"2900.jpg"
"KK2015_e1","KK2015_e1_2",1,1,"ValNeutral",4,1330,"Include",61,"7004.jpg"
"KK2015_e1","KK2015_e1_2",1,0,"ValNegative",1,1272,"Include",62,"6370.jpg"
"KK2015_e1","KK2015_e1_2",1,1,"ValPositive",4,1491,"Include",63,"5628.jpg"
"KK2015_e1","KK2015_e1_2",1,1,"ValNegative",4,1849,"Include",64,"6410.jpg"
"KK2015_e1","KK2015_e1_2",1,1,"ValNeutral",2,1851,"Include",65,"2720.jpg"
"KK2015_e1","KK2015_e1_2",1,0,"ValNegative",1,2143,"Include",66,"9253.jpg"
"KK2015_e1","KK2015_e1_2",1,1,"ValPositive",4,1329,"Include",67,"1999.jpg"
"KK2015_e1","KK2015_e1_2",1,1,"ValNeutral",4,997,"Include",68,"2210.jpg"
"KK2015_e1","KK2015_e1_2",1,0,"ValPositive",2,2102,"Include",69,"5626.jpg"
"KK2015_e1","KK2015_e1_2",1,0,"ValNeutral",2,1788,"Include",70,"2480.jpg"
"KK2015_e1","KK2015_e1_2",1,1,"ValNegative",4,1033,"Include",71,"1300.jpg"
"KK2015_e1","KK2015_e1_2",1,1,"ValNeutral",2,2130,"Include",72,"5593.jpg"
"KK2015_e1","KK2015_e1_2",1,0,"ValPositive",3,2167,"Include",73,"8461.jpg"
"KK2015_e1","KK2015_e1_2",1,0,"ValNegative",1,2083,"Include",74,"1390.jpg"
"KK2015_e1","KK2015_e1_2",1,1,"ValNeutral",4,1135,"Include",75,"5455.jpg"
"KK2015_e1","KK2015_e1_2",1,1,"ValPositive",4,1364,"Include",76,"7402.jpg"
"KK2015_e1","KK2015_e1_2",1,1,"ValNeutral",4,2045,"Include",77,"1945.jpg"
"KK2015_e1","KK2015_e1_2",1,0,"ValNeutral",4,1657,"Include",78,"2580.jpg"
"KK2015_e1","KK2015_e1_2",1,0,"ValNeutral",1,2204,"Include",79,"2190.jpg"
"KK2015_e1","KK2015_e1_2",1,0,"ValPositive",2,1854,"Include",80,"5950.jpg"
"KK2015_e1","KK2015_e1_2",1,1,"ValNeutral",4,1721,"Include",81,"7000.jpg"
"KK2015_e1","KK2015_e1_2",1,1,"ValNegative",4,1278,"Include",82,"9910.jpg"
"KK2015_e1","KK2015_e1_2",1,0,"ValPositive",1,1555,"Include",83,"7282.jpg"
"KK2015_e1","KK2015_e1_2",1,0,"ValPositive",2,1977,"Include",84,"8350.jpg"
"KK2015_e1","KK2015_e1_2",1,0,"ValNegative",1,2060,"Include",85,"9400.jpg"
"KK2015_e1","KK2015_e1_2",1,0,"ValPositive",1,2427,"Include",86,"4250.jpg"
"KK2015_e1","KK2015_e1_2",1,1,"ValPositive",2,2205,"Include",87,"8370.jpg"
"KK2015_e1","KK2015_e1_2",1,1,"ValNegative",2,2294,"Include",88,"1302.jpg"
"KK2015_e1","KK2015_e1_2",1,1,"ValNegative",2,2570,"Include",89,"6830.jpg"
"KK2015_e1","KK2015_e1_2",1,0,"ValPositive",1,1581,"Include",90,"8300.jpg"
"KK2015_e1","KK2015_e1_2",1,1,"ValPositive",4,1158,"Include",91,"4640.jpg"
"KK2015_e1","KK2015_e1_2",1,1,"ValNeutral",4,2192,"Include",92,"5530.jpg"
"KK2015_e1","KK2015_e1_2",1,1,"ValNeutral",3,1877,"Include",93,"4510.jpg"
"KK2015_e1","KK2015_e1_2",1,0,"ValNegative",1,1821,"Include",94,"6821.jpg"
"KK2015_e1","KK2015_e1_2",1,0,"ValPositive",1,2344,"Include",95,"4641.jpg"
"KK2015_e1","KK2015_e1_2",1,1,"ValNeutral",4,1348,"Include",96,"5875.jpg"
"KK2015_e1","KK2015_e1_2",1,0,"ValNegative",1,1653,"Include",97,"6250.jpg"
"KK2015_e1","KK2015_e1_2",1,0,"ValPositive",4,1951,"Include",98,"5629.jpg"
"KK2015_e1","KK2015_e1_2",1,0,"ValNegative",1,1084,"Include",99,"9000.jpg"
"KK2015_e1","KK2015_e1_2",1,1,"ValNeutral",4,1296,"Include",100,"5740.jpg"
"KK2015_e1","KK2015_e1_2",1,1,"ValNegative",4,0,"Include",101,"6571.jpg"
"KK2015_e1","KK2015_e1_2",1,1,"ValNeutral",3,1979,"Include",102,"2381.jpg"
"KK2015_e1","KK2015_e1_2",1,0,"ValNegative",2,2140,"Include",103,"2205.jpg"
"KK2015_e1","KK2015_e1_2",1,1,"ValNegative",1,2426,"Include",104,"3301.jpg"
"KK2015_e1","KK2015_e1_2",1,0,"ValPositive",2,2517,"Include",105,"2303.jpg"
"KK2015_e1","KK2015_e1_2",1,1,"ValPositive",4,2325,"Include",106,"5460.jpg"
"KK2015_e1","KK2015_e1_2",1,0,"ValNeutral",2,2487,"Include",107,"4605.jpg"
"KK2015_e1","KK2015_e1_2",1,1,"ValPositive",1,2477,"Include",108,"5910.jpg"
"KK2015_e1","KK2015_e1_2",1,0,"ValNeutral",1,1676,"Include",109,"7080.jpg"
"KK2015_e1","KK2015_e1_2",1,1,"ValPositive",4,1270,"Include",110,"4617.jpg"
"KK2015_e1","KK2015_e1_2",1,0,"ValNegative",1,1804,"Include",111,"2751.jpg"
"KK2015_e1","KK2015_e1_2",1,1,"ValPositive",4,1459,"Include",112,"2050.jpg"
"KK2015_e1","KK2015_e1_2",1,1,"ValPositive",4,2025,"Include",113,"8400.jpg"
"KK2015_e1","KK2015_e1_2",1,0,"ValPositive",4,2665,"Include",114,"4631.jpg"
"KK2015_e1","KK2015_e1_2",1,1,"ValPositive",4,1694,"Include",115,"7289.jpg"
"KK2015_e1","KK2015_e1_2",1,1,"ValPositive",2,2026,"Include",116,"7481.jpg"
"KK2015_e1","KK2015_e1_2",1,0,"ValNegative",3,2138,"Include",117,"2800.jpg"
"KK2015_e1","KK2015_e1_2",1,1,"ValNeutral",2,1832,"Include",118,"7030.jpg"
"KK2015_e1","KK2015_e1_2",1,0,"ValNegative",2,2652,"Include",119,"1310.jpg"
"KK2015_e1","KK2015_e1_2",1,1,"ValNeutral",4,2454,"Include",120,"2840.jpg"
"KK2015_e1","KK2015_e1_2",1,0,"ValNegative",1,2005,"Include",121,"4621.jpg"
"KK2015_e1","KK2015_e1_2",1,0,"ValNeutral",2,2030,"Include",122,"5731.jpg"
"KK2015_e1","KK2015_e1_2",1,1,"ValNegative",4,1403,"Include",123,"2692.jpg"
"KK2015_e1","KK2015_e1_2",1,0,"ValNegative",4,2252,"Include",124,"3350.jpg"
"KK2015_e1","KK2015_e1_2",1,1,"ValNeutral",4,2214,"Include",125,"7140.jpg"
"KK2015_e1","KK2015_e1_2",1,0,"ValNeutral",1,1284,"Include",126,"7050.jpg"
"KK2015_e1","KK2015_e1_2",1,0,"ValNegative",2,1528,"Include",127,"3261.jpg"
"KK2015_e1","KK2015_e1_2",1,0,"ValNegative",1,2202,"Include",128,"5972.jpg"
"KK2015_e1","KK2015_e1_2",1,0,"ValNegative",1,1188,"Include",129,"1030.jpg"
"KK2015_e1","KK2015_e1_2",1,1,"ValPositive",4,1795,"Include",130,"8496.jpg"
"KK2015_e1","KK2015_e1_2",1,1,"ValNegative",2,2432,"Include",131,"9270.jpg"
"KK2015_e1","KK2015_e1_2",1,0,"ValNegative",1,2145,"Include",132,"9160.jpg"
"KK2015_e1","KK2015_e1_2",1,0,"ValNeutral",1,1477,"Include",133,"7010.jpg"
"KK2015_e1","KK2015_e1_2",1,0,"ValPositive",1,1450,"Include",134,"7501.jpg"
"KK2015_e1","KK2015_e1_2",1,1,"ValPositive",1,1639,"Include",135,"7270.jpg"
"KK2015_e1","KK2015_e1_2",1,1,"ValNegative",4,985,"Include",136,"7360.jpg"
"KK2015_e1","KK2015_e1_2",1,0,"ValPositive",2,2145,"Include",137,"7570.jpg"
"KK2015_e1","KK2015_e1_2",1,0,"ValNeutral",1,1197,"Include",138,"2514.jpg"
"KK2015_e1","KK2015_e1_2",1,0,"ValPositive",1,1068,"Include",139,"7460.jpg"
"KK2015_e1","KK2015_e1_2",1,0,"ValNeutral",4,951,"Include",140,"7183.jpg"
"KK2015_e1","KK2015_e1_2",1,0,"ValPositive",1,1555,"Include",141,"1121.jpg"
"KK2015_e1","KK2015_e1_2",1,1,"ValNegative",4,1791,"Include",142,"9006.jpg"
"KK2015_e1","KK2015_e1_2",1,1,"ValPositive",2,1934,"Include",143,"8030.jpg"
"KK2015_e1","KK2015_e1_2",1,0,"ValPositive",2,2413,"Include",144,"2058.jpg"
"KK2015_e1","KK2015_e1_2",1,0,"ValNegative",2,2309,"Include",145,"8230.jpg"
"KK2015_e1","KK2015_e1_2",1,1,"ValNeutral",3,2472,"Include",146,"7090.jpg"
"KK2015_e1","KK2015_e1_2",1,0,"ValPositive",1,0,"Include",147,"1440.jpg"
"KK2015_e1","KK2015_e1_2",1,1,"ValNegative",1,1765,"Include",148,"3280.jpg"
"KK2015_e1","KK2015_e1_2",1,0,"ValPositive",2,1822,"Include",149,"5700.jpg"
"KK2015_e1","KK2015_e1_2",1,0,"ValNeutral",1,2058,"Include",150,"4534.jpg"
"KK2015_e1","KK2015_e1_2",1,0,"ValNeutral",1,1447,"Include",151,"7180.jpg"
"KK2015_e1","KK2015_e1_2",1,0,"ValNeutral",2,1293,"Include",152,"2620.jpg"
"KK2015_e1","KK2015_e1_2",1,0,"ValNeutral",3,1767,"Include",153,"2221.jpg"
"KK2015_e1","KK2015_e1_2",1,0,"ValNeutral",3,2130,"Include",154,"2010.jpg"
"KK2015_e1","KK2015_e1_2",1,0,"ValPositive",2,2077,"Include",155,"7220.jpg"
"KK2015_e1","KK2015_e1_2",1,1,"ValPositive",3,2480,"Include",156,"2616.jpg"
"KK2015_e1","KK2015_e1_2",1,0,"ValPositive",4,1703,"Include",157,"4606.jpg"
"KK2015_e1","KK2015_e1_2",1,0,"ValNeutral",2,2217,"Include",158,"5120.jpg"
"KK2015_e1","KK2015_e1_2",1,0,"ValNegative",1,2063,"Include",159,"6834.jpg"
"KK2015_e1","KK2015_e1_2",1,1,"ValNeutral",4,1725,"Include",160,"7182.jpg"
"KK2015_e1","KK2015_e1_2",1,0,"ValNeutral",1,1370,"Include",161,"2383.jpg"
"KK2015_e1","KK2015_e1_2",1,0,"ValPositive",2,1645,"Include",162,"5622.jpg"
"KK2015_e1","KK2015_e1_2",1,0,"ValNeutral",4,1710,"Include",163,"4500.jpg"
"KK2015_e1","KK2015_e1_2",1,0,"ValPositive",1,2084,"Include",164,"7260.jpg"
"KK2015_e1","KK2015_e1_2",1,0,"ValNeutral",2,2047,"Include",165,"7031.jpg"
"KK2015_e1","KK2015_e1_2",1,0,"ValNeutral",1,1635,"Include",166,"2372.jpg"
"KK2015_e1","KK2015_e1_2",1,1,"ValNegative",1,2029,"Include",167,"3180.jpg"
"KK2015_e1","KK2015_e1_2",1,0,"ValPositive",1,1876,"Include",168,"8420.jpg"
"KK2015_e1","KK2015_e1_2",1,1,"ValNeutral",4,2922,"Include",169,"5395.jpg"
"KK2015_e1","KK2015_e1_2",1,1,"ValPositive",4,1630,"Include",170,"1590.jpg"
"KK2015_e1","KK2015_e1_2",1,1,"ValNegative",3,2417,"Include",171,"9250.jpg"
"KK2015_e1","KK2015_e1_2",1,1,"ValPositive",4,2555,"Include",172,"1340.jpg"
"KK2015_e1","KK2015_e1_2",1,1,"ValNeutral",4,1190,"Include",173,"7034.jpg"
"KK2015_e1","KK2015_e1_2",1,0,"ValPositive",1,2305,"Include",174,"8260.jpg"
"KK2015_e1","KK2015_e1_2",1,1,"ValPositive",4,1080,"Include",175,"2391.jpg"
"KK2015_e1","KK2015_e1_2",1,0,"ValNegative",4,1377,"Include",176,"1301.jpg"
"KK2015_e1","KK2015_e1_2",1,1,"ValNegative",4,2080,"Include",177,"3022.jpg"
"KK2015_e1","KK2015_e1_2",1,0,"ValNeutral",1,1281,"Include",178,"7095.jpg"
"KK2015_e1","KK2015_e1_2",1,0,"ValNeutral",2,2776,"Include",179,"2830.jpg"
"KK2015_e1","KK2015_e1_2",1,0,"ValNeutral",3,2239,"Include",180,"2850.jpg"
"KK2015_e1","KK2015_e1_2",1,0,"ValNegative",2,1983,"Include",181,"6836.jpg"
"KK2015_e1","KK2015_e1_2",1,0,"ValPositive",1,1272,"Include",182,"7400.jpg"
"KK2015_e1","KK2015_e1_2",1,0,"ValPositive",1,1125,"Include",183,"2040.jpg"
"KK2015_e1","KK2015_e1_2",1,1,"ValNegative",1,1338,"Include",184,"9592.jpg"
"KK2015_e1","KK2015_e1_2",1,1,"ValNegative",4,1374,"Include",185,"9041.jpg"
"KK2015_e1","KK2015_e1_2",1,0,"ValNegative",2,2178,"Include",186,"3181.jpg"
"KK2015_e1","KK2015_e1_2",1,1,"ValPositive",2,2325,"Include",187,"5621.jpg"
"KK2015_e1","KK2015_e1_2",1,0,"ValNegative",1,2114,"Include",188,"3300.jpg"
"KK2015_e1","KK2015_e1_2",1,0,"ValNeutral",1,1771,"Include",189,"7150.jpg"
"KK2015_e1","KK2015_e1_2",1,0,"ValPositive",1,1535,"Include",190,"4608.jpg"
"KK2015_e1","KK2015_e1_2",1,1,"ValNegative",4,2150,"Include",191,"3061.jpg"
"KK2015_e1","KK2015_e1_2",1,1,"ValNeutral",3,2526,"Include",192,"2440.jpg"
"KK2015_e1","KK2015_e1_2",1,0,"ValNeutral",1,1597,"Include",193,"2410.jpg"
"KK2015_e1","KK2015_e1_2",1,0,"ValNeutral",1,1142,"Include",194,"7170.jpg"
"KK2015_e1","KK2015_e1_2",1,0,"ValPositive",1,1005,"Include",195,"1640.jpg"
"KK2015_e1","KK2015_e1_2",1,1,"ValNegative",4,1821,"Include",196,"9340.jpg"
"KK2015_e1","KK2015_e1_2",1,0,"ValPositive",3,1975,"Include",197,"7330.jpg"
"KK2015_e1","KK2015_e1_2",1,1,"ValPositive",4,1528,"Include",198,"5830.jpg"
"KK2015_e1","KK2015_e1_2",1,1,"ValNeutral",4,1748,"Include",199,"7060.jpg"
"KK2015_e1","KK2015_e1_2",1,1,"ValNegative",1,2787,"Include",200,"8480.jpg"
"KK2015_e1","KK2015_e1_2",1,1,"ValPositive",3,1968,"Include",201,"1720.jpg"
"KK2015_e1","KK2015_e1_2",1,1,"ValPositive",4,1641,"Include",202,"8470.jpg"
"KK2015_e1","KK2015_e1_2",1,0,"ValPositive",2,0,"Include",203,"8600.jpg"
"KK2015_e1","KK2015_e1_2",1,0,"ValNeutral",1,2050,"Include",204,"1313.jpg"
"KK2015_e1","KK2015_e1_2",1,1,"ValNeutral",1,2213,"Include",205,"2351.jpg"
"KK2015_e1","KK2015_e1_2",1,0,"ValPositive",3,2878,"Include",206,"5600.jpg"
"KK2015_e1","KK2015_e1_2",1,1,"ValNeutral",4,1179,"Include",207,"2600.jpg"
"KK2015_e1","KK2015_e1_2",1,1,"ValNegative",4,2241,"Include",208,"9480.jpg"
"KK2015_e1","KK2015_e1_2",1,0,"ValNeutral",1,1287,"Include",209,"4274.jpg"
"KK2015_e1","KK2015_e1_2",1,1,"ValNeutral",4,1119,"Include",210,"7175.jpg"
"KK2015_e1","KK2015_e1_2",1,0,"ValNegative",1,2215,"Include",211,"9911.jpg"
"KK2015_e1","KK2015_e1_2",1,0,"ValNegative",1,1598,"Include",212,"6570.jpg"
"KK2015_e1","KK2015_e1_2",1,1,"ValNegative",3,2399,"Include",213,"3550.jpg"
"KK2015_e1","KK2015_e1_2",1,0,"ValNegative",1,1298,"Include",214,"1019.jpg"
"KK2015_e1","KK2015_e1_2",1,1,"ValPositive",4,1467,"Include",215,"5623.jpg"
"KK2015_e1","KK2015_e1_2",1,1,"ValPositive",4,2241,"Include",216,"4220.jpg"
"KK2015_e1","KK2015_e1_2",1,1,"ValNegative",4,1066,"Include",217,"9101.jpg"
"KK2015_e1","KK2015_e1_2",1,1,"ValNeutral",2,2928,"Include",218,"2518.jpg"
"KK2015_e1","KK2015_e1_2",1,1,"ValNegative",2,2385,"Include",219,"9181.jpg"
"KK2015_e1","KK2015_e1_2",1,0,"ValNegative",1,1710,"Include",220,"6940.jpg"
"KK2015_e1","KK2015_e1_2",1,1,"ValPositive",2,1970,"Include",221,"4607.jpg"
"KK2015_e1","KK2015_e1_2",1,1,"ValNegative",4,1445,"Include",222,"9046.jpg"
"KK2015_e1","KK2015_e1_2",1,0,"ValPositive",2,2150,"Include",223,"2389.jpg"
"KK2015_e1","KK2015_e1_2",1,1,"ValNeutral",4,1163,"Include",224,"2890.jpg"
"KK2015_e1","KK2015_e1_2",1,1,"ValNeutral",4,1172,"Include",225,"7184.jpg"
"KK2015_e1","KK2015_e1_2",1,0,"ValNegative",1,1796,"Include",226,"9120.jpg"
"KK2015_e1","KK2015_e1_2",1,0,"ValNeutral",3,1532,"Include",227,"2516.jpg"
"KK2015_e1","KK2015_e1_2",1,0,"ValPositive",2,2116,"Include",228,"4150.jpg"
"KK2015_e1","KK2015_e1_2",1,0,"ValPositive",1,1273,"Include",229,"1560.jpg"
"KK2015_e1","KK2015_e1_2",1,1,"ValNegative",4,1541,"Include",230,"2750.jpg"
"KK2015_e1","KK2015_e1_2",1,1,"ValPositive",4,1120,"Include",231,"7350.jpg"
"KK2015_e1","KK2015_e1_2",1,0,"ValNeutral",4,1597,"Include",232,"7100.jpg"
"KK2015_e1","KK2015_e1_2",1,0,"ValNegative",2,1747,"Include",233,"3230.jpg"
"KK2015_e1","KK2015_e1_2",1,1,"ValNegative",4,1223,"Include",234,"2682.jpg"
"KK2015_e1","KK2015_e1_2",1,1,"ValNegative",1,2037,"Include",235,"3160.jpg"
"KK2015_e1","KK2015_e1_2",1,0,"ValNegative",2,2021,"Include",236,"9040.jpg"
"KK2015_e1","KK2015_e1_2",1,0,"ValNeutral",2,1819,"Include",237,"5900.jpg"
"KK2015_e1","KK2015_e1_2",1,0,"ValNeutral",2,2023,"Include",238,"5520.jpg"
"KK2015_e1","KK2015_e1_2",1,0,"ValPositive",1,2095,"Include",239,"8021.jpg"
"KK2015_e1","KK2015_e1_2",1,1,"ValPositive",2,1759,"Include",240,"7200.jpg"
"KK2015_e1","KK2015_e1_2",1,0,"ValNegative",1,1330,"Include",241,"9810.jpg"
"KK2015_e1","KK2015_e1_2",1,1,"ValPositive",4,1640,"Include",242,"2352.jpg"
"KK2015_e1","KK2015_e1_2",1,1,"ValPositive",4,799,"Include",243,"1463.jpg"
"KK2015_e1","KK2015_e1_2",1,1,"ValNeutral",3,1733,"Include",244,"2385.jpg"
"KK2015_e1","KK2015_e1_2",1,1,"ValPositive",4,1325,"Include",245,"2091.jpg"
"KK2015_e1","KK2015_e1_2",1,1,"ValPositive",4,1989,"Include",246,"4609.jpg"
"KK2015_e1","KK2015_e1_2",1,0,"ValPositive",1,2263,"Include",247,"1710.jpg"
"KK2015_e1","KK2015_e1_2",1,1,"ValPositive",4,1430,"Include",248,"8500.jpg"
"KK2015_e1","KK2015_e1_2",1,0,"ValPositive",3,2068,"Include",249,"2550.jpg"
"KK2015_e1","KK2015_e1_2",1,1,"ValNeutral",4,2717,"Include",250,"2870.jpg"
"KK2015_e1","KK2015_e1_2",1,0,"ValNegative",3,0,"Include",251,"9050.jpg"
"KK2015_e1","KK2015_e1_2",1,1,"ValNeutral",4,1008,"Include",252,"7020.jpg"
"KK2015_e1","KK2015_e1_2",1,1,"ValNegative",4,993,"Include",253,"9560.jpg"
"KK2015_e1","KK2015_e1_2",1,1,"ValNegative",4,1586,"Include",254,"2120.jpg"
"KK2015_e1","KK2015_e1_2",1,1,"ValPositive",2,2472,"Include",255,"4598.jpg"
"KK2015_e1","KK2015_e1_2",1,1,"ValNegative",4,1510,"Include",256,"6000.jpg"
"KK2015_e1","KK2015_e1_2",1,0,"ValNeutral",1,2163,"Include",257,"2206.jpg"
"KK2015_e1","KK2015_e1_2",1,0,"ValPositive",2,0,"Include",258,"5260.jpg"
"KK2015_e1","KK2015_e1_2",1,1,"ValNeutral",4,1586,"Include",259,"7096.jpg"
"KK2015_e1","KK2015_e1_2",1,1,"ValPositive",4,1071,"Include",260,"7450.jpg"
"KK2015_e1","KK2015_e1_2",1,1,"ValPositive",4,1038,"Include",261,"7502.jpg"
"KK2015_e1","KK2015_e1_2",1,1,"ValPositive",2,2617,"Include",262,"5660.jpg"
"KK2015_e1","KK2015_e1_2",1,1,"ValNeutral",4,1306,"Include",263,"5020.jpg"
"KK2015_e1","KK2015_e1_2",1,0,"ValNegative",2,2798,"Include",264,"9230.jpg"
"KK2015_e1","KK2015_e1_2",1,0,"ValPositive",2,0,"Include",265,"1811.jpg"
"KK2015_e1","KK2015_e1_2",1,0,"ValNegative",1,1563,"Include",266,"2691.jpg"
"KK2015_e1","KK2015_e1_2",1,1,"ValPositive",4,980,"Include",267,"8460.jpg"
"KK2015_e1","KK2015_e1_2",1,0,"ValNeutral",1,1998,"Include",268,"5410.jpg"
"KK2015_e1","KK2015_e1_2",1,1,"ValNeutral",3,1292,"Include",269,"2215.jpg"
"KK2015_e1","KK2015_e1_2",1,0,"ValNegative",4,1839,"Include",270,"2100.jpg"
"KK2015_e1","KK2015_e1_2",1,0,"ValNegative",2,2128,"Include",271,"9008.jpg"
"KK2015_e1","KK2015_e1_2",1,0,"ValNegative",2,2575,"Include",272,"6312.jpg"
"KK2015_e1","KK2015_e1_2",1,0,"ValNegative",2,2516,"Include",273,"2710.jpg"
"KK2015_e1","KK2015_e1_2",1,1,"ValPositive",1,1490,"Include",274,"8490.jpg"
"KK2015_e1","KK2015_e1_2",1,0,"ValNeutral",1,1184,"Include",275,"7002.jpg"
"KK2015_e1","KK2015_e1_2",1,1,"ValNegative",4,1780,"Include",276,"9520.jpg"
"KK2015_e1","KK2015_e1_2",1,0,"ValNeutral",3,2144,"Include",277,"7025.jpg"
"KK2015_e1","KK2015_e1_2",1,1,"ValNegative",2,2077,"Include",278,"9621.jpg"
"KK2015_e1","KK2015_e1_2",1,0,"ValNeutral",1,1406,"Include",279,"7006.jpg"
"KK2015_e1","KK2015_e1_2",1,1,"ValPositive",4,1789,"Include",280,"2216.jpg"
"KK2015_e1","KK2015_e1_2",1,1,"ValNeutral",4,1088,"Include",281,"5510.jpg"
"KK2015_e1","KK2015_e1_2",1,1,"ValNegative",1,1609,"Include",282,"9490.jpg"
"KK2015_e1","KK2015_e1_2",1,1,"ValNeutral",1,2228,"Include",283,"7040.jpg"
"KK2015_e1","KK2015_e1_2",1,1,"ValNegative",4,1372,"Include",284,"9010.jpg"
"KK2015_e1","KK2015_e1_2",1,0,"ValPositive",3,1816,"Include",285,"2311.jpg"
"KK2015_e1","KK2015_e1_2",1,1,"ValNeutral",4,1654,"Include",286,"2020.jpg"
"KK2015_e1","KK2015_e1_2",1,0,"ValPositive",1,2089,"Include",287,"8540.jpg"
"KK2015_e1","KK2015_e1_2",1,0,"ValNeutral",2,1913,"Include",288,"5800.jpg"
"KK2015_e1","KK2015_e1_2",1,1,"ValNegative",3,1780,"Include",289,"6840.jpg"
"KK2015_e1","KK2015_e1_2",1,1,"ValPositive",1,2243,"Include",290,"8340.jpg"
"KK2015_e1","KK2015_e1_2",1,0,"ValPositive",1,1340,"Include",291,"4599.jpg"
"KK2015_e1","KK2015_e1_2",1,1,"ValNeutral",2,2536,"Include",292,"7160.jpg"
"KK2015_e1","KK2015_e1_2",1,0,"ValNeutral",3,1810,"Include",293,"2280.jpg"
"KK2015_e1","KK2015_e1_2",1,1,"ValNeutral",2,2594,"Include",294,"1616.jpg"
"KK2015_e1","KK2015_e1_2",1,0,"ValNeutral",2,2713,"Include",295,"7035.jpg"
"KK2015_e1","KK2015_e1_2",1,0,"ValNeutral",1,1215,"Include",296,"5390.jpg"
"KK2015_e1","KK2015_e1_2",1,0,"ValNeutral",1,1155,"Include",297,"1670.jpg"
"KK2015_e1","KK2015_e1_2",1,0,"ValNegative",1,1078,"Include",298,"1274.jpg"
"KK2015_e1","KK2015_e1_2",1,0,"ValPositive",1,2456,"Include",299,"4610.jpg"
"KK2015_e1","KK2015_e1_3",1,1,"ValNegative",4,1899,"Include",1,"3168.jpg"
"KK2015_e1","KK2015_e1_3",1,0,"ValPositive",3,1725,"Include",2,"1650.jpg"
"KK2015_e1","KK2015_e1_3",1,0,"ValNegative",4,1571,"Include",3,"9920.jpg"
"KK2015_e1","KK2015_e1_3",1,0,"ValNegative",2,1391,"Include",4,"2276.jpg"
"KK2015_e1","KK2015_e1_3",1,0,"ValNeutral",4,1821,"Include",5,"7110.jpg"
"KK2015_e1","KK2015_e1_3",1,0,"ValNegative",2,1529,"Include",6,"9582.jpg"
"KK2015_e1","KK2015_e1_3",1,0,"ValPositive",1,1855,"Include",7,"4520.jpg"
"KK2015_e1","KK2015_e1_3",1,1,"ValNegative",2,1144,"Include",8,"9611.jpg"
"KK2015_e1","KK2015_e1_3",1,0,"ValNegative",2,1580,"Include",9,"9140.jpg"
"KK2015_e1","KK2015_e1_3",1,0,"ValNegative",2,2055,"Include",10,"2053.jpg"
"KK2015_e1","KK2015_e1_3",1,0,"ValNegative",4,1732,"Include",11,"9800.jpg"
"KK2015_e1","KK2015_e1_3",1,1,"ValNeutral",2,1312,"Include",12,"2570.jpg"
"KK2015_e1","KK2015_e1_3",1,1,"ValNeutral",1,1271,"Include",13,"2487.jpg"
"KK2015_e1","KK2015_e1_3",1,0,"ValPositive",2,1522,"Include",14,"7230.jpg"
"KK2015_e1","KK2015_e1_3",1,0,"ValNeutral",3,1006,"Include",15,"4000.jpg"
"KK2015_e1","KK2015_e1_3",1,0,"ValNeutral",1,1581,"Include",16,"5130.jpg"
"KK2015_e1","KK2015_e1_3",1,1,"ValPositive",2,1912,"Include",17,"2209.jpg"
"KK2015_e1","KK2015_e1_3",1,0,"ValNegative",2,1239,"Include",18,"2753.jpg"
"KK2015_e1","KK2015_e1_3",1,0,"ValPositive",3,1336,"Include",19,"8280.jpg"
"KK2015_e1","KK2015_e1_3",1,0,"ValNeutral",1,1629,"Include",20,"2495.jpg"
"KK2015_e1","KK2015_e1_3",1,0,"ValNeutral",2,1407,"Include",21,"2575.jpg"
"KK2015_e1","KK2015_e1_3",1,1,"ValPositive",3,1416,"Include",22,"2345.jpg"
"KK2015_e1","KK2015_e1_3",1,0,"ValNegative",2,1284,"Include",23,"2141.jpg"
"KK2015_e1","KK2015_e1_3",1,1,"ValNeutral",3,1727,"Include",24,"2214.jpg"
"KK2015_e1","KK2015_e1_3",1,1,"ValNeutral",3,1484,"Include",25,"3210.jpg"
"KK2015_e1","KK2015_e1_3",1,0,"ValNeutral",2,1752,"Include",26,"2271.jpg"
"KK2015_e1","KK2015_e1_3",1,0,"ValNeutral",2,1134,"Include",27,"2200.jpg"
"KK2015_e1","KK2015_e1_3",1,1,"ValNegative",4,1581,"Include",28,"9042.jpg"
"KK2015_e1","KK2015_e1_3",1,0,"ValNegative",1,1368,"Include",29,"7560.jpg"
"KK2015_e1","KK2015_e1_3",1,0,"ValNegative",2,1418,"Include",30,"3220.jpg"
"KK2015_e1","KK2015_e1_3",1,0,"ValNeutral",2,1559,"Include",31,"4279.jpg"
"KK2015_e1","KK2015_e1_3",1,0,"ValPositive",4,1901,"Include",32,"4653.jpg"
"KK2015_e1","KK2015_e1_3",1,0,"ValNegative",2,1425,"Include",33,"6300.jpg"
"KK2015_e1","KK2015_e1_3",1,0,"ValNeutral",3,1527,"Include",34,"2485.jpg"
"KK2015_e1","KK2015_e1_3",1,1,"ValNegative",4,1923,"Include",35,"9921.jpg"
"KK2015_e1","KK2015_e1_3",1,1,"ValNegative",4,1581,"Include",36,"2130.jpg"
"KK2015_e1","KK2015_e1_3",1,1,"ValPositive",4,1261,"Include",37,"5470.jpg"
"KK2015_e1","KK2015_e1_3",1,0,"ValNeutral",2,1461,"Include",38,"2515.jpg"
"KK2015_e1","KK2015_e1_3",1,0,"ValPositive",1,2199,"Include",39,"2208.jpg"
"KK2015_e1","KK2015_e1_3",1,1,"ValPositive",1,1747,"Include",40,"2160.jpg"
"KK2015_e1","KK2015_e1_3",1,1,"ValNeutral",4,1523,"Include",41,"7130.jpg"
"KK2015_e1","KK2015_e1_3",1,0,"ValPositive",2,1419,"Include",42,"5480.jpg"
"KK2015_e1","KK2015_e1_3",1,1,"ValPositive",3,1401,"Include",43,"4660.jpg"
"KK2015_e1","KK2015_e1_3",1,0,"ValNegative",4,1082,"Include",44,"1321.jpg"
"KK2015_e1","KK2015_e1_3",1,0,"ValPositive",4,1491,"Include",45,"4689.jpg"
"KK2015_e1","KK2015_e1_3",1,1,"ValNegative",4,805,"Include",46,"1200.jpg"
"KK2015_e1","KK2015_e1_3",1,1,"ValNeutral",4,946,"Include",47,"5500.jpg"
"KK2015_e1","KK2015_e1_3",1,1,"ValNegative",4,1002,"Include",48,"9300.jpg"
"KK2015_e1","KK2015_e1_3",1,0,"ValNeutral",3,1683,"Include",49,"4571.jpg"
"KK2015_e1","KK2015_e1_3",1,1,"ValPositive",4,1530,"Include",50,"4533.jpg"
"KK2015_e1","KK2015_e1_3",1,1,"ValNegative",3,1628,"Include",51,"3063.jpg"
"KK2015_e1","KK2015_e1_3",1,1,"ValNeutral",4,1515,"Include",52,"5535.jpg"
"KK2015_e1","KK2015_e1_3",1,0,"ValNeutral",3,1440,"Include",53,"7009.jpg"
"KK2015_e1","KK2015_e1_3",1,0,"ValNegative",2,1407,"Include",54,"9405.jpg"
"KK2015_e1","KK2015_e1_3",1,0,"ValPositive",1,1380,"Include",55,"4601.jpg"
"KK2015_e1","KK2015_e1_3",1,1,"ValNeutral",1,2033,"Include",56,"2880.jpg"
"KK2015_e1","KK2015_e1_3",1,1,"ValNegative",2,1618,"Include",57,"6838.jpg"
"KK2015_e1","KK2015_e1_3",1,1,"ValNegative",3,1350,"Include",58,"2661.jpg"
"KK2015_e1","KK2015_e1_3",1,1,"ValPositive",4,1051,"Include",59,"8380.jpg"
"KK2015_e1","KK2015_e1_3",1,0,"ValNegative",3,1324,"Include",60,"2900.jpg"
"KK2015_e1","KK2015_e1_3",1,0,"ValNeutral",1,1786,"Include",61,"7004.jpg"
"KK2015_e1","KK2015_e1_3",1,1,"ValNegative",1,1522,"Include",62,"6370.jpg"
"KK2015_e1","KK2015_e1_3",1,0,"ValPositive",4,2282,"Include",63,"5628.jpg"
"KK2015_e1","KK2015_e1_3",1,0,"ValNegative",3,1695,"Include",64,"6410.jpg"
"KK2015_e1","KK2015_e1_3",1,0,"ValNeutral",2,1366,"Include",65,"2720.jpg"
"KK2015_e1","KK2015_e1_3",1,1,"ValNegative",2,1951,"Include",66,"9253.jpg"
"KK2015_e1","KK2015_e1_3",1,0,"ValPositive",1,1583,"Include",67,"1999.jpg"
"KK2015_e1","KK2015_e1_3",1,0,"ValNeutral",4,1617,"Include",68,"2210.jpg"
"KK2015_e1","KK2015_e1_3",1,1,"ValPositive",2,1827,"Include",69,"5626.jpg"
"KK2015_e1","KK2015_e1_3",1,1,"ValNeutral",2,1088,"Include",70,"2480.jpg"
"KK2015_e1","KK2015_e1_3",1,0,"ValNegative",4,1383,"Include",71,"1300.jpg"
"KK2015_e1","KK2015_e1_3",1,0,"ValNeutral",2,1389,"Include",72,"5593.jpg"
"KK2015_e1","KK2015_e1_3",1,1,"ValPositive",2,1339,"Include",73,"8461.jpg"
"KK2015_e1","KK2015_e1_3",1,1,"ValNegative",3,1722,"Include",74,"1390.jpg"
"KK2015_e1","KK2015_e1_3",1,0,"ValNeutral",2,2001,"Include",75,"5455.jpg"
"KK2015_e1","KK2015_e1_3",1,0,"ValPositive",2,1417,"Include",76,"7402.jpg"
"KK2015_e1","KK2015_e1_3",1,0,"ValNeutral",2,1489,"Include",77,"1945.jpg"
"KK2015_e1","KK2015_e1_3",1,1,"ValNeutral",2,1469,"Include",78,"2580.jpg"
"KK2015_e1","KK2015_e1_3",1,1,"ValNeutral",4,1268,"Include",79,"2190.jpg"
"KK2015_e1","KK2015_e1_3",1,1,"ValPositive",4,1375,"Include",80,"5950.jpg"
"KK2015_e1","KK2015_e1_3",1,0,"ValNeutral",1,1460,"Include",81,"7000.jpg"
"KK2015_e1","KK2015_e1_3",1,0,"ValNegative",4,1329,"Include",82,"9910.jpg"
"KK2015_e1","KK2015_e1_3",1,1,"ValPositive",3,1731,"Include",83,"7282.jpg"
"KK2015_e1","KK2015_e1_3",1,1,"ValPositive",4,1336,"Include",84,"8350.jpg"
"KK2015_e1","KK2015_e1_3",1,1,"ValNegative",2,1340,"Include",85,"9400.jpg"
"KK2015_e1","KK2015_e1_3",1,1,"ValPositive",2,1653,"Include",86,"4250.jpg"
"KK2015_e1","KK2015_e1_3",1,0,"ValPositive",1,1532,"Include",87,"8370.jpg"
"KK2015_e1","KK2015_e1_3",1,0,"ValNegative",4,1316,"Include",88,"1302.jpg"
"KK2015_e1","KK2015_e1_3",1,0,"ValNegative",1,1747,"Include",89,"6830.jpg"
"KK2015_e1","KK2015_e1_3",1,1,"ValPositive",2,1392,"Include",90,"8300.jpg"
"KK2015_e1","KK2015_e1_3",1,0,"ValPositive",2,1861,"Include",91,"4640.jpg"
"KK2015_e1","KK2015_e1_3",1,0,"ValNeutral",1,1517,"Include",92,"5530.jpg"
"KK2015_e1","KK2015_e1_3",1,0,"ValNeutral",3,1375,"Include",93,"4510.jpg"
"KK2015_e1","KK2015_e1_3",1,1,"ValNegative",4,1388,"Include",94,"6821.jpg"
"KK2015_e1","KK2015_e1_3",1,1,"ValPositive",4,1176,"Include",95,"4641.jpg"
"KK2015_e1","KK2015_e1_3",1,0,"ValNeutral",1,1450,"Include",96,"5875.jpg"
"KK2015_e1","KK2015_e1_3",1,1,"ValNegative",4,1092,"Include",97,"6250.jpg"
"KK2015_e1","KK2015_e1_3",1,1,"ValPositive",2,1225,"Include",98,"5629.jpg"
"KK2015_e1","KK2015_e1_3",1,1,"ValNegative",4,1078,"Include",99,"9000.jpg"
"KK2015_e1","KK2015_e1_3",1,0,"ValNeutral",3,1799,"Include",100,"5740.jpg"
"KK2015_e1","KK2015_e1_3",1,0,"ValNegative",1,1385,"Include",101,"6571.jpg"
"KK2015_e1","KK2015_e1_3",1,0,"ValNeutral",3,1360,"Include",102,"2381.jpg"
"KK2015_e1","KK2015_e1_3",1,1,"ValNegative",2,1537,"Include",103,"2205.jpg"
"KK2015_e1","KK2015_e1_3",1,0,"ValNegative",1,1267,"Include",104,"3301.jpg"
"KK2015_e1","KK2015_e1_3",1,1,"ValPositive",2,1523,"Include",105,"2303.jpg"
"KK2015_e1","KK2015_e1_3",1,0,"ValPositive",1,1629,"Include",106,"5460.jpg"
"KK2015_e1","KK2015_e1_3",1,1,"ValNeutral",2,1827,"Include",107,"4605.jpg"
"KK2015_e1","KK2015_e1_3",1,0,"ValPositive",2,1479,"Include",108,"5910.jpg"
"KK2015_e1","KK2015_e1_3",1,1,"ValNeutral",4,1046,"Include",109,"7080.jpg"
"KK2015_e1","KK2015_e1_3",1,0,"ValPositive",1,2013,"Include",110,"4617.jpg"
"KK2015_e1","KK2015_e1_3",1,1,"ValNegative",4,1239,"Include",111,"2751.jpg"
"KK2015_e1","KK2015_e1_3",1,0,"ValPositive",4,1263,"Include",112,"2050.jpg"
"KK2015_e1","KK2015_e1_3",1,0,"ValPositive",1,1469,"Include",113,"8400.jpg"
"KK2015_e1","KK2015_e1_3",1,1,"ValPositive",4,1956,"Include",114,"4631.jpg"
"KK2015_e1","KK2015_e1_3",1,0,"ValPositive",1,1162,"Include",115,"7289.jpg"
"KK2015_e1","KK2015_e1_3",1,0,"ValPositive",1,1028,"Include",116,"7481.jpg"
"KK2015_e1","KK2015_e1_3",1,1,"ValNegative",4,1272,"Include",117,"2800.jpg"
"KK2015_e1","KK2015_e1_3",1,0,"ValNeutral",2,1134,"Include",118,"7030.jpg"
"KK2015_e1","KK2015_e1_3",1,1,"ValNegative",3,1331,"Include",119,"1310.jpg"
"KK2015_e1","KK2015_e1_3",1,0,"ValNeutral",1,1939,"Include",120,"2840.jpg"
"KK2015_e1","KK2015_e1_3",1,1,"ValNegative",1,1301,"Include",121,"4621.jpg"
"KK2015_e1","KK2015_e1_3",1,1,"ValNeutral",3,1629,"Include",122,"5731.jpg"
"KK2015_e1","KK2015_e1_3",1,0,"ValNegative",3,1497,"Include",123,"2692.jpg"
"KK2015_e1","KK2015_e1_3",1,1,"ValNegative",1,1568,"Include",124,"3350.jpg"
"KK2015_e1","KK2015_e1_3",1,0,"ValNeutral",1,1233,"Include",125,"7140.jpg"
"KK2015_e1","KK2015_e1_3",1,1,"ValNeutral",1,1351,"Include",126,"7050.jpg"
"KK2015_e1","KK2015_e1_3",1,1,"ValNegative",1,1267,"Include",127,"3261.jpg"
"KK2015_e1","KK2015_e1_3",1,1,"ValNegative",4,1326,"Include",128,"5972.jpg"
"KK2015_e1","KK2015_e1_3",1,1,"ValNegative",4,1095,"Include",129,"1030.jpg"
"KK2015_e1","KK2015_e1_3",1,0,"ValPositive",2,1698,"Include",130,"8496.jpg"
"KK2015_e1","KK2015_e1_3",1,0,"ValNegative",2,1793,"Include",131,"9270.jpg"
"KK2015_e1","KK2015_e1_3",1,1,"ValNegative",2,1433,"Include",132,"9160.jpg"
"KK2015_e1","KK2015_e1_3",1,1,"ValNeutral",4,1086,"Include",133,"7010.jpg"
"KK2015_e1","KK2015_e1_3",1,1,"ValPositive",4,859,"Include",134,"7501.jpg"
"KK2015_e1","KK2015_e1_3",1,0,"ValPositive",3,1343,"Include",135,"7270.jpg"
"KK2015_e1","KK2015_e1_3",1,0,"ValNegative",3,778,"Include",136,"7360.jpg"
"KK2015_e1","KK2015_e1_3",1,1,"ValPositive",4,1277,"Include",137,"7570.jpg"
"KK2015_e1","KK2015_e1_3",1,1,"ValNeutral",4,1103,"Include",138,"2514.jpg"
"KK2015_e1","KK2015_e1_3",1,1,"ValPositive",4,1069,"Include",139,"7460.jpg"
"KK2015_e1","KK2015_e1_3",1,1,"ValNeutral",4,762,"Include",140,"7183.jpg"
"KK2015_e1","KK2015_e1_3",1,1,"ValPositive",4,1106,"Include",141,"1121.jpg"
"KK2015_e1","KK2015_e1_3",1,0,"ValNegative",1,1418,"Include",142,"9006.jpg"
"KK2015_e1","KK2015_e1_3",1,0,"ValPositive",1,1175,"Include",143,"8030.jpg"
"KK2015_e1","KK2015_e1_3",1,1,"ValPositive",4,1280,"Include",144,"2058.jpg"
"KK2015_e1","KK2015_e1_3",1,1,"ValNegative",3,1690,"Include",145,"8230.jpg"
"KK2015_e1","KK2015_e1_3",1,0,"ValNeutral",1,1050,"Include",146,"7090.jpg"
"KK2015_e1","KK2015_e1_3",1,1,"ValPositive",1,1190,"Include",147,"1440.jpg"
"KK2015_e1","KK2015_e1_3",1,0,"ValNegative",1,1125,"Include",148,"3280.jpg"
"KK2015_e1","KK2015_e1_3",1,1,"ValPositive",4,1483,"Include",149,"5700.jpg"
"KK2015_e1","KK2015_e1_3",1,1,"ValNeutral",4,1128,"Include",150,"4534.jpg"
"KK2015_e1","KK2015_e1_3",1,1,"ValNeutral",1,1282,"Include",151,"7180.jpg"
"KK2015_e1","KK2015_e1_3",1,1,"ValNeutral",2,1143,"Include",152,"2620.jpg"
"KK2015_e1","KK2015_e1_3",1,1,"ValNeutral",2,1415,"Include",153,"2221.jpg"
"KK2015_e1","KK2015_e1_3",1,1,"ValNeutral",3,1216,"Include",154,"2010.jpg"
"KK2015_e1","KK2015_e1_3",1,1,"ValPositive",2,1409,"Include",155,"7220.jpg"
"KK2015_e1","KK2015_e1_3",1,0,"ValPositive",1,1888,"Include",156,"2616.jpg"
"KK2015_e1","KK2015_e1_3",1,1,"ValPositive",4,1983,"Include",157,"4606.jpg"
"KK2015_e1","KK2015_e1_3",1,1,"ValNeutral",3,1490,"Include",158,"5120.jpg"
"KK2015_e1","KK2015_e1_3",1,1,"ValNegative",1,1627,"Include",159,"6834.jpg"
"KK2015_e1","KK2015_e1_3",1,0,"ValNeutral",4,903,"Include",160,"7182.jpg"
"KK2015_e1","KK2015_e1_3",1,1,"ValNeutral",4,930,"Include",161,"2383.jpg"
"KK2015_e1","KK2015_e1_3",1,1,"ValPositive",3,1179,"Include",162,"5622.jpg"
"KK2015_e1","KK2015_e1_3",1,1,"ValNeutral",3,1305,"Include",163,"4500.jpg"
"KK2015_e1","KK2015_e1_3",1,1,"ValPositive",4,1024,"Include",164,"7260.jpg"
"KK2015_e1","KK2015_e1_3",1,1,"ValNeutral",3,1328,"Include",165,"7031.jpg"
"KK2015_e1","KK2015_e1_3",1,1,"ValNeutral",3,1419,"Include",166,"2372.jpg"
"KK2015_e1","KK2015_e1_3",1,0,"ValNegative",1,1337,"Include",167,"3180.jpg"
"KK2015_e1","KK2015_e1_3",1,1,"ValPositive",4,1223,"Include",168,"8420.jpg"
"KK2015_e1","KK2015_e1_3",1,0,"ValNeutral",2,1213,"Include",169,"5395.jpg"
"KK2015_e1","KK2015_e1_3",1,0,"ValPositive",1,1734,"Include",170,"1590.jpg"
"KK2015_e1","KK2015_e1_3",1,0,"ValNegative",2,1306,"Include",171,"9250.jpg"
"KK2015_e1","KK2015_e1_3",1,0,"ValPositive",1,1708,"Include",172,"1340.jpg"
"KK2015_e1","KK2015_e1_3",1,0,"ValNeutral",1,1969,"Include",173,"7034.jpg"
"KK2015_e1","KK2015_e1_3",1,1,"ValPositive",4,1428,"Include",174,"8260.jpg"
"KK2015_e1","KK2015_e1_3",1,0,"ValPositive",1,1777,"Include",175,"2391.jpg"
"KK2015_e1","KK2015_e1_3",1,1,"ValNegative",4,1446,"Include",176,"1301.jpg"
"KK2015_e1","KK2015_e1_3",1,0,"ValNegative",1,1596,"Include",177,"3022.jpg"
"KK2015_e1","KK2015_e1_3",1,1,"ValNeutral",4,1207,"Include",178,"7095.jpg"
"KK2015_e1","KK2015_e1_3",1,1,"ValNeutral",4,1488,"Include",179,"2830.jpg"
"KK2015_e1","KK2015_e1_3",1,1,"ValNeutral",2,1580,"Include",180,"2850.jpg"
"KK2015_e1","KK2015_e1_3",1,1,"ValNegative",2,1728,"Include",181,"6836.jpg"
"KK2015_e1","KK2015_e1_3",1,1,"ValPositive",4,973,"Include",182,"7400.jpg"
"KK2015_e1","KK2015_e1_3",1,1,"ValPositive",4,1415,"Include",183,"2040.jpg"
"KK2015_e1","KK2015_e1_3",1,0,"ValNegative",1,1560,"Include",184,"9592.jpg"
"KK2015_e1","KK2015_e1_3",1,0,"ValNegative",2,2401,"Include",185,"9041.jpg"
"KK2015_e1","KK2015_e1_3",1,1,"ValNegative",4,1907,"Include",186,"3181.jpg"
"KK2015_e1","KK2015_e1_3",1,0,"ValPositive",2,1401,"Include",187,"5621.jpg"
"KK2015_e1","KK2015_e1_3",1,1,"ValNegative",1,1679,"Include",188,"3300.jpg"
"KK2015_e1","KK2015_e1_3",1,1,"ValNeutral",4,938,"Include",189,"7150.jpg"
"KK2015_e1","KK2015_e1_3",1,1,"ValPositive",4,1778,"Include",190,"4608.jpg"
"KK2015_e1","KK2015_e1_3",1,0,"ValNegative",4,1299,"Include",191,"3061.jpg"
"KK2015_e1","KK2015_e1_3",1,0,"ValNeutral",1,1725,"Include",192,"2440.jpg"
"KK2015_e1","KK2015_e1_3",1,1,"ValNeutral",4,1037,"Include",193,"2410.jpg"
"KK2015_e1","KK2015_e1_3",1,1,"ValNeutral",4,841,"Include",194,"7170.jpg"
"KK2015_e1","KK2015_e1_3",1,1,"ValPositive",1,1776,"Include",195,"1640.jpg"
"KK2015_e1","KK2015_e1_3",1,0,"ValNegative",1,1991,"Include",196,"9340.jpg"
"KK2015_e1","KK2015_e1_3",1,1,"ValPositive",2,1307,"Include",197,"7330.jpg"
"KK2015_e1","KK2015_e1_3",1,0,"ValPositive",2,1742,"Include",198,"5830.jpg"
"KK2015_e1","KK2015_e1_3",1,0,"ValNeutral",2,1313,"Include",199,"7060.jpg"
"KK2015_e1","KK2015_e1_3",1,0,"ValNegative",1,1775,"Include",200,"8480.jpg"
"KK2015_e1","KK2015_e1_3",1,0,"ValPositive",1,1604,"Include",201,"1720.jpg"
"KK2015_e1","KK2015_e1_3",1,0,"ValPositive",1,1604,"Include",202,"8470.jpg"
"KK2015_e1","KK2015_e1_3",1,1,"ValPositive",1,1590,"Include",203,"8600.jpg"
"KK2015_e1","KK2015_e1_3",1,1,"ValNeutral",2,1833,"Include",204,"1313.jpg"
"KK2015_e1","KK2015_e1_3",1,0,"ValNeutral",2,1714,"Include",205,"2351.jpg"
"KK2015_e1","KK2015_e1_3",1,1,"ValPositive",4,1065,"Include",206,"5600.jpg"
"KK2015_e1","KK2015_e1_3",1,0,"ValNeutral",2,1451,"Include",207,"2600.jpg"
"KK2015_e1","KK2015_e1_3",1,0,"ValNegative",1,1867,"Include",208,"9480.jpg"
"KK2015_e1","KK2015_e1_3",1,1,"ValNeutral",3,1767,"Include",209,"4274.jpg"
"KK2015_e1","KK2015_e1_3",1,0,"ValNeutral",3,1000,"Include",210,"7175.jpg"
"KK2015_e1","KK2015_e1_3",1,1,"ValNegative",3,1649,"Include",211,"9911.jpg"
"KK2015_e1","KK2015_e1_3",1,1,"ValNegative",4,1539,"Include",212,"6570.jpg"
"KK2015_e1","KK2015_e1_3",1,0,"ValNegative",2,1733,"Include",213,"3550.jpg"
"KK2015_e1","KK2015_e1_3",1,1,"ValNegative",3,1877,"Include",214,"1019.jpg"
"KK2015_e1","KK2015_e1_3",1,0,"ValPositive",1,2023,"Include",215,"5623.jpg"
"KK2015_e1","KK2015_e1_3",1,0,"ValPositive",2,1189,"Include",216,"4220.jpg"
"KK2015_e1","KK2015_e1_3",1,0,"ValNegative",1,1794,"Include",217,"9101.jpg"
"KK2015_e1","KK2015_e1_3",1,0,"ValNeutral",1,1621,"Include",218,"2518.jpg"
"KK2015_e1","KK2015_e1_3",1,0,"ValNegative",2,1661,"Include",219,"9181.jpg"
"KK2015_e1","KK2015_e1_3",1,1,"ValNegative",4,1351,"Include",220,"6940.jpg"
"KK2015_e1","KK2015_e1_3",1,0,"ValPositive",4,1670,"Include",221,"4607.jpg"
"KK2015_e1","KK2015_e1_3",1,0,"ValNegative",2,1474,"Include",222,"9046.jpg"
"KK2015_e1","KK2015_e1_3",1,1,"ValPositive",4,1770,"Include",223,"2389.jpg"
"KK2015_e1","KK2015_e1_3",1,0,"ValNeutral",1,1923,"Include",224,"2890.jpg"
"KK2015_e1","KK2015_e1_3",1,0,"ValNeutral",2,1474,"Include",225,"7184.jpg"
"KK2015_e1","KK2015_e1_3",1,1,"ValNegative",3,1802,"Include",226,"9120.jpg"
"KK2015_e1","KK2015_e1_3",1,1,"ValNeutral",4,1951,"Include",227,"2516.jpg"
"KK2015_e1","KK2015_e1_3",1,1,"ValPositive",2,1976,"Include",228,"4150.jpg"
"KK2015_e1","KK2015_e1_3",1,1,"ValPositive",4,1190,"Include",229,"1560.jpg"
"KK2015_e1","KK2015_e1_3",1,0,"ValNegative",2,2308,"Include",230,"2750.jpg"
"KK2015_e1","KK2015_e1_3",1,0,"ValPositive",1,1807,"Include",231,"7350.jpg"
"KK2015_e1","KK2015_e1_3",1,1,"ValNeutral",4,1480,"Include",232,"7100.jpg"
"KK2015_e1","KK2015_e1_3",1,1,"ValNegative",2,1444,"Include",233,"3230.jpg"
"KK2015_e1","KK2015_e1_3",1,0,"ValNegative",2,1139,"Include",234,"2682.jpg"
"KK2015_e1","KK2015_e1_3",1,0,"ValNegative",2,1239,"Include",235,"3160.jpg"
"KK2015_e1","KK2015_e1_3",1,1,"ValNegative",1,1796,"Include",236,"9040.jpg"
"KK2015_e1","KK2015_e1_3",1,1,"ValNeutral",1,1115,"Include",237,"5900.jpg"
"KK2015_e1","KK2015_e1_3",1,1,"ValNeutral",1,1872,"Include",238,"5520.jpg"
"KK2015_e1","KK2015_e1_3",1,1,"ValPositive",3,1212,"Include",239,"8021.jpg"
"KK2015_e1","KK2015_e1_3",1,0,"ValPositive",2,1662,"Include",240,"7200.jpg"
"KK2015_e1","KK2015_e1_3",1,1,"ValNegative",4,786,"Include",241,"9810.jpg"
"KK2015_e1","KK2015_e1_3",1,0,"ValPositive",2,1618,"Include",242,"2352.jpg"
"KK2015_e1","KK2015_e1_3",1,0,"ValPositive",1,1401,"Include",243,"1463.jpg"
"KK2015_e1","KK2015_e1_3",1,0,"ValNeutral",2,1729,"Include",244,"2385.jpg"
"KK2015_e1","KK2015_e1_3",1,0,"ValPositive",1,1563,"Include",245,"2091.jpg"
"KK2015_e1","KK2015_e1_3",1,0,"ValPositive",2,1814,"Include",246,"4609.jpg"
"KK2015_e1","KK2015_e1_3",1,1,"ValPositive",2,2132,"Include",247,"1710.jpg"
"KK2015_e1","KK2015_e1_3",1,0,"ValPositive",1,1633,"Include",248,"8500.jpg"
"KK2015_e1","KK2015_e1_3",1,1,"ValPositive",2,1591,"Include",249,"2550.jpg"
"KK2015_e1","KK2015_e1_3",1,0,"ValNeutral",1,1268,"Include",250,"2870.jpg"
"KK2015_e1","KK2015_e1_3",1,1,"ValNegative",4,1508,"Include",251,"9050.jpg"
"KK2015_e1","KK2015_e1_3",1,0,"ValNeutral",1,1424,"Include",252,"7020.jpg"
"KK2015_e1","KK2015_e1_3",1,0,"ValNegative",1,1081,"Include",253,"9560.jpg"
"KK2015_e1","KK2015_e1_3",1,0,"ValNegative",3,1677,"Include",254,"2120.jpg"
"KK2015_e1","KK2015_e1_3",1,0,"ValPositive",2,1803,"Include",255,"4598.jpg"
"KK2015_e1","KK2015_e1_3",1,0,"ValNegative",1,1075,"Include",256,"6000.jpg"
"KK2015_e1","KK2015_e1_3",1,1,"ValNeutral",3,2420,"Include",257,"2206.jpg"
"KK2015_e1","KK2015_e1_3",1,1,"ValPositive",2,1592,"Include",258,"5260.jpg"
"KK2015_e1","KK2015_e1_3",1,0,"ValNeutral",2,1419,"Include",259,"7096.jpg"
"KK2015_e1","KK2015_e1_3",1,0,"ValPositive",1,1503,"Include",260,"7450.jpg"
"KK2015_e1","KK2015_e1_3",1,0,"ValPositive",1,1408,"Include",261,"7502.jpg"
"KK2015_e1","KK2015_e1_3",1,0,"ValPositive",1,1573,"Include",262,"5660.jpg"
"KK2015_e1","KK2015_e1_3",1,0,"ValNeutral",1,1062,"Include",263,"5020.jpg"
"KK2015_e1","KK2015_e1_3",1,1,"ValNegative",3,1708,"Include",264,"9230.jpg"
"KK2015_e1","KK2015_e1_3",1,1,"ValPositive",4,2043,"Include",265,"1811.jpg"
"KK2015_e1","KK2015_e1_3",1,1,"ValNegative",1,1420,"Include",266,"2691.jpg"
"KK2015_e1","KK2015_e1_3",1,0,"ValPositive",2,1362,"Include",267,"8460.jpg"
"KK2015_e1","KK2015_e1_3",1,1,"ValNeutral",3,2374,"Include",268,"5410.jpg"
"KK2015_e1","KK2015_e1_3",1,0,"ValNeutral",3,1207,"Include",269,"2215.jpg"
"KK2015_e1","KK2015_e1_3",1,1,"ValNegative",3,1437,"Include",270,"2100.jpg"
"KK2015_e1","KK2015_e1_3",1,1,"ValNegative",4,1866,"Include",271,"9008.jpg"
"KK2015_e1","KK2015_e1_3",1,1,"ValNegative",1,1606,"Include",272,"6312.jpg"
"KK2015_e1","KK2015_e1_3",1,1,"ValNegative",4,1401,"Include",273,"2710.jpg"
"KK2015_e1","KK2015_e1_3",1,0,"ValPositive",1,1945,"Include",274,"8490.jpg"
"KK2015_e1","KK2015_e1_3",1,1,"ValNeutral",1,1217,"Include",275,"7002.jpg"
"KK2015_e1","KK2015_e1_3",1,0,"ValNegative",2,1664,"Include",276,"9520.jpg"
"KK2015_e1","KK2015_e1_3",1,1,"ValNeutral",4,1008,"Include",277,"7025.jpg"
"KK2015_e1","KK2015_e1_3",1,0,"ValNegative",1,1748,"Include",278,"9621.jpg"
"KK2015_e1","KK2015_e1_3",1,1,"ValNeutral",1,1318,"Include",279,"7006.jpg"
"KK2015_e1","KK2015_e1_3",1,0,"ValPositive",2,1932,"Include",280,"2216.jpg"
"KK2015_e1","KK2015_e1_3",1,0,"ValNeutral",1,1548,"Include",281,"5510.jpg"
"KK2015_e1","KK2015_e1_3",1,0,"ValNegative",2,1449,"Include",282,"9490.jpg"
"KK2015_e1","KK2015_e1_3",1,0,"ValNeutral",1,1374,"Include",283,"7040.jpg"
"KK2015_e1","KK2015_e1_3",1,0,"ValNegative",1,1233,"Include",284,"9010.jpg"
"KK2015_e1","KK2015_e1_3",1,1,"ValPositive",4,2031,"Include",285,"2311.jpg"
"KK2015_e1","KK2015_e1_3",1,0,"ValNeutral",4,1204,"Include",286,"2020.jpg"
"KK2015_e1","KK2015_e1_3",1,1,"ValPositive",4,1468,"Include",287,"8540.jpg"
"KK2015_e1","KK2015_e1_3",1,1,"ValNeutral",4,2251,"Include",288,"5800.jpg"
"KK2015_e1","KK2015_e1_3",1,0,"ValNegative",3,1520,"Include",289,"6840.jpg"
"KK2015_e1","KK2015_e1_3",1,0,"ValPositive",2,2060,"Include",290,"8340.jpg"
"KK2015_e1","KK2015_e1_3",1,1,"ValPositive",4,1146,"Include",291,"4599.jpg"
"KK2015_e1","KK2015_e1_3",1,0,"ValNeutral",2,970,"Include",292,"7160.jpg"
"KK2015_e1","KK2015_e1_3",1,1,"ValNeutral",3,1728,"Include",293,"2280.jpg"
"KK2015_e1","KK2015_e1_3",1,0,"ValNeutral",2,1490,"Include",294,"1616.jpg"
"KK2015_e1","KK2015_e1_3",1,1,"ValNeutral",4,1323,"Include",295,"7035.jpg"
"KK2015_e1","KK2015_e1_3",1,1,"ValNeutral",2,1596,"Include",296,"5390.jpg"
"KK2015_e1","KK2015_e1_3",1,1,"ValNeutral",4,966,"Include",297,"1670.jpg"
"KK2015_e1","KK2015_e1_3",1,1,"ValNegative",4,1106,"Include",298,"1274.jpg"
"KK2015_e1","KK2015_e1_3",1,1,"ValPositive",4,1581,"Include",299,"4610.jpg"
"KK2015_e1","KK2015_e1_4",1,0,"ValNegative",4,2105,"Include",1,"3168.jpg"
"KK2015_e1","KK2015_e1_4",1,1,"ValPositive",1,2088,"Include",2,"1650.jpg"
"KK2015_e1","KK2015_e1_4",1,1,"ValNegative",4,2675,"Include",3,"9920.jpg"
"KK2015_e1","KK2015_e1_4",1,1,"ValNegative",2,2710,"Include",4,"2276.jpg"
"KK2015_e1","KK2015_e1_4",1,1,"ValNeutral",2,1750,"Include",5,"7110.jpg"
"KK2015_e1","KK2015_e1_4",1,1,"ValNegative",4,2056,"Include",6,"9582.jpg"
"KK2015_e1","KK2015_e1_4",1,1,"ValPositive",4,1704,"Include",7,"4520.jpg"
"KK2015_e1","KK2015_e1_4",1,0,"ValNegative",2,2077,"Include",8,"9611.jpg"
"KK2015_e1","KK2015_e1_4",1,1,"ValNegative",3,2326,"Include",9,"9140.jpg"
"KK2015_e1","KK2015_e1_4",1,1,"ValNegative",NA,0,"Exclude",10,"2053.jpg"
"KK2015_e1","KK2015_e1_4",1,1,"ValNegative",4,1303,"Include",11,"9800.jpg"
"KK2015_e1","KK2015_e1_4",1,0,"ValNeutral",4,1577,"Include",12,"2570.jpg"
"KK2015_e1","KK2015_e1_4",1,0,"ValNeutral",2,2027,"Include",13,"2487.jpg"
"KK2015_e1","KK2015_e1_4",1,1,"ValPositive",4,1406,"Include",14,"7230.jpg"
"KK2015_e1","KK2015_e1_4",1,1,"ValNeutral",4,1708,"Include",15,"4000.jpg"
"KK2015_e1","KK2015_e1_4",1,1,"ValNeutral",3,1853,"Include",16,"5130.jpg"
"KK2015_e1","KK2015_e1_4",1,0,"ValPositive",4,1899,"Include",17,"2209.jpg"
"KK2015_e1","KK2015_e1_4",1,1,"ValNegative",4,1620,"Include",18,"2753.jpg"
"KK2015_e1","KK2015_e1_4",1,1,"ValPositive",2,1726,"Include",19,"8280.jpg"
"KK2015_e1","KK2015_e1_4",1,1,"ValNeutral",4,1542,"Include",20,"2495.jpg"
"KK2015_e1","KK2015_e1_4",1,1,"ValNeutral",2,2548,"Include",21,"2575.jpg"
"KK2015_e1","KK2015_e1_4",1,0,"ValPositive",2,1729,"Include",22,"2345.jpg"
"KK2015_e1","KK2015_e1_4",1,1,"ValNegative",4,1833,"Include",23,"2141.jpg"
"KK2015_e1","KK2015_e1_4",1,0,"ValNeutral",0,1378,"Exclude",24,"2214.jpg"
"KK2015_e1","KK2015_e1_4",1,0,"ValNeutral",3,2146,"Include",25,"3210.jpg"
"KK2015_e1","KK2015_e1_4",1,1,"ValNeutral",4,1626,"Include",26,"2271.jpg"
"KK2015_e1","KK2015_e1_4",1,1,"ValNeutral",2,1909,"Include",27,"2200.jpg"
"KK2015_e1","KK2015_e1_4",1,0,"ValNegative",2,1959,"Include",28,"9042.jpg"
"KK2015_e1","KK2015_e1_4",1,1,"ValNegative",4,1348,"Include",29,"7560.jpg"
"KK2015_e1","KK2015_e1_4",1,1,"ValNegative",4,1358,"Include",30,"3220.jpg"
"KK2015_e1","KK2015_e1_4",1,1,"ValNeutral",4,1764,"Include",31,"4279.jpg"
"KK2015_e1","KK2015_e1_4",1,1,"ValPositive",4,1669,"Include",32,"4653.jpg"
"KK2015_e1","KK2015_e1_4",1,1,"ValNegative",2,2073,"Include",33,"6300.jpg"
"KK2015_e1","KK2015_e1_4",1,1,"ValNeutral",2,2230,"Include",34,"2485.jpg"
"KK2015_e1","KK2015_e1_4",1,0,"ValNegative",4,1792,"Include",35,"9921.jpg"
"KK2015_e1","KK2015_e1_4",1,0,"ValNegative",4,2032,"Include",36,"2130.jpg"
"KK2015_e1","KK2015_e1_4",1,0,"ValPositive",3,2482,"Include",37,"5470.jpg"
"KK2015_e1","KK2015_e1_4",1,1,"ValNeutral",4,0,"Include",38,"2515.jpg"
"KK2015_e1","KK2015_e1_4",1,1,"ValPositive",4,2103,"Include",39,"2208.jpg"
"KK2015_e1","KK2015_e1_4",1,0,"ValPositive",1,2287,"Include",40,"2160.jpg"
"KK2015_e1","KK2015_e1_4",1,0,"ValNeutral",1,2813,"Include",41,"7130.jpg"
"KK2015_e1","KK2015_e1_4",1,1,"ValPositive",1,1570,"Include",42,"5480.jpg"
"KK2015_e1","KK2015_e1_4",1,0,"ValPositive",4,2813,"Include",43,"4660.jpg"
"KK2015_e1","KK2015_e1_4",1,1,"ValNegative",4,1142,"Include",44,"1321.jpg"
"KK2015_e1","KK2015_e1_4",1,1,"ValPositive",4,1312,"Include",45,"4689.jpg"
"KK2015_e1","KK2015_e1_4",1,0,"ValNegative",3,2463,"Include",46,"1200.jpg"
"KK2015_e1","KK2015_e1_4",1,0,"ValNeutral",2,2161,"Include",47,"5500.jpg"
"KK2015_e1","KK2015_e1_4",1,0,"ValNegative",2,2753,"Include",48,"9300.jpg"
"KK2015_e1","KK2015_e1_4",1,1,"ValNeutral",4,1408,"Include",49,"4571.jpg"
"KK2015_e1","KK2015_e1_4",1,0,"ValPositive",4,1868,"Include",50,"4533.jpg"
"KK2015_e1","KK2015_e1_4",1,0,"ValNegative",NA,0,"Exclude",51,"3063.jpg"
"KK2015_e1","KK2015_e1_4",1,0,"ValNeutral",1,2558,"Include",52,"5535.jpg"
"KK2015_e1","KK2015_e1_4",1,1,"ValNeutral",3,2111,"Include",53,"7009.jpg"
"KK2015_e1","KK2015_e1_4",1,1,"ValNegative",4,2250,"Include",54,"9405.jpg"
"KK2015_e1","KK2015_e1_4",1,1,"ValPositive",4,1456,"Include",55,"4601.jpg"
"KK2015_e1","KK2015_e1_4",1,0,"ValNeutral",NA,0,"Exclude",56,"2880.jpg"
"KK2015_e1","KK2015_e1_4",1,0,"ValNegative",2,2863,"Include",57,"6838.jpg"
"KK2015_e1","KK2015_e1_4",1,0,"ValNegative",NA,0,"Exclude",58,"2661.jpg"
"KK2015_e1","KK2015_e1_4",1,0,"ValPositive",NA,0,"Exclude",59,"8380.jpg"
"KK2015_e1","KK2015_e1_4",1,1,"ValNegative",NA,0,"Exclude",60,"2900.jpg"
"KK2015_e1","KK2015_e1_4",1,1,"ValNeutral",NA,0,"Exclude",61,"7004.jpg"
"KK2015_e1","KK2015_e1_4",1,0,"ValNegative",4,1764,"Include",62,"6370.jpg"
"KK2015_e1","KK2015_e1_4",1,1,"ValPositive",4,1434,"Include",63,"5628.jpg"
"KK2015_e1","KK2015_e1_4",1,1,"ValNegative",2,2748,"Include",64,"6410.jpg"
"KK2015_e1","KK2015_e1_4",1,1,"ValNeutral",4,1767,"Include",65,"2720.jpg"
"KK2015_e1","KK2015_e1_4",1,0,"ValNegative",1,2464,"Include",66,"9253.jpg"
"KK2015_e1","KK2015_e1_4",1,1,"ValPositive",4,1366,"Include",67,"1999.jpg"
"KK2015_e1","KK2015_e1_4",1,1,"ValNeutral",4,1125,"Include",68,"2210.jpg"
"KK2015_e1","KK2015_e1_4",1,0,"ValPositive",2,1826,"Include",69,"5626.jpg"
"KK2015_e1","KK2015_e1_4",1,0,"ValNeutral",1,0,"Include",70,"2480.jpg"
"KK2015_e1","KK2015_e1_4",1,1,"ValNegative",4,1344,"Include",71,"1300.jpg"
"KK2015_e1","KK2015_e1_4",1,1,"ValNeutral",NA,0,"Exclude",72,"5593.jpg"
"KK2015_e1","KK2015_e1_4",1,0,"ValPositive",1,1890,"Include",73,"8461.jpg"
"KK2015_e1","KK2015_e1_4",1,0,"ValNegative",2,2546,"Include",74,"1390.jpg"
"KK2015_e1","KK2015_e1_4",1,1,"ValNeutral",4,1386,"Include",75,"5455.jpg"
"KK2015_e1","KK2015_e1_4",1,1,"ValPositive",4,1391,"Include",76,"7402.jpg"
"KK2015_e1","KK2015_e1_4",1,1,"ValNeutral",4,1750,"Include",77,"1945.jpg"
"KK2015_e1","KK2015_e1_4",1,0,"ValNeutral",1,1834,"Include",78,"2580.jpg"
"KK2015_e1","KK2015_e1_4",1,0,"ValNeutral",1,1513,"Include",79,"2190.jpg"
"KK2015_e1","KK2015_e1_4",1,0,"ValPositive",1,2227,"Include",80,"5950.jpg"
"KK2015_e1","KK2015_e1_4",1,1,"ValNeutral",4,2351,"Include",81,"7000.jpg"
"KK2015_e1","KK2015_e1_4",1,1,"ValNegative",4,1339,"Include",82,"9910.jpg"
"KK2015_e1","KK2015_e1_4",1,0,"ValPositive",3,1607,"Include",83,"7282.jpg"
"KK2015_e1","KK2015_e1_4",1,0,"ValPositive",2,1814,"Include",84,"8350.jpg"
"KK2015_e1","KK2015_e1_4",1,0,"ValNegative",2,1645,"Include",85,"9400.jpg"
"KK2015_e1","KK2015_e1_4",1,0,"ValPositive",4,2718,"Include",86,"4250.jpg"
"KK2015_e1","KK2015_e1_4",1,1,"ValPositive",2,2379,"Include",87,"8370.jpg"
"KK2015_e1","KK2015_e1_4",1,1,"ValNegative",1,1502,"Include",88,"1302.jpg"
"KK2015_e1","KK2015_e1_4",1,1,"ValNegative",1,1461,"Include",89,"6830.jpg"
"KK2015_e1","KK2015_e1_4",1,0,"ValPositive",1,1528,"Include",90,"8300.jpg"
"KK2015_e1","KK2015_e1_4",1,1,"ValPositive",4,1641,"Include",91,"4640.jpg"
"KK2015_e1","KK2015_e1_4",1,1,"ValNeutral",4,1575,"Include",92,"5530.jpg"
"KK2015_e1","KK2015_e1_4",1,1,"ValNeutral",4,2314,"Include",93,"4510.jpg"
"KK2015_e1","KK2015_e1_4",1,0,"ValNegative",3,0,"Include",94,"6821.jpg"
"KK2015_e1","KK2015_e1_4",1,0,"ValPositive",4,2325,"Include",95,"4641.jpg"
"KK2015_e1","KK2015_e1_4",1,1,"ValNeutral",1,0,"Include",96,"5875.jpg"
"KK2015_e1","KK2015_e1_4",1,0,"ValNegative",1,1768,"Include",97,"6250.jpg"
"KK2015_e1","KK2015_e1_4",1,0,"ValPositive",1,2234,"Include",98,"5629.jpg"
"KK2015_e1","KK2015_e1_4",1,0,"ValNegative",1,1675,"Include",99,"9000.jpg"
"KK2015_e1","KK2015_e1_4",1,1,"ValNeutral",4,1419,"Include",100,"5740.jpg"
"KK2015_e1","KK2015_e1_4",1,1,"ValNegative",NA,0,"Exclude",101,"6571.jpg"
"KK2015_e1","KK2015_e1_4",1,1,"ValNeutral",1,1587,"Include",102,"2381.jpg"
"KK2015_e1","KK2015_e1_4",1,0,"ValNegative",1,2342,"Include",103,"2205.jpg"
"KK2015_e1","KK2015_e1_4",1,1,"ValNegative",2,2973,"Include",104,"3301.jpg"
"KK2015_e1","KK2015_e1_4",1,0,"ValPositive",3,1588,"Include",105,"2303.jpg"
"KK2015_e1","KK2015_e1_4",1,1,"ValPositive",3,1410,"Include",106,"5460.jpg"
"KK2015_e1","KK2015_e1_4",1,0,"ValNeutral",2,2370,"Include",107,"4605.jpg"
"KK2015_e1","KK2015_e1_4",1,1,"ValPositive",3,1377,"Include",108,"5910.jpg"
"KK2015_e1","KK2015_e1_4",1,0,"ValNeutral",1,1287,"Include",109,"7080.jpg"
"KK2015_e1","KK2015_e1_4",1,1,"ValPositive",NA,0,"Exclude",110,"4617.jpg"
"KK2015_e1","KK2015_e1_4",1,0,"ValNegative",NA,0,"Exclude",111,"2751.jpg"
"KK2015_e1","KK2015_e1_4",1,1,"ValPositive",4,1889,"Include",112,"2050.jpg"
"KK2015_e1","KK2015_e1_4",1,1,"ValPositive",4,1281,"Include",113,"8400.jpg"
"KK2015_e1","KK2015_e1_4",1,0,"ValPositive",4,1886,"Include",114,"4631.jpg"
"KK2015_e1","KK2015_e1_4",1,1,"ValPositive",4,1361,"Include",115,"7289.jpg"
"KK2015_e1","KK2015_e1_4",1,1,"ValPositive",4,1084,"Include",116,"7481.jpg"
"KK2015_e1","KK2015_e1_4",1,0,"ValNegative",1,1282,"Include",117,"2800.jpg"
"KK2015_e1","KK2015_e1_4",1,1,"ValNeutral",2,602,"Include",118,"7030.jpg"
"KK2015_e1","KK2015_e1_4",1,0,"ValNegative",3,1662,"Include",119,"1310.jpg"
"KK2015_e1","KK2015_e1_4",1,1,"ValNeutral",4,1724,"Include",120,"2840.jpg"
"KK2015_e1","KK2015_e1_4",1,0,"ValNegative",1,2350,"Include",121,"4621.jpg"
"KK2015_e1","KK2015_e1_4",1,0,"ValNeutral",NA,0,"Exclude",122,"5731.jpg"
"KK2015_e1","KK2015_e1_4",1,1,"ValNegative",1,1946,"Include",123,"2692.jpg"
"KK2015_e1","KK2015_e1_4",1,0,"ValNegative",2,1166,"Include",124,"3350.jpg"
"KK2015_e1","KK2015_e1_4",1,1,"ValNeutral",2,0,"Include",125,"7140.jpg"
"KK2015_e1","KK2015_e1_4",1,0,"ValNeutral",1,2210,"Include",126,"7050.jpg"
"KK2015_e1","KK2015_e1_4",1,0,"ValNegative",2,1189,"Include",127,"3261.jpg"
"KK2015_e1","KK2015_e1_4",1,0,"ValNegative",NA,0,"Exclude",128,"5972.jpg"
"KK2015_e1","KK2015_e1_4",1,0,"ValNegative",1,0,"Include",129,"1030.jpg"
"KK2015_e1","KK2015_e1_4",1,1,"ValPositive",4,1542,"Include",130,"8496.jpg"
"KK2015_e1","KK2015_e1_4",1,1,"ValNegative",3,1576,"Include",131,"9270.jpg"
"KK2015_e1","KK2015_e1_4",1,0,"ValNegative",1,2488,"Include",132,"9160.jpg"
"KK2015_e1","KK2015_e1_4",1,0,"ValNeutral",2,1412,"Include",133,"7010.jpg"
"KK2015_e1","KK2015_e1_4",1,0,"ValPositive",1,0,"Include",134,"7501.jpg"
"KK2015_e1","KK2015_e1_4",1,1,"ValPositive",1,1236,"Include",135,"7270.jpg"
"KK2015_e1","KK2015_e1_4",1,1,"ValNegative",NA,0,"Exclude",136,"7360.jpg"
"KK2015_e1","KK2015_e1_4",1,0,"ValPositive",1,758,"Include",137,"7570.jpg"
"KK2015_e1","KK2015_e1_4",1,0,"ValNeutral",NA,0,"Exclude",138,"2514.jpg"
"KK2015_e1","KK2015_e1_4",1,0,"ValPositive",NA,0,"Exclude",139,"7460.jpg"
"KK2015_e1","KK2015_e1_4",1,0,"ValNeutral",NA,0,"Exclude",140,"7183.jpg"
"KK2015_e1","KK2015_e1_4",1,0,"ValPositive",NA,0,"Exclude",141,"1121.jpg"
"KK2015_e1","KK2015_e1_4",1,1,"ValNegative",NA,0,"Exclude",142,"9006.jpg"
"KK2015_e1","KK2015_e1_4",1,1,"ValPositive",1,2611,"Include",143,"8030.jpg"
"KK2015_e1","KK2015_e1_4",1,0,"ValPositive",3,677,"Include",144,"2058.jpg"
"KK2015_e1","KK2015_e1_4",1,0,"ValNegative",1,643,"Include",145,"8230.jpg"
"KK2015_e1","KK2015_e1_4",1,1,"ValNeutral",1,1041,"Include",146,"7090.jpg"
"KK2015_e1","KK2015_e1_4",1,0,"ValPositive",4,1795,"Include",147,"1440.jpg"
"KK2015_e1","KK2015_e1_4",1,1,"ValNegative",4,1862,"Include",148,"3280.jpg"
"KK2015_e1","KK2015_e1_4",1,0,"ValPositive",4,1630,"Include",149,"5700.jpg"
"KK2015_e1","KK2015_e1_4",1,0,"ValNeutral",3,1451,"Include",150,"4534.jpg"
"KK2015_e1","KK2015_e1_4",1,0,"ValNeutral",4,1504,"Include",151,"7180.jpg"
"KK2015_e1","KK2015_e1_4",1,0,"ValNeutral",3,1357,"Include",152,"2620.jpg"
"KK2015_e1","KK2015_e1_4",1,0,"ValNeutral",2,1886,"Include",153,"2221.jpg"
"KK2015_e1","KK2015_e1_4",1,0,"ValNeutral",4,2885,"Include",154,"2010.jpg"
"KK2015_e1","KK2015_e1_4",1,0,"ValPositive",1,1422,"Include",155,"7220.jpg"
"KK2015_e1","KK2015_e1_4",1,1,"ValPositive",4,1678,"Include",156,"2616.jpg"
"KK2015_e1","KK2015_e1_4",1,0,"ValPositive",NA,0,"Exclude",157,"4606.jpg"
"KK2015_e1","KK2015_e1_4",1,0,"ValNeutral",NA,0,"Exclude",158,"5120.jpg"
"KK2015_e1","KK2015_e1_4",1,0,"ValNegative",1,391,"Include",159,"6834.jpg"
"KK2015_e1","KK2015_e1_4",1,1,"ValNeutral",1,1009,"Include",160,"7182.jpg"
"KK2015_e1","KK2015_e1_4",1,0,"ValNeutral",1,1572,"Include",161,"2383.jpg"
"KK2015_e1","KK2015_e1_4",1,0,"ValPositive",2,1392,"Include",162,"5622.jpg"
"KK2015_e1","KK2015_e1_4",1,0,"ValNeutral",2,1257,"Include",163,"4500.jpg"
"KK2015_e1","KK2015_e1_4",1,0,"ValPositive",3,1280,"Include",164,"7260.jpg"
"KK2015_e1","KK2015_e1_4",1,0,"ValNeutral",1,1161,"Include",165,"7031.jpg"
"KK2015_e1","KK2015_e1_4",1,0,"ValNeutral",2,1228,"Include",166,"2372.jpg"
"KK2015_e1","KK2015_e1_4",1,1,"ValNegative",NA,0,"Exclude",167,"3180.jpg"
"KK2015_e1","KK2015_e1_4",1,0,"ValPositive",NA,0,"Exclude",168,"8420.jpg"
"KK2015_e1","KK2015_e1_4",1,1,"ValNeutral",1,1960,"Include",169,"5395.jpg"
"KK2015_e1","KK2015_e1_4",1,1,"ValPositive",4,1255,"Include",170,"1590.jpg"
"KK2015_e1","KK2015_e1_4",1,1,"ValNegative",3,1792,"Include",171,"9250.jpg"
"KK2015_e1","KK2015_e1_4",1,1,"ValPositive",2,1867,"Include",172,"1340.jpg"
"KK2015_e1","KK2015_e1_4",1,1,"ValNeutral",4,2582,"Include",173,"7034.jpg"
"KK2015_e1","KK2015_e1_4",1,0,"ValPositive",3,1990,"Include",174,"8260.jpg"
"KK2015_e1","KK2015_e1_4",1,1,"ValPositive",2,0,"Include",175,"2391.jpg"
"KK2015_e1","KK2015_e1_4",1,0,"ValNegative",4,1438,"Include",176,"1301.jpg"
"KK2015_e1","KK2015_e1_4",1,1,"ValNegative",2,1662,"Include",177,"3022.jpg"
"KK2015_e1","KK2015_e1_4",1,0,"ValNeutral",NA,0,"Exclude",178,"7095.jpg"
"KK2015_e1","KK2015_e1_4",1,0,"ValNeutral",2,2178,"Include",179,"2830.jpg"
"KK2015_e1","KK2015_e1_4",1,0,"ValNeutral",NA,0,"Exclude",180,"2850.jpg"
"KK2015_e1","KK2015_e1_4",1,0,"ValNegative",NA,0,"Exclude",181,"6836.jpg"
"KK2015_e1","KK2015_e1_4",1,0,"ValPositive",1,2482,"Include",182,"7400.jpg"
"KK2015_e1","KK2015_e1_4",1,0,"ValPositive",2,1503,"Include",183,"2040.jpg"
"KK2015_e1","KK2015_e1_4",1,1,"ValNegative",3,1343,"Include",184,"9592.jpg"
"KK2015_e1","KK2015_e1_4",1,1,"ValNegative",1,1688,"Include",185,"9041.jpg"
"KK2015_e1","KK2015_e1_4",1,0,"ValNegative",3,1755,"Include",186,"3181.jpg"
"KK2015_e1","KK2015_e1_4",1,1,"ValPositive",2,1693,"Include",187,"5621.jpg"
"KK2015_e1","KK2015_e1_4",1,0,"ValNegative",NA,0,"Exclude",188,"3300.jpg"
"KK2015_e1","KK2015_e1_4",1,0,"ValNeutral",NA,0,"Exclude",189,"7150.jpg"
"KK2015_e1","KK2015_e1_4",1,0,"ValPositive",1,0,"Include",190,"4608.jpg"
"KK2015_e1","KK2015_e1_4",1,1,"ValNegative",2,1708,"Include",191,"3061.jpg"
"KK2015_e1","KK2015_e1_4",1,1,"ValNeutral",2,1862,"Include",192,"2440.jpg"
"KK2015_e1","KK2015_e1_4",1,0,"ValNeutral",1,1676,"Include",193,"2410.jpg"
"KK2015_e1","KK2015_e1_4",1,0,"ValNeutral",2,1167,"Include",194,"7170.jpg"
"KK2015_e1","KK2015_e1_4",1,0,"ValPositive",3,1120,"Include",195,"1640.jpg"
"KK2015_e1","KK2015_e1_4",1,1,"ValNegative",NA,0,"Exclude",196,"9340.jpg"
"KK2015_e1","KK2015_e1_4",1,0,"ValPositive",1,1294,"Include",197,"7330.jpg"
"KK2015_e1","KK2015_e1_4",1,1,"ValPositive",2,1293,"Include",198,"5830.jpg"
"KK2015_e1","KK2015_e1_4",1,1,"ValNeutral",NA,0,"Exclude",199,"7060.jpg"
"KK2015_e1","KK2015_e1_4",1,1,"ValNegative",1,1109,"Include",200,"8480.jpg"
"KK2015_e1","KK2015_e1_4",1,1,"ValPositive",NA,0,"Exclude",201,"1720.jpg"
"KK2015_e1","KK2015_e1_4",1,1,"ValPositive",1,2522,"Include",202,"8470.jpg"
"KK2015_e1","KK2015_e1_4",1,0,"ValPositive",2,584,"Include",203,"8600.jpg"
"KK2015_e1","KK2015_e1_4",1,0,"ValNeutral",2,1408,"Include",204,"1313.jpg"
"KK2015_e1","KK2015_e1_4",1,1,"ValNeutral",1,754,"Include",205,"2351.jpg"
"KK2015_e1","KK2015_e1_4",1,0,"ValPositive",3,2078,"Include",206,"5600.jpg"
"KK2015_e1","KK2015_e1_4",1,1,"ValNeutral",2,1340,"Include",207,"2600.jpg"
"KK2015_e1","KK2015_e1_4",1,1,"ValNegative",NA,0,"Exclude",208,"9480.jpg"
"KK2015_e1","KK2015_e1_4",1,0,"ValNeutral",NA,0,"Exclude",209,"4274.jpg"
"KK2015_e1","KK2015_e1_4",1,1,"ValNeutral",1,0,"Include",210,"7175.jpg"
"KK2015_e1","KK2015_e1_4",1,0,"ValNegative",4,1412,"Include",211,"9911.jpg"
"KK2015_e1","KK2015_e1_4",1,0,"ValNegative",3,1394,"Include",212,"6570.jpg"
"KK2015_e1","KK2015_e1_4",1,1,"ValNegative",1,1565,"Include",213,"3550.jpg"
"KK2015_e1","KK2015_e1_4",1,0,"ValNegative",2,1214,"Include",214,"1019.jpg"
"KK2015_e1","KK2015_e1_4",1,1,"ValPositive",1,987,"Include",215,"5623.jpg"
"KK2015_e1","KK2015_e1_4",1,1,"ValPositive",2,1277,"Include",216,"4220.jpg"
"KK2015_e1","KK2015_e1_4",1,1,"ValNegative",4,1089,"Include",217,"9101.jpg"
"KK2015_e1","KK2015_e1_4",1,1,"ValNeutral",1,1678,"Include",218,"2518.jpg"
"KK2015_e1","KK2015_e1_4",1,1,"ValNegative",2,1435,"Include",219,"9181.jpg"
"KK2015_e1","KK2015_e1_4",1,0,"ValNegative",3,1271,"Include",220,"6940.jpg"
"KK2015_e1","KK2015_e1_4",1,1,"ValPositive",4,1204,"Include",221,"4607.jpg"
"KK2015_e1","KK2015_e1_4",1,1,"ValNegative",1,1799,"Include",222,"9046.jpg"
"KK2015_e1","KK2015_e1_4",1,0,"ValPositive",2,1208,"Include",223,"2389.jpg"
"KK2015_e1","KK2015_e1_4",1,1,"ValNeutral",4,1501,"Include",224,"2890.jpg"
"KK2015_e1","KK2015_e1_4",1,1,"ValNeutral",1,1966,"Include",225,"7184.jpg"
"KK2015_e1","KK2015_e1_4",1,0,"ValNegative",4,903,"Include",226,"9120.jpg"
"KK2015_e1","KK2015_e1_4",1,0,"ValNeutral",1,2051,"Include",227,"2516.jpg"
"KK2015_e1","KK2015_e1_4",1,0,"ValPositive",2,1323,"Include",228,"4150.jpg"
"KK2015_e1","KK2015_e1_4",1,0,"ValPositive",1,941,"Include",229,"1560.jpg"
"KK2015_e1","KK2015_e1_4",1,1,"ValNegative",2,1384,"Include",230,"2750.jpg"
"KK2015_e1","KK2015_e1_4",1,1,"ValPositive",4,1093,"Include",231,"7350.jpg"
"KK2015_e1","KK2015_e1_4",1,0,"ValNeutral",1,1718,"Include",232,"7100.jpg"
"KK2015_e1","KK2015_e1_4",1,0,"ValNegative",2,1871,"Include",233,"3230.jpg"
"KK2015_e1","KK2015_e1_4",1,1,"ValNegative",4,1311,"Include",234,"2682.jpg"
"KK2015_e1","KK2015_e1_4",1,1,"ValNegative",2,999,"Include",235,"3160.jpg"
"KK2015_e1","KK2015_e1_4",1,0,"ValNegative",2,2323,"Include",236,"9040.jpg"
"KK2015_e1","KK2015_e1_4",1,0,"ValNeutral",3,966,"Include",237,"5900.jpg"
"KK2015_e1","KK2015_e1_4",1,0,"ValNeutral",1,1200,"Include",238,"5520.jpg"
"KK2015_e1","KK2015_e1_4",1,0,"ValPositive",2,1580,"Include",239,"8021.jpg"
"KK2015_e1","KK2015_e1_4",1,1,"ValPositive",1,1555,"Include",240,"7200.jpg"
"KK2015_e1","KK2015_e1_4",1,0,"ValNegative",1,1723,"Include",241,"9810.jpg"
"KK2015_e1","KK2015_e1_4",1,1,"ValPositive",2,1817,"Include",242,"2352.jpg"
"KK2015_e1","KK2015_e1_4",1,1,"ValPositive",4,939,"Include",243,"1463.jpg"
"KK2015_e1","KK2015_e1_4",1,1,"ValNeutral",3,1763,"Include",244,"2385.jpg"
"KK2015_e1","KK2015_e1_4",1,1,"ValPositive",4,1568,"Include",245,"2091.jpg"
"KK2015_e1","KK2015_e1_4",1,1,"ValPositive",4,1888,"Include",246,"4609.jpg"
"KK2015_e1","KK2015_e1_4",1,0,"ValPositive",4,1360,"Include",247,"1710.jpg"
"KK2015_e1","KK2015_e1_4",1,1,"ValPositive",2,1585,"Include",248,"8500.jpg"
"KK2015_e1","KK2015_e1_4",1,0,"ValPositive",1,2157,"Include",249,"2550.jpg"
"KK2015_e1","KK2015_e1_4",1,1,"ValNeutral",3,1591,"Include",250,"2870.jpg"
"KK2015_e1","KK2015_e1_4",1,0,"ValNegative",1,1567,"Include",251,"9050.jpg"
"KK2015_e1","KK2015_e1_4",1,1,"ValNeutral",4,1624,"Include",252,"7020.jpg"
"KK2015_e1","KK2015_e1_4",1,1,"ValNegative",4,1460,"Include",253,"9560.jpg"
"KK2015_e1","KK2015_e1_4",1,1,"ValNegative",4,1423,"Include",254,"2120.jpg"
"KK2015_e1","KK2015_e1_4",1,1,"ValPositive",1,2176,"Include",255,"4598.jpg"
"KK2015_e1","KK2015_e1_4",1,1,"ValNegative",1,1670,"Include",256,"6000.jpg"
"KK2015_e1","KK2015_e1_4",1,0,"ValNeutral",2,2088,"Include",257,"2206.jpg"
"KK2015_e1","KK2015_e1_4",1,0,"ValPositive",1,1036,"Include",258,"5260.jpg"
"KK2015_e1","KK2015_e1_4",1,1,"ValNeutral",1,904,"Include",259,"7096.jpg"
"KK2015_e1","KK2015_e1_4",1,1,"ValPositive",4,1178,"Include",260,"7450.jpg"
"KK2015_e1","KK2015_e1_4",1,1,"ValPositive",4,1196,"Include",261,"7502.jpg"
"KK2015_e1","KK2015_e1_4",1,1,"ValPositive",2,1530,"Include",262,"5660.jpg"
"KK2015_e1","KK2015_e1_4",1,1,"ValNeutral",2,2056,"Include",263,"5020.jpg"
"KK2015_e1","KK2015_e1_4",1,0,"ValNegative",2,950,"Include",264,"9230.jpg"
"KK2015_e1","KK2015_e1_4",1,0,"ValPositive",1,2190,"Include",265,"1811.jpg"
"KK2015_e1","KK2015_e1_4",1,0,"ValNegative",1,1455,"Include",266,"2691.jpg"
"KK2015_e1","KK2015_e1_4",1,1,"ValPositive",4,0,"Include",267,"8460.jpg"
"KK2015_e1","KK2015_e1_4",1,0,"ValNeutral",1,2149,"Include",268,"5410.jpg"
"KK2015_e1","KK2015_e1_4",1,1,"ValNeutral",4,1335,"Include",269,"2215.jpg"
"KK2015_e1","KK2015_e1_4",1,0,"ValNegative",1,1994,"Include",270,"2100.jpg"
"KK2015_e1","KK2015_e1_4",1,0,"ValNegative",1,1591,"Include",271,"9008.jpg"
"KK2015_e1","KK2015_e1_4",1,0,"ValNegative",2,1074,"Include",272,"6312.jpg"
"KK2015_e1","KK2015_e1_4",1,0,"ValNegative",1,1404,"Include",273,"2710.jpg"
"KK2015_e1","KK2015_e1_4",1,1,"ValPositive",4,2303,"Include",274,"8490.jpg"
"KK2015_e1","KK2015_e1_4",1,0,"ValNeutral",1,1392,"Include",275,"7002.jpg"
"KK2015_e1","KK2015_e1_4",1,1,"ValNegative",4,1469,"Include",276,"9520.jpg"
"KK2015_e1","KK2015_e1_4",1,0,"ValNeutral",1,1260,"Include",277,"7025.jpg"
"KK2015_e1","KK2015_e1_4",1,1,"ValNegative",1,1428,"Include",278,"9621.jpg"
"KK2015_e1","KK2015_e1_4",1,0,"ValNeutral",1,2958,"Include",279,"7006.jpg"
"KK2015_e1","KK2015_e1_4",1,1,"ValPositive",1,1054,"Include",280,"2216.jpg"
"KK2015_e1","KK2015_e1_4",1,1,"ValNeutral",4,1267,"Include",281,"5510.jpg"
"KK2015_e1","KK2015_e1_4",1,1,"ValNegative",3,2184,"Include",282,"9490.jpg"
"KK2015_e1","KK2015_e1_4",1,1,"ValNeutral",1,1312,"Include",283,"7040.jpg"
"KK2015_e1","KK2015_e1_4",1,1,"ValNegative",2,1207,"Include",284,"9010.jpg"
"KK2015_e1","KK2015_e1_4",1,0,"ValPositive",4,1460,"Include",285,"2311.jpg"
"KK2015_e1","KK2015_e1_4",1,1,"ValNeutral",4,1869,"Include",286,"2020.jpg"
"KK2015_e1","KK2015_e1_4",1,0,"ValPositive",4,1695,"Include",287,"8540.jpg"
"KK2015_e1","KK2015_e1_4",1,0,"ValNeutral",1,1818,"Include",288,"5800.jpg"
"KK2015_e1","KK2015_e1_4",1,1,"ValNegative",1,1580,"Include",289,"6840.jpg"
"KK2015_e1","KK2015_e1_4",1,1,"ValPositive",1,1794,"Include",290,"8340.jpg"
"KK2015_e1","KK2015_e1_4",1,0,"ValPositive",1,1599,"Include",291,"4599.jpg"
"KK2015_e1","KK2015_e1_4",1,1,"ValNeutral",1,1705,"Include",292,"7160.jpg"
"KK2015_e1","KK2015_e1_4",1,0,"ValNeutral",1,1138,"Include",293,"2280.jpg"
"KK2015_e1","KK2015_e1_4",1,1,"ValNeutral",NA,0,"Exclude",294,"1616.jpg"
"KK2015_e1","KK2015_e1_4",1,0,"ValNeutral",1,0,"Include",295,"7035.jpg"
"KK2015_e1","KK2015_e1_4",1,0,"ValNeutral",2,775,"Include",296,"5390.jpg"
"KK2015_e1","KK2015_e1_4",1,0,"ValNeutral",1,1620,"Include",297,"1670.jpg"
"KK2015_e1","KK2015_e1_4",1,0,"ValNegative",1,1006,"Include",298,"1274.jpg"
"KK2015_e1","KK2015_e1_4",1,0,"ValPositive",4,1612,"Include",299,"4610.jpg"
"KK2015_e1","KK2015_e1_5",1,1,"ValNegative",4,2648,"Include",1,"3168.jpg"
"KK2015_e1","KK2015_e1_5",1,0,"ValPositive",4,2249,"Include",2,"1650.jpg"
"KK2015_e1","KK2015_e1_5",1,0,"ValNegative",4,1983,"Include",3,"9920.jpg"
"KK2015_e1","KK2015_e1_5",1,0,"ValNegative",1,0,"Include",4,"2276.jpg"
"KK2015_e1","KK2015_e1_5",1,0,"ValNeutral",2,2778,"Include",5,"7110.jpg"
"KK2015_e1","KK2015_e1_5",1,0,"ValNegative",NA,0,"Exclude",6,"9582.jpg"
"KK2015_e1","KK2015_e1_5",1,0,"ValPositive",2,2247,"Include",7,"4520.jpg"
"KK2015_e1","KK2015_e1_5",1,1,"ValNegative",4,1567,"Include",8,"9611.jpg"
"KK2015_e1","KK2015_e1_5",1,0,"ValNegative",4,1498,"Include",9,"9140.jpg"
"KK2015_e1","KK2015_e1_5",1,0,"ValNegative",2,2581,"Include",10,"2053.jpg"
"KK2015_e1","KK2015_e1_5",1,0,"ValNegative",2,2312,"Include",11,"9800.jpg"
"KK2015_e1","KK2015_e1_5",1,1,"ValNeutral",4,2388,"Include",12,"2570.jpg"
"KK2015_e1","KK2015_e1_5",1,1,"ValNeutral",4,2005,"Include",13,"2487.jpg"
"KK2015_e1","KK2015_e1_5",1,0,"ValPositive",NA,0,"Exclude",14,"7230.jpg"
"KK2015_e1","KK2015_e1_5",1,0,"ValNeutral",4,1594,"Include",15,"4000.jpg"
"KK2015_e1","KK2015_e1_5",1,0,"ValNeutral",4,1811,"Include",16,"5130.jpg"
"KK2015_e1","KK2015_e1_5",1,1,"ValPositive",4,1590,"Include",17,"2209.jpg"
"KK2015_e1","KK2015_e1_5",1,0,"ValNegative",4,1720,"Include",18,"2753.jpg"
"KK2015_e1","KK2015_e1_5",1,0,"ValPositive",2,2034,"Include",19,"8280.jpg"
"KK2015_e1","KK2015_e1_5",1,0,"ValNeutral",4,1777,"Include",20,"2495.jpg"
"KK2015_e1","KK2015_e1_5",1,0,"ValNeutral",1,2241,"Include",21,"2575.jpg"
"KK2015_e1","KK2015_e1_5",1,1,"ValPositive",1,1951,"Include",22,"2345.jpg"
"KK2015_e1","KK2015_e1_5",1,0,"ValNegative",3,2064,"Include",23,"2141.jpg"
"KK2015_e1","KK2015_e1_5",1,1,"ValNeutral",3,2352,"Include",24,"2214.jpg"
"KK2015_e1","KK2015_e1_5",1,1,"ValNeutral",4,2005,"Include",25,"3210.jpg"
"KK2015_e1","KK2015_e1_5",1,0,"ValNeutral",2,2322,"Include",26,"2271.jpg"
"KK2015_e1","KK2015_e1_5",1,0,"ValNeutral",2,2252,"Include",27,"2200.jpg"
"KK2015_e1","KK2015_e1_5",1,1,"ValNegative",4,1805,"Include",28,"9042.jpg"
"KK2015_e1","KK2015_e1_5",1,0,"ValNegative",1,2789,"Include",29,"7560.jpg"
"KK2015_e1","KK2015_e1_5",1,0,"ValNegative",1,0,"Include",30,"3220.jpg"
"KK2015_e1","KK2015_e1_5",1,0,"ValNeutral",1,2484,"Include",31,"4279.jpg"
"KK2015_e1","KK2015_e1_5",1,0,"ValPositive",4,1903,"Include",32,"4653.jpg"
"KK2015_e1","KK2015_e1_5",1,0,"ValNegative",1,2015,"Include",33,"6300.jpg"
"KK2015_e1","KK2015_e1_5",1,0,"ValNeutral",4,2509,"Include",34,"2485.jpg"
"KK2015_e1","KK2015_e1_5",1,1,"ValNegative",1,2561,"Include",35,"9921.jpg"
"KK2015_e1","KK2015_e1_5",1,1,"ValNegative",NA,0,"Exclude",36,"2130.jpg"
"KK2015_e1","KK2015_e1_5",1,1,"ValPositive",4,1746,"Include",37,"5470.jpg"
"KK2015_e1","KK2015_e1_5",1,0,"ValNeutral",4,1487,"Include",38,"2515.jpg"
"KK2015_e1","KK2015_e1_5",1,0,"ValPositive",4,1704,"Include",39,"2208.jpg"
"KK2015_e1","KK2015_e1_5",1,1,"ValPositive",4,2033,"Include",40,"2160.jpg"
"KK2015_e1","KK2015_e1_5",1,1,"ValNeutral",4,1760,"Include",41,"7130.jpg"
"KK2015_e1","KK2015_e1_5",1,0,"ValPositive",1,1505,"Include",42,"5480.jpg"
"KK2015_e1","KK2015_e1_5",1,1,"ValPositive",1,2319,"Include",43,"4660.jpg"
"KK2015_e1","KK2015_e1_5",1,0,"ValNegative",4,1393,"Include",44,"1321.jpg"
"KK2015_e1","KK2015_e1_5",1,0,"ValPositive",4,1610,"Include",45,"4689.jpg"
"KK2015_e1","KK2015_e1_5",1,1,"ValNegative",4,1753,"Include",46,"1200.jpg"
"KK2015_e1","KK2015_e1_5",1,1,"ValNeutral",1,2444,"Include",47,"5500.jpg"
"KK2015_e1","KK2015_e1_5",1,1,"ValNegative",4,1046,"Include",48,"9300.jpg"
"KK2015_e1","KK2015_e1_5",1,0,"ValNeutral",1,1664,"Include",49,"4571.jpg"
"KK2015_e1","KK2015_e1_5",1,1,"ValPositive",4,1919,"Include",50,"4533.jpg"
"KK2015_e1","KK2015_e1_5",1,1,"ValNegative",4,2122,"Include",51,"3063.jpg"
"KK2015_e1","KK2015_e1_5",1,1,"ValNeutral",1,2518,"Include",52,"5535.jpg"
"KK2015_e1","KK2015_e1_5",1,0,"ValNeutral",1,1507,"Include",53,"7009.jpg"
"KK2015_e1","KK2015_e1_5",1,0,"ValNegative",1,0,"Include",54,"9405.jpg"
"KK2015_e1","KK2015_e1_5",1,0,"ValPositive",4,2333,"Include",55,"4601.jpg"
"KK2015_e1","KK2015_e1_5",1,1,"ValNeutral",4,1290,"Include",56,"2880.jpg"
"KK2015_e1","KK2015_e1_5",1,1,"ValNegative",1,0,"Include",57,"6838.jpg"
"KK2015_e1","KK2015_e1_5",1,1,"ValNegative",4,1600,"Include",58,"2661.jpg"
"KK2015_e1","KK2015_e1_5",1,1,"ValPositive",4,1152,"Include",59,"8380.jpg"
"KK2015_e1","KK2015_e1_5",1,0,"ValNegative",1,2249,"Include",60,"2900.jpg"
"KK2015_e1","KK2015_e1_5",1,0,"ValNeutral",1,1983,"Include",61,"7004.jpg"
"KK2015_e1","KK2015_e1_5",1,1,"ValNegative",1,2104,"Include",62,"6370.jpg"
"KK2015_e1","KK2015_e1_5",1,0,"ValPositive",4,1709,"Include",63,"5628.jpg"
"KK2015_e1","KK2015_e1_5",1,0,"ValNegative",1,2001,"Include",64,"6410.jpg"
"KK2015_e1","KK2015_e1_5",1,0,"ValNeutral",1,1926,"Include",65,"2720.jpg"
"KK2015_e1","KK2015_e1_5",1,1,"ValNegative",4,2366,"Include",66,"9253.jpg"
"KK2015_e1","KK2015_e1_5",1,0,"ValPositive",1,2179,"Include",67,"1999.jpg"
"KK2015_e1","KK2015_e1_5",1,0,"ValNeutral",4,1838,"Include",68,"2210.jpg"
"KK2015_e1","KK2015_e1_5",1,1,"ValPositive",1,1212,"Include",69,"5626.jpg"
"KK2015_e1","KK2015_e1_5",1,1,"ValNeutral",4,1360,"Include",70,"2480.jpg"
"KK2015_e1","KK2015_e1_5",1,0,"ValNegative",4,1660,"Include",71,"1300.jpg"
"KK2015_e1","KK2015_e1_5",1,0,"ValNeutral",4,1379,"Include",72,"5593.jpg"
"KK2015_e1","KK2015_e1_5",1,1,"ValPositive",1,2426,"Include",73,"8461.jpg"
"KK2015_e1","KK2015_e1_5",1,1,"ValNegative",1,1754,"Include",74,"1390.jpg"
"KK2015_e1","KK2015_e1_5",1,0,"ValNeutral",1,2372,"Include",75,"5455.jpg"
"KK2015_e1","KK2015_e1_5",1,0,"ValPositive",1,2174,"Include",76,"7402.jpg"
"KK2015_e1","KK2015_e1_5",1,0,"ValNeutral",4,1305,"Include",77,"1945.jpg"
"KK2015_e1","KK2015_e1_5",1,1,"ValNeutral",4,1437,"Include",78,"2580.jpg"
"KK2015_e1","KK2015_e1_5",1,1,"ValNeutral",4,1370,"Include",79,"2190.jpg"
"KK2015_e1","KK2015_e1_5",1,1,"ValPositive",1,1349,"Include",80,"5950.jpg"
"KK2015_e1","KK2015_e1_5",1,0,"ValNeutral",1,1667,"Include",81,"7000.jpg"
"KK2015_e1","KK2015_e1_5",1,0,"ValNegative",4,2785,"Include",82,"9910.jpg"
"KK2015_e1","KK2015_e1_5",1,1,"ValPositive",4,2429,"Include",83,"7282.jpg"
"KK2015_e1","KK2015_e1_5",1,1,"ValPositive",4,2104,"Include",84,"8350.jpg"
"KK2015_e1","KK2015_e1_5",1,1,"ValNegative",4,1965,"Include",85,"9400.jpg"
"KK2015_e1","KK2015_e1_5",1,1,"ValPositive",4,1540,"Include",86,"4250.jpg"
"KK2015_e1","KK2015_e1_5",1,0,"ValPositive",4,1814,"Include",87,"8370.jpg"
"KK2015_e1","KK2015_e1_5",1,0,"ValNegative",4,2306,"Include",88,"1302.jpg"
"KK2015_e1","KK2015_e1_5",1,0,"ValNegative",4,1604,"Include",89,"6830.jpg"
"KK2015_e1","KK2015_e1_5",1,1,"ValPositive",1,1110,"Include",90,"8300.jpg"
"KK2015_e1","KK2015_e1_5",1,0,"ValPositive",4,1478,"Include",91,"4640.jpg"
"KK2015_e1","KK2015_e1_5",1,0,"ValNeutral",4,1355,"Include",92,"5530.jpg"
"KK2015_e1","KK2015_e1_5",1,0,"ValNeutral",1,1602,"Include",93,"4510.jpg"
"KK2015_e1","KK2015_e1_5",1,1,"ValNegative",4,1198,"Include",94,"6821.jpg"
"KK2015_e1","KK2015_e1_5",1,1,"ValPositive",4,1387,"Include",95,"4641.jpg"
"KK2015_e1","KK2015_e1_5",1,0,"ValNeutral",1,1654,"Include",96,"5875.jpg"
"KK2015_e1","KK2015_e1_5",1,1,"ValNegative",4,1436,"Include",97,"6250.jpg"
"KK2015_e1","KK2015_e1_5",1,1,"ValPositive",1,1502,"Include",98,"5629.jpg"
"KK2015_e1","KK2015_e1_5",1,1,"ValNegative",4,1497,"Include",99,"9000.jpg"
"KK2015_e1","KK2015_e1_5",1,0,"ValNeutral",1,1416,"Include",100,"5740.jpg"
"KK2015_e1","KK2015_e1_5",1,0,"ValNegative",1,0,"Include",101,"6571.jpg"
"KK2015_e1","KK2015_e1_5",1,0,"ValNeutral",1,1625,"Include",102,"2381.jpg"
"KK2015_e1","KK2015_e1_5",1,1,"ValNegative",1,2531,"Include",103,"2205.jpg"
"KK2015_e1","KK2015_e1_5",1,0,"ValNegative",4,2163,"Include",104,"3301.jpg"
"KK2015_e1","KK2015_e1_5",1,1,"ValPositive",4,2454,"Include",105,"2303.jpg"
"KK2015_e1","KK2015_e1_5",1,0,"ValPositive",4,2757,"Include",106,"5460.jpg"
"KK2015_e1","KK2015_e1_5",1,1,"ValNeutral",4,1640,"Include",107,"4605.jpg"
"KK2015_e1","KK2015_e1_5",1,0,"ValPositive",4,2333,"Include",108,"5910.jpg"
"KK2015_e1","KK2015_e1_5",1,1,"ValNeutral",4,1432,"Include",109,"7080.jpg"
"KK2015_e1","KK2015_e1_5",1,0,"ValPositive",1,2583,"Include",110,"4617.jpg"
"KK2015_e1","KK2015_e1_5",1,1,"ValNegative",1,2177,"Include",111,"2751.jpg"
"KK2015_e1","KK2015_e1_5",1,0,"ValPositive",4,1292,"Include",112,"2050.jpg"
"KK2015_e1","KK2015_e1_5",1,0,"ValPositive",4,2081,"Include",113,"8400.jpg"
"KK2015_e1","KK2015_e1_5",1,1,"ValPositive",4,2397,"Include",114,"4631.jpg"
"KK2015_e1","KK2015_e1_5",1,0,"ValPositive",4,2009,"Include",115,"7289.jpg"
"KK2015_e1","KK2015_e1_5",1,0,"ValPositive",1,2117,"Include",116,"7481.jpg"
"KK2015_e1","KK2015_e1_5",1,1,"ValNegative",4,1642,"Include",117,"2800.jpg"
"KK2015_e1","KK2015_e1_5",1,0,"ValNeutral",1,1278,"Include",118,"7030.jpg"
"KK2015_e1","KK2015_e1_5",1,1,"ValNegative",1,1410,"Include",119,"1310.jpg"
"KK2015_e1","KK2015_e1_5",1,0,"ValNeutral",4,1570,"Include",120,"2840.jpg"
"KK2015_e1","KK2015_e1_5",1,1,"ValNegative",4,1621,"Include",121,"4621.jpg"
"KK2015_e1","KK2015_e1_5",1,1,"ValNeutral",4,1964,"Include",122,"5731.jpg"
"KK2015_e1","KK2015_e1_5",1,0,"ValNegative",4,1603,"Include",123,"2692.jpg"
"KK2015_e1","KK2015_e1_5",1,1,"ValNegative",4,2354,"Include",124,"3350.jpg"
"KK2015_e1","KK2015_e1_5",1,0,"ValNeutral",4,1237,"Include",125,"7140.jpg"
"KK2015_e1","KK2015_e1_5",1,1,"ValNeutral",1,1253,"Include",126,"7050.jpg"
"KK2015_e1","KK2015_e1_5",1,1,"ValNegative",1,1319,"Include",127,"3261.jpg"
"KK2015_e1","KK2015_e1_5",1,1,"ValNegative",1,1366,"Include",128,"5972.jpg"
"KK2015_e1","KK2015_e1_5",1,1,"ValNegative",4,1355,"Include",129,"1030.jpg"
"KK2015_e1","KK2015_e1_5",1,0,"ValPositive",4,1471,"Include",130,"8496.jpg"
"KK2015_e1","KK2015_e1_5",1,0,"ValNegative",4,1304,"Include",131,"9270.jpg"
"KK2015_e1","KK2015_e1_5",1,1,"ValNegative",4,1981,"Include",132,"9160.jpg"
"KK2015_e1","KK2015_e1_5",1,1,"ValNeutral",4,2143,"Include",133,"7010.jpg"
"KK2015_e1","KK2015_e1_5",1,1,"ValPositive",4,1214,"Include",134,"7501.jpg"
