"exp","id","isold","rating","RT","excluding","trial"
"KL2012_e4","KL2012_e4_1",0,4,10559,"Include",1
"KL2012_e4","KL2012_e4_1",0,2,3297,"Include",2
"KL2012_e4","KL2012_e4_1",0,3,1898,"Include",3
"KL2012_e4","KL2012_e4_1",0,4,1704,"Include",4
"KL2012_e4","KL2012_e4_1",0,1,1576,"Include",5
"KL2012_e4","KL2012_e4_1",1,1,1309,"Include",6
"KL2012_e4","KL2012_e4_1",1,2,925,"Include",7
"KL2012_e4","KL2012_e4_1",1,5,4399,"Include",8
"KL2012_e4","KL2012_e4_1",0,2,1255,"Include",9
"KL2012_e4","KL2012_e4_1",0,2,1100,"Include",10
"KL2012_e4","KL2012_e4_1",0,4,1337,"Include",11
"KL2012_e4","KL2012_e4_1",0,2,1301,"Include",12
"KL2012_e4","KL2012_e4_1",1,3,1365,"Include",13
"KL2012_e4","KL2012_e4_1",1,3,1341,"Include",14
"KL2012_e4","KL2012_e4_1",0,3,981,"Include",15
"KL2012_e4","KL2012_e4_1",1,1,1722,"Include",16
"KL2012_e4","KL2012_e4_1",0,1,940,"Include",17
"KL2012_e4","KL2012_e4_1",0,2,1118,"Include",18
"KL2012_e4","KL2012_e4_1",1,5,2017,"Include",19
"KL2012_e4","KL2012_e4_1",1,2,1046,"Include",20
"KL2012_e4","KL2012_e4_1",1,3,1105,"Include",21
"KL2012_e4","KL2012_e4_1",0,2,1009,"Include",22
"KL2012_e4","KL2012_e4_1",1,3,1310,"Include",23
"KL2012_e4","KL2012_e4_1",1,5,2494,"Include",24
"KL2012_e4","KL2012_e4_1",0,2,1179,"Include",25
"KL2012_e4","KL2012_e4_1",1,6,1072,"Include",26
"KL2012_e4","KL2012_e4_1",0,2,1104,"Include",27
"KL2012_e4","KL2012_e4_1",1,2,1045,"Include",28
"KL2012_e4","KL2012_e4_1",0,2,949,"Include",29
"KL2012_e4","KL2012_e4_1",0,1,1077,"Include",30
"KL2012_e4","KL2012_e4_1",1,4,1279,"Include",31
"KL2012_e4","KL2012_e4_1",0,1,878,"Include",32
"KL2012_e4","KL2012_e4_1",1,1,977,"Include",33
"KL2012_e4","KL2012_e4_1",0,1,854,"Include",34
"KL2012_e4","KL2012_e4_1",0,1,1203,"Include",35
"KL2012_e4","KL2012_e4_1",0,3,1149,"Include",36
"KL2012_e4","KL2012_e4_1",1,3,1261,"Include",37
"KL2012_e4","KL2012_e4_1",0,4,2141,"Include",38
"KL2012_e4","KL2012_e4_1",1,5,1037,"Include",39
"KL2012_e4","KL2012_e4_1",0,2,1215,"Include",40
"KL2012_e4","KL2012_e4_1",0,2,836,"Include",41
"KL2012_e4","KL2012_e4_1",1,2,919,"Include",42
"KL2012_e4","KL2012_e4_1",0,1,1097,"Include",43
"KL2012_e4","KL2012_e4_1",0,3,1100,"Include",44
"KL2012_e4","KL2012_e4_1",1,1,1209,"Include",45
"KL2012_e4","KL2012_e4_1",0,2,1134,"Include",46
"KL2012_e4","KL2012_e4_1",1,2,2072,"Include",47
"KL2012_e4","KL2012_e4_1",0,3,1549,"Include",48
"KL2012_e4","KL2012_e4_1",1,2,1038,"Include",49
"KL2012_e4","KL2012_e4_1",1,3,1408,"Include",50
"KL2012_e4","KL2012_e4_1",1,4,1411,"Include",51
"KL2012_e4","KL2012_e4_1",0,4,1440,"Include",52
"KL2012_e4","KL2012_e4_1",0,4,1090,"Include",53
"KL2012_e4","KL2012_e4_1",1,2,1014,"Include",54
"KL2012_e4","KL2012_e4_1",1,2,896,"Include",55
"KL2012_e4","KL2012_e4_1",1,1,1078,"Include",56
"KL2012_e4","KL2012_e4_1",1,5,1286,"Include",57
"KL2012_e4","KL2012_e4_1",0,1,957,"Include",58
"KL2012_e4","KL2012_e4_1",0,1,1112,"Include",59
"KL2012_e4","KL2012_e4_1",0,2,3512,"Include",60
"KL2012_e4","KL2012_e4_1",0,2,984,"Include",61
"KL2012_e4","KL2012_e4_1",1,4,1060,"Include",62
"KL2012_e4","KL2012_e4_1",1,6,1090,"Include",63
"KL2012_e4","KL2012_e4_1",1,2,1599,"Include",64
"KL2012_e4","KL2012_e4_1",1,6,1186,"Include",65
"KL2012_e4","KL2012_e4_1",1,5,1506,"Include",66
"KL2012_e4","KL2012_e4_1",1,2,1025,"Include",67
"KL2012_e4","KL2012_e4_1",1,2,945,"Include",68
"KL2012_e4","KL2012_e4_1",1,2,897,"Include",69
"KL2012_e4","KL2012_e4_1",0,3,1206,"Include",70
"KL2012_e4","KL2012_e4_1",0,4,2145,"Include",71
"KL2012_e4","KL2012_e4_1",0,1,917,"Include",72
"KL2012_e4","KL2012_e4_1",0,3,1112,"Include",73
"KL2012_e4","KL2012_e4_1",1,2,1072,"Include",74
"KL2012_e4","KL2012_e4_1",1,1,2879,"Include",75
"KL2012_e4","KL2012_e4_1",0,2,1113,"Include",76
"KL2012_e4","KL2012_e4_1",0,2,905,"Include",77
"KL2012_e4","KL2012_e4_1",1,6,1129,"Include",78
"KL2012_e4","KL2012_e4_1",1,2,1606,"Include",79
"KL2012_e4","KL2012_e4_1",1,1,949,"Include",80
"KL2012_e4","KL2012_e4_1",1,3,1126,"Include",81
"KL2012_e4","KL2012_e4_1",0,2,896,"Include",82
"KL2012_e4","KL2012_e4_1",0,2,1030,"Include",83
"KL2012_e4","KL2012_e4_1",1,2,1157,"Include",84
"KL2012_e4","KL2012_e4_1",0,2,904,"Include",85
"KL2012_e4","KL2012_e4_1",1,2,856,"Include",86
"KL2012_e4","KL2012_e4_1",1,3,1669,"Include",87
"KL2012_e4","KL2012_e4_1",1,2,1045,"Include",88
"KL2012_e4","KL2012_e4_1",0,2,695,"Include",89
"KL2012_e4","KL2012_e4_1",0,1,1164,"Include",90
"KL2012_e4","KL2012_e4_1",0,2,967,"Include",91
"KL2012_e4","KL2012_e4_1",1,4,1329,"Include",92
"KL2012_e4","KL2012_e4_1",0,1,1367,"Include",93
"KL2012_e4","KL2012_e4_1",0,4,1977,"Include",94
"KL2012_e4","KL2012_e4_1",1,5,1942,"Include",95
"KL2012_e4","KL2012_e4_1",1,3,1869,"Include",96
"KL2012_e4","KL2012_e4_10",0,1,5549,"Include",1
"KL2012_e4","KL2012_e4_10",1,1,3503,"Include",2
"KL2012_e4","KL2012_e4_10",1,5,4960,"Include",3
"KL2012_e4","KL2012_e4_10",1,5,2986,"Include",4
"KL2012_e4","KL2012_e4_10",1,6,1604,"Include",5
"KL2012_e4","KL2012_e4_10",1,2,4760,"Include",6
"KL2012_e4","KL2012_e4_10",1,5,3236,"Include",7
"KL2012_e4","KL2012_e4_10",0,2,3761,"Include",8
"KL2012_e4","KL2012_e4_10",1,2,2604,"Include",9
"KL2012_e4","KL2012_e4_10",1,2,1665,"Include",10
"KL2012_e4","KL2012_e4_10",0,2,1765,"Include",11
"KL2012_e4","KL2012_e4_10",0,2,1142,"Include",12
"KL2012_e4","KL2012_e4_10",1,4,3673,"Include",13
"KL2012_e4","KL2012_e4_10",0,4,1865,"Include",14
"KL2012_e4","KL2012_e4_10",1,2,1673,"Include",15
"KL2012_e4","KL2012_e4_10",1,5,2525,"Include",16
"KL2012_e4","KL2012_e4_10",1,5,2967,"Include",17
"KL2012_e4","KL2012_e4_10",1,2,3433,"Include",18
"KL2012_e4","KL2012_e4_10",0,1,2473,"Include",19
"KL2012_e4","KL2012_e4_10",1,2,2009,"Include",20
"KL2012_e4","KL2012_e4_10",0,2,1377,"Include",21
"KL2012_e4","KL2012_e4_10",0,2,1591,"Include",22
"KL2012_e4","KL2012_e4_10",0,2,1829,"Include",23
"KL2012_e4","KL2012_e4_10",0,2,1185,"Include",24
"KL2012_e4","KL2012_e4_10",1,5,1970,"Include",25
"KL2012_e4","KL2012_e4_10",1,2,1062,"Include",26
"KL2012_e4","KL2012_e4_10",1,2,1720,"Include",27
"KL2012_e4","KL2012_e4_10",0,2,1403,"Include",28
"KL2012_e4","KL2012_e4_10",0,2,3482,"Include",29
"KL2012_e4","KL2012_e4_10",0,5,1662,"Include",30
"KL2012_e4","KL2012_e4_10",0,1,1323,"Include",31
"KL2012_e4","KL2012_e4_10",0,1,1146,"Include",32
"KL2012_e4","KL2012_e4_10",1,1,1710,"Include",33
"KL2012_e4","KL2012_e4_10",0,1,707,"Include",34
"KL2012_e4","KL2012_e4_10",0,1,1055,"Include",35
"KL2012_e4","KL2012_e4_10",0,1,624,"Include",36
"KL2012_e4","KL2012_e4_10",0,1,1042,"Include",37
"KL2012_e4","KL2012_e4_10",0,1,1145,"Include",38
"KL2012_e4","KL2012_e4_10",1,1,2375,"Include",39
"KL2012_e4","KL2012_e4_10",0,1,858,"Include",40
"KL2012_e4","KL2012_e4_10",1,1,1005,"Include",41
"KL2012_e4","KL2012_e4_10",1,1,868,"Include",42
"KL2012_e4","KL2012_e4_10",0,1,941,"Include",43
"KL2012_e4","KL2012_e4_10",0,1,3625,"Include",44
"KL2012_e4","KL2012_e4_10",1,1,1051,"Include",45
"KL2012_e4","KL2012_e4_10",0,1,3536,"Include",46
"KL2012_e4","KL2012_e4_10",0,2,2809,"Include",47
"KL2012_e4","KL2012_e4_10",1,4,3756,"Include",48
"KL2012_e4","KL2012_e4_10",0,2,1496,"Include",49
"KL2012_e4","KL2012_e4_10",0,2,1705,"Include",50
"KL2012_e4","KL2012_e4_10",0,2,1279,"Include",51
"KL2012_e4","KL2012_e4_10",1,1,4127,"Include",52
"KL2012_e4","KL2012_e4_10",1,6,4347,"Include",53
"KL2012_e4","KL2012_e4_10",0,2,3646,"Include",54
"KL2012_e4","KL2012_e4_10",1,2,2481,"Include",55
"KL2012_e4","KL2012_e4_10",1,6,2924,"Include",56
"KL2012_e4","KL2012_e4_10",1,2,1022,"Include",57
"KL2012_e4","KL2012_e4_10",1,2,1388,"Include",58
"KL2012_e4","KL2012_e4_10",0,2,1096,"Include",59
"KL2012_e4","KL2012_e4_10",1,5,1516,"Include",60
"KL2012_e4","KL2012_e4_10",1,5,2280,"Include",61
"KL2012_e4","KL2012_e4_10",1,2,938,"Include",62
"KL2012_e4","KL2012_e4_10",0,5,1852,"Include",63
"KL2012_e4","KL2012_e4_10",1,5,2110,"Include",64
"KL2012_e4","KL2012_e4_10",1,2,1597,"Include",65
"KL2012_e4","KL2012_e4_10",0,2,1040,"Include",66
"KL2012_e4","KL2012_e4_10",1,2,783,"Include",67
"KL2012_e4","KL2012_e4_10",1,2,877,"Include",68
"KL2012_e4","KL2012_e4_10",1,2,3567,"Include",69
"KL2012_e4","KL2012_e4_10",1,2,1092,"Include",70
"KL2012_e4","KL2012_e4_10",0,2,2001,"Include",71
"KL2012_e4","KL2012_e4_10",0,5,2755,"Include",72
"KL2012_e4","KL2012_e4_10",0,2,781,"Include",73
"KL2012_e4","KL2012_e4_10",0,2,1026,"Include",74
"KL2012_e4","KL2012_e4_10",0,2,3285,"Include",75
"KL2012_e4","KL2012_e4_10",0,1,2215,"Include",76
"KL2012_e4","KL2012_e4_10",0,4,2464,"Include",77
"KL2012_e4","KL2012_e4_10",0,4,3502,"Include",78
"KL2012_e4","KL2012_e4_10",1,4,2316,"Include",79
"KL2012_e4","KL2012_e4_10",1,6,1855,"Include",80
"KL2012_e4","KL2012_e4_10",1,2,2214,"Include",81
"KL2012_e4","KL2012_e4_10",0,2,1430,"Include",82
"KL2012_e4","KL2012_e4_10",1,2,825,"Include",83
"KL2012_e4","KL2012_e4_10",0,2,1937,"Include",84
"KL2012_e4","KL2012_e4_10",0,2,1222,"Include",85
"KL2012_e4","KL2012_e4_10",0,1,3377,"Include",86
"KL2012_e4","KL2012_e4_10",0,1,1471,"Include",87
"KL2012_e4","KL2012_e4_10",1,1,698,"Include",88
"KL2012_e4","KL2012_e4_10",1,5,4415,"Include",89
"KL2012_e4","KL2012_e4_10",1,4,1814,"Include",90
"KL2012_e4","KL2012_e4_10",0,4,1317,"Include",91
"KL2012_e4","KL2012_e4_10",1,6,1974,"Include",92
"KL2012_e4","KL2012_e4_10",1,6,1824,"Include",93
"KL2012_e4","KL2012_e4_10",0,1,1604,"Include",94
"KL2012_e4","KL2012_e4_10",0,1,3012,"Include",95
"KL2012_e4","KL2012_e4_10",1,1,1210,"Include",96
"KL2012_e4","KL2012_e4_11",1,3,9743,"Include",1
"KL2012_e4","KL2012_e4_11",1,4,3118,"Include",2
"KL2012_e4","KL2012_e4_11",1,6,2921,"Include",3
"KL2012_e4","KL2012_e4_11",0,3,2211,"Include",4
"KL2012_e4","KL2012_e4_11",0,3,1472,"Include",5
"KL2012_e4","KL2012_e4_11",1,4,1536,"Include",6
"KL2012_e4","KL2012_e4_11",0,4,1236,"Include",7
"KL2012_e4","KL2012_e4_11",0,3,1740,"Include",8
"KL2012_e4","KL2012_e4_11",1,5,1641,"Include",9
"KL2012_e4","KL2012_e4_11",0,3,1459,"Include",10
"KL2012_e4","KL2012_e4_11",0,3,1446,"Include",11
"KL2012_e4","KL2012_e4_11",1,3,2000,"Include",12
"KL2012_e4","KL2012_e4_11",1,5,1627,"Include",13
"KL2012_e4","KL2012_e4_11",1,3,1088,"Include",14
"KL2012_e4","KL2012_e4_11",1,6,3237,"Include",15
"KL2012_e4","KL2012_e4_11",1,4,1983,"Include",16
"KL2012_e4","KL2012_e4_11",0,3,2047,"Include",17
"KL2012_e4","KL2012_e4_11",1,6,1449,"Include",18
"KL2012_e4","KL2012_e4_11",1,4,2116,"Include",19
"KL2012_e4","KL2012_e4_11",1,4,1910,"Include",20
"KL2012_e4","KL2012_e4_11",0,4,3070,"Include",21
"KL2012_e4","KL2012_e4_11",1,4,1470,"Include",22
"KL2012_e4","KL2012_e4_11",0,3,794,"Include",23
"KL2012_e4","KL2012_e4_11",1,4,1260,"Include",24
"KL2012_e4","KL2012_e4_11",1,4,964,"Include",25
"KL2012_e4","KL2012_e4_11",1,3,1135,"Include",26
"KL2012_e4","KL2012_e4_11",0,3,764,"Include",27
"KL2012_e4","KL2012_e4_11",1,4,1838,"Include",28
"KL2012_e4","KL2012_e4_11",1,2,2097,"Include",29
"KL2012_e4","KL2012_e4_11",1,4,2750,"Include",30
"KL2012_e4","KL2012_e4_11",1,3,1250,"Include",31
"KL2012_e4","KL2012_e4_11",1,4,2144,"Include",32
"KL2012_e4","KL2012_e4_11",0,3,736,"Include",33
"KL2012_e4","KL2012_e4_11",0,4,1045,"Include",34
"KL2012_e4","KL2012_e4_11",1,4,757,"Include",35
"KL2012_e4","KL2012_e4_11",1,3,1455,"Include",36
"KL2012_e4","KL2012_e4_11",1,3,1154,"Include",37
"KL2012_e4","KL2012_e4_11",1,3,4114,"Include",38
"KL2012_e4","KL2012_e4_11",1,3,1073,"Include",39
"KL2012_e4","KL2012_e4_11",1,4,2489,"Include",40
"KL2012_e4","KL2012_e4_11",0,3,1365,"Include",41
"KL2012_e4","KL2012_e4_11",0,3,1548,"Include",42
"KL2012_e4","KL2012_e4_11",0,3,1429,"Include",43
"KL2012_e4","KL2012_e4_11",1,4,1101,"Include",44
"KL2012_e4","KL2012_e4_11",0,2,1962,"Include",45
"KL2012_e4","KL2012_e4_11",1,2,1908,"Include",46
"KL2012_e4","KL2012_e4_11",1,4,684,"Include",47
"KL2012_e4","KL2012_e4_11",1,4,6110,"Include",48
"KL2012_e4","KL2012_e4_11",1,3,782,"Include",49
"KL2012_e4","KL2012_e4_11",1,3,1806,"Include",50
"KL2012_e4","KL2012_e4_11",1,2,1720,"Include",51
"KL2012_e4","KL2012_e4_11",0,2,1000,"Include",52
"KL2012_e4","KL2012_e4_11",1,6,1642,"Include",53
"KL2012_e4","KL2012_e4_11",0,3,2093,"Include",54
"KL2012_e4","KL2012_e4_11",0,4,3450,"Include",55
"KL2012_e4","KL2012_e4_11",0,4,1119,"Include",56
"KL2012_e4","KL2012_e4_11",0,3,1216,"Include",57
"KL2012_e4","KL2012_e4_11",1,6,3290,"Include",58
"KL2012_e4","KL2012_e4_11",1,5,3728,"Include",59
"KL2012_e4","KL2012_e4_11",0,3,2949,"Include",60
"KL2012_e4","KL2012_e4_11",1,3,1748,"Include",61
"KL2012_e4","KL2012_e4_11",1,5,3052,"Include",62
"KL2012_e4","KL2012_e4_11",1,6,1449,"Include",63
"KL2012_e4","KL2012_e4_11",0,4,1326,"Include",64
"KL2012_e4","KL2012_e4_11",0,3,1936,"Include",65
"KL2012_e4","KL2012_e4_11",0,5,1542,"Include",66
"KL2012_e4","KL2012_e4_11",0,6,3090,"Include",67
"KL2012_e4","KL2012_e4_11",0,3,1272,"Include",68
"KL2012_e4","KL2012_e4_11",0,3,2912,"Include",69
"KL2012_e4","KL2012_e4_11",0,5,2014,"Include",70
"KL2012_e4","KL2012_e4_11",0,5,1915,"Include",71
"KL2012_e4","KL2012_e4_11",0,3,2606,"Include",72
"KL2012_e4","KL2012_e4_11",0,3,3568,"Include",73
"KL2012_e4","KL2012_e4_11",0,4,1917,"Include",74
"KL2012_e4","KL2012_e4_11",0,3,1292,"Include",75
"KL2012_e4","KL2012_e4_11",0,4,1410,"Include",76
"KL2012_e4","KL2012_e4_11",0,3,1767,"Include",77
"KL2012_e4","KL2012_e4_11",0,3,1460,"Include",78
"KL2012_e4","KL2012_e4_11",1,4,1617,"Include",79
"KL2012_e4","KL2012_e4_11",0,3,1043,"Include",80
"KL2012_e4","KL2012_e4_11",0,3,982,"Include",81
"KL2012_e4","KL2012_e4_11",1,3,758,"Include",82
"KL2012_e4","KL2012_e4_11",0,3,937,"Include",83
"KL2012_e4","KL2012_e4_11",0,4,1110,"Include",84
"KL2012_e4","KL2012_e4_11",1,3,4422,"Include",85
"KL2012_e4","KL2012_e4_11",0,3,1084,"Include",86
"KL2012_e4","KL2012_e4_11",1,3,2111,"Include",87
"KL2012_e4","KL2012_e4_11",0,3,1468,"Include",88
"KL2012_e4","KL2012_e4_11",0,3,3156,"Include",89
"KL2012_e4","KL2012_e4_11",1,6,2934,"Include",90
"KL2012_e4","KL2012_e4_11",1,3,1675,"Include",91
"KL2012_e4","KL2012_e4_11",1,6,1237,"Include",92
"KL2012_e4","KL2012_e4_11",0,4,1496,"Include",93
"KL2012_e4","KL2012_e4_11",0,4,3397,"Include",94
"KL2012_e4","KL2012_e4_11",0,3,1207,"Include",95
"KL2012_e4","KL2012_e4_11",0,3,786,"Include",96
"KL2012_e4","KL2012_e4_12",1,5,8454,"Include",1
"KL2012_e4","KL2012_e4_12",1,5,7368,"Include",2
"KL2012_e4","KL2012_e4_12",1,6,1892,"Include",3
"KL2012_e4","KL2012_e4_12",1,6,1016,"Include",4
"KL2012_e4","KL2012_e4_12",0,1,2256,"Include",5
"KL2012_e4","KL2012_e4_12",0,3,2795,"Include",6
"KL2012_e4","KL2012_e4_12",1,5,2662,"Include",7
"KL2012_e4","KL2012_e4_12",0,1,1724,"Include",8
"KL2012_e4","KL2012_e4_12",0,1,1385,"Include",9
"KL2012_e4","KL2012_e4_12",0,1,1449,"Include",10
"KL2012_e4","KL2012_e4_12",0,3,2989,"Include",11
"KL2012_e4","KL2012_e4_12",1,6,1851,"Include",12
"KL2012_e4","KL2012_e4_12",1,6,1136,"Include",13
"KL2012_e4","KL2012_e4_12",0,1,3613,"Include",14
"KL2012_e4","KL2012_e4_12",0,2,3009,"Include",15
"KL2012_e4","KL2012_e4_12",0,2,1573,"Include",16
"KL2012_e4","KL2012_e4_12",0,3,2074,"Include",17
"KL2012_e4","KL2012_e4_12",1,6,1420,"Include",18
"KL2012_e4","KL2012_e4_12",0,4,2659,"Include",19
"KL2012_e4","KL2012_e4_12",0,2,2594,"Include",20
"KL2012_e4","KL2012_e4_12",0,2,1500,"Include",21
"KL2012_e4","KL2012_e4_12",0,2,1340,"Include",22
"KL2012_e4","KL2012_e4_12",1,6,1322,"Include",23
"KL2012_e4","KL2012_e4_12",1,6,1357,"Include",24
"KL2012_e4","KL2012_e4_12",1,6,935,"Include",25
"KL2012_e4","KL2012_e4_12",1,6,1107,"Include",26
"KL2012_e4","KL2012_e4_12",1,6,979,"Include",27
"KL2012_e4","KL2012_e4_12",1,6,963,"Include",28
"KL2012_e4","KL2012_e4_12",1,6,917,"Include",29
"KL2012_e4","KL2012_e4_12",1,6,1639,"Include",30
"KL2012_e4","KL2012_e4_12",0,3,1753,"Include",31
"KL2012_e4","KL2012_e4_12",0,5,3002,"Include",32
"KL2012_e4","KL2012_e4_12",0,2,1804,"Include",33
"KL2012_e4","KL2012_e4_12",0,4,3480,"Include",34
"KL2012_e4","KL2012_e4_12",0,3,1595,"Include",35
"KL2012_e4","KL2012_e4_12",0,2,1580,"Include",36
"KL2012_e4","KL2012_e4_12",0,2,2572,"Include",37
"KL2012_e4","KL2012_e4_12",1,6,1591,"Include",38
"KL2012_e4","KL2012_e4_12",0,3,2394,"Include",39
"KL2012_e4","KL2012_e4_12",1,6,1163,"Include",40
"KL2012_e4","KL2012_e4_12",1,6,1445,"Include",41
"KL2012_e4","KL2012_e4_12",1,4,2138,"Include",42
"KL2012_e4","KL2012_e4_12",1,6,1041,"Include",43
"KL2012_e4","KL2012_e4_12",1,6,1636,"Include",44
"KL2012_e4","KL2012_e4_12",0,3,1845,"Include",45
"KL2012_e4","KL2012_e4_12",1,6,1498,"Include",46
"KL2012_e4","KL2012_e4_12",0,3,3673,"Include",47
"KL2012_e4","KL2012_e4_12",0,2,2835,"Include",48
"KL2012_e4","KL2012_e4_12",0,2,1404,"Include",49
"KL2012_e4","KL2012_e4_12",0,2,1537,"Include",50
"KL2012_e4","KL2012_e4_12",1,6,1110,"Include",51
"KL2012_e4","KL2012_e4_12",0,2,4653,"Include",52
"KL2012_e4","KL2012_e4_12",0,2,1208,"Include",53
"KL2012_e4","KL2012_e4_12",1,6,1405,"Include",54
"KL2012_e4","KL2012_e4_12",0,2,2033,"Include",55
"KL2012_e4","KL2012_e4_12",1,6,1388,"Include",56
"KL2012_e4","KL2012_e4_12",1,5,3282,"Include",57
"KL2012_e4","KL2012_e4_12",1,2,1461,"Include",58
"KL2012_e4","KL2012_e4_12",0,4,2571,"Include",59
"KL2012_e4","KL2012_e4_12",1,3,4200,"Include",60
"KL2012_e4","KL2012_e4_12",1,4,2617,"Include",61
"KL2012_e4","KL2012_e4_12",0,4,3717,"Include",62
"KL2012_e4","KL2012_e4_12",1,6,1623,"Include",63
"KL2012_e4","KL2012_e4_12",1,6,1118,"Include",64
"KL2012_e4","KL2012_e4_12",0,2,2744,"Include",65
"KL2012_e4","KL2012_e4_12",0,5,2303,"Include",66
"KL2012_e4","KL2012_e4_12",0,2,1910,"Include",67
"KL2012_e4","KL2012_e4_12",0,1,3032,"Include",68
"KL2012_e4","KL2012_e4_12",1,6,1250,"Include",69
"KL2012_e4","KL2012_e4_12",1,6,983,"Include",70
"KL2012_e4","KL2012_e4_12",0,4,2374,"Include",71
"KL2012_e4","KL2012_e4_12",1,6,1442,"Include",72
"KL2012_e4","KL2012_e4_12",1,6,749,"Include",73
"KL2012_e4","KL2012_e4_12",1,6,1012,"Include",74
"KL2012_e4","KL2012_e4_12",0,3,2113,"Include",75
"KL2012_e4","KL2012_e4_12",0,4,1898,"Include",76
"KL2012_e4","KL2012_e4_12",1,6,938,"Include",77
"KL2012_e4","KL2012_e4_12",0,1,1553,"Include",78
"KL2012_e4","KL2012_e4_12",0,3,1867,"Include",79
"KL2012_e4","KL2012_e4_12",0,5,2218,"Include",80
"KL2012_e4","KL2012_e4_12",0,4,3105,"Include",81
"KL2012_e4","KL2012_e4_12",1,4,2624,"Include",82
"KL2012_e4","KL2012_e4_12",1,6,1367,"Include",83
"KL2012_e4","KL2012_e4_12",1,6,820,"Include",84
"KL2012_e4","KL2012_e4_12",1,6,612,"Include",85
"KL2012_e4","KL2012_e4_12",1,6,1272,"Include",86
"KL2012_e4","KL2012_e4_12",0,2,2227,"Include",87
"KL2012_e4","KL2012_e4_12",1,6,1010,"Include",88
"KL2012_e4","KL2012_e4_12",1,6,806,"Include",89
"KL2012_e4","KL2012_e4_12",0,3,3011,"Include",90
"KL2012_e4","KL2012_e4_12",1,6,999,"Include",91
"KL2012_e4","KL2012_e4_12",1,6,1058,"Include",92
"KL2012_e4","KL2012_e4_12",0,2,1721,"Include",93
"KL2012_e4","KL2012_e4_12",0,2,1563,"Include",94
"KL2012_e4","KL2012_e4_12",0,3,2149,"Include",95
"KL2012_e4","KL2012_e4_12",1,4,1804,"Include",96
"KL2012_e4","KL2012_e4_13",1,1,6506,"Include",1
"KL2012_e4","KL2012_e4_13",0,2,3179,"Include",2
"KL2012_e4","KL2012_e4_13",1,6,3300,"Include",3
"KL2012_e4","KL2012_e4_13",0,6,1253,"Include",4
"KL2012_e4","KL2012_e4_13",1,6,643,"Include",5
"KL2012_e4","KL2012_e4_13",1,6,624,"Include",6
"KL2012_e4","KL2012_e4_13",1,4,3699,"Include",7
"KL2012_e4","KL2012_e4_13",1,6,1049,"Include",8
"KL2012_e4","KL2012_e4_13",1,6,811,"Include",9
"KL2012_e4","KL2012_e4_13",0,1,2281,"Include",10
"KL2012_e4","KL2012_e4_13",0,1,3736,"Include",11
"KL2012_e4","KL2012_e4_13",1,5,2324,"Include",12
"KL2012_e4","KL2012_e4_13",0,2,1812,"Include",13
"KL2012_e4","KL2012_e4_13",1,6,938,"Include",14
"KL2012_e4","KL2012_e4_13",1,6,1588,"Include",15
"KL2012_e4","KL2012_e4_13",1,6,635,"Include",16
"KL2012_e4","KL2012_e4_13",0,2,1696,"Include",17
"KL2012_e4","KL2012_e4_13",0,2,1479,"Include",18
"KL2012_e4","KL2012_e4_13",1,6,1548,"Include",19
"KL2012_e4","KL2012_e4_13",0,6,1643,"Include",20
"KL2012_e4","KL2012_e4_13",1,6,1047,"Include",21
"KL2012_e4","KL2012_e4_13",0,3,2519,"Include",22
"KL2012_e4","KL2012_e4_13",0,2,3118,"Include",23
"KL2012_e4","KL2012_e4_13",0,6,1611,"Include",24
"KL2012_e4","KL2012_e4_13",1,6,909,"Include",25
"KL2012_e4","KL2012_e4_13",0,3,2060,"Include",26
"KL2012_e4","KL2012_e4_13",0,1,1627,"Include",27
"KL2012_e4","KL2012_e4_13",0,1,975,"Include",28
"KL2012_e4","KL2012_e4_13",1,6,1089,"Include",29
"KL2012_e4","KL2012_e4_13",0,5,3249,"Include",30
"KL2012_e4","KL2012_e4_13",0,6,2222,"Include",31
"KL2012_e4","KL2012_e4_13",1,6,777,"Include",32
"KL2012_e4","KL2012_e4_13",1,6,2022,"Include",33
"KL2012_e4","KL2012_e4_13",1,6,572,"Include",34
"KL2012_e4","KL2012_e4_13",0,4,2566,"Include",35
"KL2012_e4","KL2012_e4_13",1,6,3031,"Include",36
"KL2012_e4","KL2012_e4_13",0,4,3620,"Include",37
"KL2012_e4","KL2012_e4_13",0,1,1782,"Include",38
"KL2012_e4","KL2012_e4_13",0,1,2262,"Include",39
"KL2012_e4","KL2012_e4_13",0,1,3410,"Include",40
"KL2012_e4","KL2012_e4_13",1,6,1839,"Include",41
"KL2012_e4","KL2012_e4_13",1,6,541,"Include",42
"KL2012_e4","KL2012_e4_13",0,6,1289,"Include",43
"KL2012_e4","KL2012_e4_13",0,2,2500,"Include",44
"KL2012_e4","KL2012_e4_13",1,1,2394,"Include",45
"KL2012_e4","KL2012_e4_13",1,6,1072,"Include",46
"KL2012_e4","KL2012_e4_13",0,3,1975,"Include",47
"KL2012_e4","KL2012_e4_13",0,4,4495,"Include",48
"KL2012_e4","KL2012_e4_13",1,4,3778,"Include",49
"KL2012_e4","KL2012_e4_13",1,6,1252,"Include",50
"KL2012_e4","KL2012_e4_13",1,5,4265,"Include",51
"KL2012_e4","KL2012_e4_13",0,1,1681,"Include",52
"KL2012_e4","KL2012_e4_13",0,2,1174,"Include",53
"KL2012_e4","KL2012_e4_13",0,1,1671,"Include",54
"KL2012_e4","KL2012_e4_13",0,1,3233,"Include",55
"KL2012_e4","KL2012_e4_13",1,6,1630,"Include",56
"KL2012_e4","KL2012_e4_13",0,4,7120,"Include",57
"KL2012_e4","KL2012_e4_13",1,6,4585,"Include",58
"KL2012_e4","KL2012_e4_13",1,6,1422,"Include",59
"KL2012_e4","KL2012_e4_13",0,6,1352,"Include",60
"KL2012_e4","KL2012_e4_13",1,4,3196,"Include",61
"KL2012_e4","KL2012_e4_13",0,1,1627,"Include",62
"KL2012_e4","KL2012_e4_13",1,1,3694,"Include",63
"KL2012_e4","KL2012_e4_13",0,1,2049,"Include",64
"KL2012_e4","KL2012_e4_13",1,1,2610,"Include",65
"KL2012_e4","KL2012_e4_13",1,4,2699,"Include",66
"KL2012_e4","KL2012_e4_13",0,6,3038,"Include",67
"KL2012_e4","KL2012_e4_13",0,4,2799,"Include",68
"KL2012_e4","KL2012_e4_13",0,4,2109,"Include",69
"KL2012_e4","KL2012_e4_13",0,1,5247,"Include",70
"KL2012_e4","KL2012_e4_13",0,1,3837,"Include",71
"KL2012_e4","KL2012_e4_13",0,1,733,"Include",72
"KL2012_e4","KL2012_e4_13",0,1,2320,"Include",73
"KL2012_e4","KL2012_e4_13",1,6,1870,"Include",74
"KL2012_e4","KL2012_e4_13",1,6,637,"Include",75
"KL2012_e4","KL2012_e4_13",0,4,2100,"Include",76
"KL2012_e4","KL2012_e4_13",1,6,1965,"Include",77
"KL2012_e4","KL2012_e4_13",0,3,2009,"Include",78
"KL2012_e4","KL2012_e4_13",1,5,5525,"Include",79
"KL2012_e4","KL2012_e4_13",1,6,1451,"Include",80
"KL2012_e4","KL2012_e4_13",1,6,2815,"Include",81
"KL2012_e4","KL2012_e4_13",1,4,3676,"Include",82
"KL2012_e4","KL2012_e4_13",0,1,1470,"Include",83
"KL2012_e4","KL2012_e4_13",0,1,1224,"Include",84
"KL2012_e4","KL2012_e4_13",0,1,1057,"Include",85
"KL2012_e4","KL2012_e4_13",0,1,2121,"Include",86
"KL2012_e4","KL2012_e4_13",1,6,1475,"Include",87
"KL2012_e4","KL2012_e4_13",1,6,1096,"Include",88
"KL2012_e4","KL2012_e4_13",1,6,641,"Include",89
"KL2012_e4","KL2012_e4_13",1,6,1579,"Include",90
"KL2012_e4","KL2012_e4_13",1,6,1179,"Include",91
"KL2012_e4","KL2012_e4_13",1,6,1311,"Include",92
"KL2012_e4","KL2012_e4_13",0,1,1317,"Include",93
"KL2012_e4","KL2012_e4_13",1,1,1440,"Include",94
"KL2012_e4","KL2012_e4_13",0,6,1744,"Include",95
"KL2012_e4","KL2012_e4_13",1,4,2620,"Include",96
"KL2012_e4","KL2012_e4_14",1,2,4509,"Include",1
"KL2012_e4","KL2012_e4_14",0,3,4700,"Include",2
"KL2012_e4","KL2012_e4_14",0,2,2849,"Include",3
"KL2012_e4","KL2012_e4_14",0,2,2414,"Include",4
"KL2012_e4","KL2012_e4_14",1,4,2715,"Include",5
"KL2012_e4","KL2012_e4_14",0,4,1229,"Include",6
"KL2012_e4","KL2012_e4_14",1,4,2645,"Include",7
"KL2012_e4","KL2012_e4_14",1,3,1775,"Include",8
"KL2012_e4","KL2012_e4_14",1,3,2428,"Include",9
"KL2012_e4","KL2012_e4_14",0,3,2340,"Include",10
"KL2012_e4","KL2012_e4_14",1,4,1561,"Include",11
"KL2012_e4","KL2012_e4_14",0,5,3003,"Include",12
"KL2012_e4","KL2012_e4_14",0,4,3638,"Include",13
"KL2012_e4","KL2012_e4_14",0,4,1688,"Include",14
"KL2012_e4","KL2012_e4_14",0,2,3673,"Include",15
"KL2012_e4","KL2012_e4_14",1,4,2593,"Include",16
"KL2012_e4","KL2012_e4_14",0,3,3294,"Include",17
"KL2012_e4","KL2012_e4_14",0,3,5571,"Include",18
"KL2012_e4","KL2012_e4_14",1,4,2623,"Include",19
"KL2012_e4","KL2012_e4_14",0,4,2319,"Include",20
"KL2012_e4","KL2012_e4_14",1,4,6713,"Include",21
"KL2012_e4","KL2012_e4_14",0,4,2753,"Include",22
"KL2012_e4","KL2012_e4_14",1,4,2864,"Include",23
"KL2012_e4","KL2012_e4_14",1,4,5624,"Include",24
"KL2012_e4","KL2012_e4_14",1,3,2759,"Include",25
"KL2012_e4","KL2012_e4_14",0,3,3446,"Include",26
"KL2012_e4","KL2012_e4_14",1,5,2049,"Include",27
"KL2012_e4","KL2012_e4_14",1,6,2110,"Include",28
"KL2012_e4","KL2012_e4_14",1,4,1566,"Include",29
"KL2012_e4","KL2012_e4_14",0,4,1376,"Include",30
"KL2012_e4","KL2012_e4_14",1,5,2037,"Include",31
"KL2012_e4","KL2012_e4_14",0,4,1183,"Include",32
"KL2012_e4","KL2012_e4_14",1,4,2423,"Include",33
"KL2012_e4","KL2012_e4_14",1,3,1910,"Include",34
"KL2012_e4","KL2012_e4_14",1,6,2486,"Include",35
"KL2012_e4","KL2012_e4_14",0,4,1624,"Include",36
"KL2012_e4","KL2012_e4_14",1,4,1112,"Include",37
"KL2012_e4","KL2012_e4_14",0,3,2232,"Include",38
"KL2012_e4","KL2012_e4_14",0,3,2032,"Include",39
"KL2012_e4","KL2012_e4_14",1,6,2871,"Include",40
"KL2012_e4","KL2012_e4_14",1,4,1567,"Include",41
"KL2012_e4","KL2012_e4_14",1,3,1209,"Include",42
"KL2012_e4","KL2012_e4_14",1,3,2559,"Include",43
"KL2012_e4","KL2012_e4_14",1,3,1009,"Include",44
"KL2012_e4","KL2012_e4_14",0,2,2110,"Include",45
"KL2012_e4","KL2012_e4_14",1,5,2430,"Include",46
"KL2012_e4","KL2012_e4_14",0,5,4005,"Include",47
"KL2012_e4","KL2012_e4_14",0,4,2477,"Include",48
"KL2012_e4","KL2012_e4_14",0,2,3063,"Include",49
"KL2012_e4","KL2012_e4_14",0,4,5295,"Include",50
"KL2012_e4","KL2012_e4_14",0,4,1460,"Include",51
"KL2012_e4","KL2012_e4_14",0,3,1617,"Include",52
"KL2012_e4","KL2012_e4_14",0,3,1469,"Include",53
"KL2012_e4","KL2012_e4_14",1,5,1962,"Include",54
"KL2012_e4","KL2012_e4_14",1,6,1116,"Include",55
"KL2012_e4","KL2012_e4_14",0,5,1735,"Include",56
"KL2012_e4","KL2012_e4_14",0,5,1452,"Include",57
"KL2012_e4","KL2012_e4_14",1,4,1057,"Include",58
"KL2012_e4","KL2012_e4_14",0,3,1262,"Include",59
"KL2012_e4","KL2012_e4_14",1,4,4390,"Include",60
"KL2012_e4","KL2012_e4_14",1,4,933,"Include",61
"KL2012_e4","KL2012_e4_14",0,4,3443,"Include",62
"KL2012_e4","KL2012_e4_14",0,4,3037,"Include",63
"KL2012_e4","KL2012_e4_14",1,6,2295,"Include",64
"KL2012_e4","KL2012_e4_14",0,5,5492,"Include",65
"KL2012_e4","KL2012_e4_14",1,5,1201,"Include",66
"KL2012_e4","KL2012_e4_14",0,5,1035,"Include",67
"KL2012_e4","KL2012_e4_14",0,4,1350,"Include",68
"KL2012_e4","KL2012_e4_14",0,5,1091,"Include",69
"KL2012_e4","KL2012_e4_14",1,4,3144,"Include",70
"KL2012_e4","KL2012_e4_14",1,5,2456,"Include",71
"KL2012_e4","KL2012_e4_14",0,4,2261,"Include",72
"KL2012_e4","KL2012_e4_14",0,3,2418,"Include",73
"KL2012_e4","KL2012_e4_14",1,6,2447,"Include",74
"KL2012_e4","KL2012_e4_14",1,6,849,"Include",75
"KL2012_e4","KL2012_e4_14",1,6,1094,"Include",76
"KL2012_e4","KL2012_e4_14",1,4,4618,"Include",77
"KL2012_e4","KL2012_e4_14",1,4,1119,"Include",78
"KL2012_e4","KL2012_e4_14",0,4,1158,"Include",79
"KL2012_e4","KL2012_e4_14",0,4,1473,"Include",80
"KL2012_e4","KL2012_e4_14",1,5,2553,"Include",81
"KL2012_e4","KL2012_e4_14",0,3,1169,"Include",82
"KL2012_e4","KL2012_e4_14",0,3,1702,"Include",83
"KL2012_e4","KL2012_e4_14",1,4,1718,"Include",84
"KL2012_e4","KL2012_e4_14",1,6,1624,"Include",85
"KL2012_e4","KL2012_e4_14",0,4,2112,"Include",86
"KL2012_e4","KL2012_e4_14",1,6,2400,"Include",87
"KL2012_e4","KL2012_e4_14",1,6,1018,"Include",88
"KL2012_e4","KL2012_e4_14",1,6,735,"Include",89
"KL2012_e4","KL2012_e4_14",0,4,4780,"Include",90
"KL2012_e4","KL2012_e4_14",0,4,1081,"Include",91
"KL2012_e4","KL2012_e4_14",0,4,2361,"Include",92
"KL2012_e4","KL2012_e4_14",0,3,1475,"Include",93
"KL2012_e4","KL2012_e4_14",1,3,2734,"Include",94
"KL2012_e4","KL2012_e4_14",0,3,1795,"Include",95
"KL2012_e4","KL2012_e4_14",1,4,1738,"Include",96
"KL2012_e4","KL2012_e4_15",1,6,4090,"Include",1
"KL2012_e4","KL2012_e4_15",1,6,1486,"Include",2
"KL2012_e4","KL2012_e4_15",1,6,1275,"Include",3
"KL2012_e4","KL2012_e4_15",1,6,1645,"Include",4
"KL2012_e4","KL2012_e4_15",1,6,865,"Include",5
"KL2012_e4","KL2012_e4_15",0,2,2153,"Include",6
"KL2012_e4","KL2012_e4_15",0,1,1139,"Include",7
"KL2012_e4","KL2012_e4_15",0,4,2602,"Include",8
"KL2012_e4","KL2012_e4_15",1,6,1372,"Include",9
"KL2012_e4","KL2012_e4_15",1,2,1712,"Include",10
"KL2012_e4","KL2012_e4_15",0,1,2083,"Include",11
"KL2012_e4","KL2012_e4_15",1,6,1220,"Include",12
"KL2012_e4","KL2012_e4_15",0,2,1580,"Include",13
"KL2012_e4","KL2012_e4_15",1,5,2706,"Include",14
"KL2012_e4","KL2012_e4_15",1,2,2514,"Include",15
"KL2012_e4","KL2012_e4_15",0,1,2651,"Include",16
"KL2012_e4","KL2012_e4_15",0,1,1728,"Include",17
"KL2012_e4","KL2012_e4_15",0,3,2020,"Include",18
"KL2012_e4","KL2012_e4_15",0,4,1980,"Include",19
"KL2012_e4","KL2012_e4_15",1,6,947,"Include",20
"KL2012_e4","KL2012_e4_15",0,2,1426,"Include",21
"KL2012_e4","KL2012_e4_15",1,6,2266,"Include",22
"KL2012_e4","KL2012_e4_15",0,1,1432,"Include",23
"KL2012_e4","KL2012_e4_15",1,2,3491,"Include",24
"KL2012_e4","KL2012_e4_15",1,5,1862,"Include",25
"KL2012_e4","KL2012_e4_15",0,2,1302,"Include",26
"KL2012_e4","KL2012_e4_15",1,1,1949,"Include",27
"KL2012_e4","KL2012_e4_15",1,6,2076,"Include",28
"KL2012_e4","KL2012_e4_15",0,2,1335,"Include",29
"KL2012_e4","KL2012_e4_15",0,1,883,"Include",30
"KL2012_e4","KL2012_e4_15",0,2,1245,"Include",31
"KL2012_e4","KL2012_e4_15",1,6,1130,"Include",32
"KL2012_e4","KL2012_e4_15",1,6,791,"Include",33
"KL2012_e4","KL2012_e4_15",0,1,3254,"Include",34
"KL2012_e4","KL2012_e4_15",1,6,819,"Include",35
"KL2012_e4","KL2012_e4_15",1,6,674,"Include",36
"KL2012_e4","KL2012_e4_15",1,6,804,"Include",37
"KL2012_e4","KL2012_e4_15",1,6,743,"Include",38
"KL2012_e4","KL2012_e4_15",0,6,1175,"Include",39
"KL2012_e4","KL2012_e4_15",0,1,2043,"Include",40
"KL2012_e4","KL2012_e4_15",1,2,1565,"Include",41
"KL2012_e4","KL2012_e4_15",0,2,1737,"Include",42
"KL2012_e4","KL2012_e4_15",1,6,1046,"Include",43
"KL2012_e4","KL2012_e4_15",0,2,1579,"Include",44
"KL2012_e4","KL2012_e4_15",1,2,1570,"Include",45
"KL2012_e4","KL2012_e4_15",1,6,1231,"Include",46
"KL2012_e4","KL2012_e4_15",1,2,2552,"Include",47
"KL2012_e4","KL2012_e4_15",1,6,898,"Include",48
"KL2012_e4","KL2012_e4_15",1,6,962,"Include",49
"KL2012_e4","KL2012_e4_15",0,1,1300,"Include",50
"KL2012_e4","KL2012_e4_15",0,1,2979,"Include",51
"KL2012_e4","KL2012_e4_15",0,1,1290,"Include",52
"KL2012_e4","KL2012_e4_15",0,1,679,"Include",53
"KL2012_e4","KL2012_e4_15",0,1,945,"Include",54
"KL2012_e4","KL2012_e4_15",0,1,1217,"Include",55
"KL2012_e4","KL2012_e4_15",0,2,2437,"Include",56
"KL2012_e4","KL2012_e4_15",1,2,1608,"Include",57
"KL2012_e4","KL2012_e4_15",0,2,2260,"Include",58
"KL2012_e4","KL2012_e4_15",0,1,2291,"Include",59
"KL2012_e4","KL2012_e4_15",0,1,1703,"Include",60
"KL2012_e4","KL2012_e4_15",0,1,1095,"Include",61
"KL2012_e4","KL2012_e4_15",1,6,1028,"Include",62
"KL2012_e4","KL2012_e4_15",1,6,709,"Include",63
"KL2012_e4","KL2012_e4_15",1,6,586,"Include",64
"KL2012_e4","KL2012_e4_15",1,6,834,"Include",65
"KL2012_e4","KL2012_e4_15",0,6,1030,"Include",66
"KL2012_e4","KL2012_e4_15",0,1,1236,"Include",67
"KL2012_e4","KL2012_e4_15",0,1,702,"Include",68
"KL2012_e4","KL2012_e4_15",0,1,638,"Include",69
"KL2012_e4","KL2012_e4_15",0,1,704,"Include",70
"KL2012_e4","KL2012_e4_15",0,2,3879,"Include",71
"KL2012_e4","KL2012_e4_15",1,4,2600,"Include",72
"KL2012_e4","KL2012_e4_15",1,6,970,"Include",73
"KL2012_e4","KL2012_e4_15",0,2,3414,"Include",74
"KL2012_e4","KL2012_e4_15",0,2,1291,"Include",75
"KL2012_e4","KL2012_e4_15",1,6,1824,"Include",76
"KL2012_e4","KL2012_e4_15",1,6,631,"Include",77
"KL2012_e4","KL2012_e4_15",0,1,1575,"Include",78
"KL2012_e4","KL2012_e4_15",1,6,796,"Include",79
"KL2012_e4","KL2012_e4_15",1,6,1093,"Include",80
"KL2012_e4","KL2012_e4_15",1,6,594,"Include",81
"KL2012_e4","KL2012_e4_15",0,1,965,"Include",82
"KL2012_e4","KL2012_e4_15",0,2,1119,"Include",83
"KL2012_e4","KL2012_e4_15",0,1,1841,"Include",84
"KL2012_e4","KL2012_e4_15",0,1,1307,"Include",85
"KL2012_e4","KL2012_e4_15",0,1,643,"Include",86
"KL2012_e4","KL2012_e4_15",1,6,668,"Include",87
"KL2012_e4","KL2012_e4_15",1,6,692,"Include",88
"KL2012_e4","KL2012_e4_15",0,6,937,"Include",89
"KL2012_e4","KL2012_e4_15",1,6,598,"Include",90
"KL2012_e4","KL2012_e4_15",1,1,1000,"Include",91
"KL2012_e4","KL2012_e4_15",1,6,826,"Include",92
"KL2012_e4","KL2012_e4_15",1,6,746,"Include",93
"KL2012_e4","KL2012_e4_15",1,6,548,"Include",94
"KL2012_e4","KL2012_e4_15",0,1,3913,"Include",95
"KL2012_e4","KL2012_e4_15",0,1,4354,"Include",96
"KL2012_e4","KL2012_e4_16",0,5,7938,"Include",1
"KL2012_e4","KL2012_e4_16",0,2,7710,"Include",2
"KL2012_e4","KL2012_e4_16",1,6,4105,"Include",3
"KL2012_e4","KL2012_e4_16",1,6,4559,"Include",4
"KL2012_e4","KL2012_e4_16",0,2,3023,"Include",5
"KL2012_e4","KL2012_e4_16",1,6,2856,"Include",6
"KL2012_e4","KL2012_e4_16",1,1,4175,"Include",7
"KL2012_e4","KL2012_e4_16",1,6,6031,"Include",8
"KL2012_e4","KL2012_e4_16",1,1,2111,"Include",9
"KL2012_e4","KL2012_e4_16",1,2,4990,"Include",10
"KL2012_e4","KL2012_e4_16",1,6,1518,"Include",11
"KL2012_e4","KL2012_e4_16",1,6,1133,"Include",12
"KL2012_e4","KL2012_e4_16",1,6,972,"Include",13
"KL2012_e4","KL2012_e4_16",1,6,676,"Include",14
"KL2012_e4","KL2012_e4_16",1,6,686,"Include",15
"KL2012_e4","KL2012_e4_16",0,5,6080,"Include",16
"KL2012_e4","KL2012_e4_16",1,6,3747,"Include",17
"KL2012_e4","KL2012_e4_16",0,4,7561,"Include",18
"KL2012_e4","KL2012_e4_16",0,3,2763,"Include",19
"KL2012_e4","KL2012_e4_16",0,5,3349,"Include",20
"KL2012_e4","KL2012_e4_16",0,2,4562,"Include",21
"KL2012_e4","KL2012_e4_16",1,1,2104,"Include",22
"KL2012_e4","KL2012_e4_16",0,2,1694,"Include",23
"KL2012_e4","KL2012_e4_16",1,2,1711,"Include",24
"KL2012_e4","KL2012_e4_16",0,5,2923,"Include",25
"KL2012_e4","KL2012_e4_16",0,4,6649,"Include",26
"KL2012_e4","KL2012_e4_16",0,6,5934,"Include",27
"KL2012_e4","KL2012_e4_16",1,6,1358,"Include",28
"KL2012_e4","KL2012_e4_16",1,6,725,"Include",29
"KL2012_e4","KL2012_e4_16",0,3,1409,"Include",30
"KL2012_e4","KL2012_e4_16",1,3,2047,"Include",31
"KL2012_e4","KL2012_e4_16",0,3,1426,"Include",32
"KL2012_e4","KL2012_e4_16",0,2,5404,"Include",33
"KL2012_e4","KL2012_e4_16",1,1,1621,"Include",34
"KL2012_e4","KL2012_e4_16",0,3,1712,"Include",35
"KL2012_e4","KL2012_e4_16",1,5,2181,"Include",36
"KL2012_e4","KL2012_e4_16",0,1,2461,"Include",37
"KL2012_e4","KL2012_e4_16",1,6,1708,"Include",38
"KL2012_e4","KL2012_e4_16",1,4,3402,"Include",39
"KL2012_e4","KL2012_e4_16",0,1,1503,"Include",40
"KL2012_e4","KL2012_e4_16",1,6,1395,"Include",41
"KL2012_e4","KL2012_e4_16",1,6,806,"Include",42
"KL2012_e4","KL2012_e4_16",1,3,3693,"Include",43
"KL2012_e4","KL2012_e4_16",0,1,3147,"Include",44
"KL2012_e4","KL2012_e4_16",1,2,4528,"Include",45
"KL2012_e4","KL2012_e4_16",0,3,3393,"Include",46
"KL2012_e4","KL2012_e4_16",1,6,1942,"Include",47
"KL2012_e4","KL2012_e4_16",1,6,4636,"Include",48
"KL2012_e4","KL2012_e4_16",0,3,3063,"Include",49
"KL2012_e4","KL2012_e4_16",0,1,1616,"Include",50
"KL2012_e4","KL2012_e4_16",0,4,13658,"Include",51
"KL2012_e4","KL2012_e4_16",0,3,1949,"Include",52
"KL2012_e4","KL2012_e4_16",1,6,1569,"Include",53
"KL2012_e4","KL2012_e4_16",0,1,1587,"Include",54
"KL2012_e4","KL2012_e4_16",1,6,1129,"Include",55
"KL2012_e4","KL2012_e4_16",0,2,1291,"Include",56
"KL2012_e4","KL2012_e4_16",1,2,4020,"Include",57
"KL2012_e4","KL2012_e4_16",0,1,1279,"Include",58
"KL2012_e4","KL2012_e4_16",0,1,1429,"Include",59
"KL2012_e4","KL2012_e4_16",0,1,1024,"Include",60
"KL2012_e4","KL2012_e4_16",0,2,3576,"Include",61
"KL2012_e4","KL2012_e4_16",0,4,5067,"Include",62
"KL2012_e4","KL2012_e4_16",1,2,5249,"Include",63
"KL2012_e4","KL2012_e4_16",0,3,6154,"Include",64
"KL2012_e4","KL2012_e4_16",0,2,2843,"Include",65
"KL2012_e4","KL2012_e4_16",1,6,1679,"Include",66
"KL2012_e4","KL2012_e4_16",1,3,1123,"Include",67
"KL2012_e4","KL2012_e4_16",1,2,1714,"Include",68
"KL2012_e4","KL2012_e4_16",0,1,1196,"Include",69
"KL2012_e4","KL2012_e4_16",0,1,1131,"Include",70
"KL2012_e4","KL2012_e4_16",0,2,965,"Include",71
"KL2012_e4","KL2012_e4_16",1,3,2811,"Include",72
"KL2012_e4","KL2012_e4_16",1,6,1965,"Include",73
"KL2012_e4","KL2012_e4_16",1,1,2335,"Include",74
"KL2012_e4","KL2012_e4_16",0,2,1014,"Include",75
"KL2012_e4","KL2012_e4_16",0,2,3646,"Include",76
"KL2012_e4","KL2012_e4_16",1,6,1435,"Include",77
"KL2012_e4","KL2012_e4_16",1,3,1151,"Include",78
"KL2012_e4","KL2012_e4_16",1,2,832,"Include",79
"KL2012_e4","KL2012_e4_16",1,6,1277,"Include",80
"KL2012_e4","KL2012_e4_16",0,2,948,"Include",81
"KL2012_e4","KL2012_e4_16",1,6,974,"Include",82
"KL2012_e4","KL2012_e4_16",0,3,2307,"Include",83
"KL2012_e4","KL2012_e4_16",0,2,4796,"Include",84
"KL2012_e4","KL2012_e4_16",0,2,2331,"Include",85
"KL2012_e4","KL2012_e4_16",1,1,745,"Include",86
"KL2012_e4","KL2012_e4_16",0,2,1478,"Include",87
"KL2012_e4","KL2012_e4_16",0,3,995,"Include",88
"KL2012_e4","KL2012_e4_16",1,4,2607,"Include",89
"KL2012_e4","KL2012_e4_16",0,2,6259,"Include",90
"KL2012_e4","KL2012_e4_16",0,3,3324,"Include",91
"KL2012_e4","KL2012_e4_16",0,2,1174,"Include",92
"KL2012_e4","KL2012_e4_16",0,2,1086,"Include",93
"KL2012_e4","KL2012_e4_16",1,2,2630,"Include",94
"KL2012_e4","KL2012_e4_16",1,3,1367,"Include",95
"KL2012_e4","KL2012_e4_16",1,6,1324,"Include",96
"KL2012_e4","KL2012_e4_17",1,5,3103,"Include",1
"KL2012_e4","KL2012_e4_17",1,2,2454,"Include",2
"KL2012_e4","KL2012_e4_17",0,1,1050,"Include",3
"KL2012_e4","KL2012_e4_17",1,6,1999,"Include",4
"KL2012_e4","KL2012_e4_17",0,1,1546,"Include",5
"KL2012_e4","KL2012_e4_17",1,1,1311,"Include",6
"KL2012_e4","KL2012_e4_17",0,1,1111,"Include",7
"KL2012_e4","KL2012_e4_17",1,2,1374,"Include",8
"KL2012_e4","KL2012_e4_17",1,6,1544,"Include",9
"KL2012_e4","KL2012_e4_17",1,6,1273,"Include",10
"KL2012_e4","KL2012_e4_17",1,6,758,"Include",11
"KL2012_e4","KL2012_e4_17",1,6,648,"Include",12
"KL2012_e4","KL2012_e4_17",1,6,571,"Include",13
"KL2012_e4","KL2012_e4_17",1,5,1736,"Include",14
"KL2012_e4","KL2012_e4_17",0,1,1213,"Include",15
"KL2012_e4","KL2012_e4_17",1,6,1210,"Include",16
"KL2012_e4","KL2012_e4_17",0,1,1023,"Include",17
"KL2012_e4","KL2012_e4_17",0,1,1071,"Include",18
"KL2012_e4","KL2012_e4_17",1,6,991,"Include",19
"KL2012_e4","KL2012_e4_17",0,1,1039,"Include",20
"KL2012_e4","KL2012_e4_17",1,5,1521,"Include",21
"KL2012_e4","KL2012_e4_17",0,2,1180,"Include",22
"KL2012_e4","KL2012_e4_17",1,6,1017,"Include",23
"KL2012_e4","KL2012_e4_17",1,6,1318,"Include",24
"KL2012_e4","KL2012_e4_17",0,1,966,"Include",25
"KL2012_e4","KL2012_e4_17",1,6,1024,"Include",26
"KL2012_e4","KL2012_e4_17",1,6,848,"Include",27
"KL2012_e4","KL2012_e4_17",1,6,1010,"Include",28
"KL2012_e4","KL2012_e4_17",0,1,1192,"Include",29
"KL2012_e4","KL2012_e4_17",1,6,904,"Include",30
"KL2012_e4","KL2012_e4_17",1,6,1096,"Include",31
"KL2012_e4","KL2012_e4_17",1,4,1701,"Include",32
"KL2012_e4","KL2012_e4_17",0,2,1330,"Include",33
"KL2012_e4","KL2012_e4_17",1,6,1183,"Include",34
"KL2012_e4","KL2012_e4_17",0,1,943,"Include",35
"KL2012_e4","KL2012_e4_17",0,1,1295,"Include",36
"KL2012_e4","KL2012_e4_17",0,1,1019,"Include",37
"KL2012_e4","KL2012_e4_17",1,6,1032,"Include",38
"KL2012_e4","KL2012_e4_17",1,4,1600,"Include",39
"KL2012_e4","KL2012_e4_17",1,2,1546,"Include",40
"KL2012_e4","KL2012_e4_17",0,1,978,"Include",41
"KL2012_e4","KL2012_e4_17",1,4,1735,"Include",42
"KL2012_e4","KL2012_e4_17",0,6,1364,"Include",43
"KL2012_e4","KL2012_e4_17",1,6,1215,"Include",44
"KL2012_e4","KL2012_e4_17",0,1,972,"Include",45
"KL2012_e4","KL2012_e4_17",0,1,1009,"Include",46
"KL2012_e4","KL2012_e4_17",0,1,990,"Include",47
"KL2012_e4","KL2012_e4_17",0,5,1198,"Include",48
"KL2012_e4","KL2012_e4_17",0,1,973,"Include",49
"KL2012_e4","KL2012_e4_17",0,4,1067,"Include",50
"KL2012_e4","KL2012_e4_17",0,1,883,"Include",51
"KL2012_e4","KL2012_e4_17",1,1,997,"Include",52
"KL2012_e4","KL2012_e4_17",0,1,928,"Include",53
"KL2012_e4","KL2012_e4_17",0,1,1109,"Include",54
"KL2012_e4","KL2012_e4_17",0,1,821,"Include",55
"KL2012_e4","KL2012_e4_17",0,4,1082,"Include",56
"KL2012_e4","KL2012_e4_17",0,4,994,"Include",57
"KL2012_e4","KL2012_e4_17",1,6,954,"Include",58
"KL2012_e4","KL2012_e4_17",0,2,1503,"Include",59
"KL2012_e4","KL2012_e4_17",0,5,1036,"Include",60
"KL2012_e4","KL2012_e4_17",0,2,1038,"Include",61
"KL2012_e4","KL2012_e4_17",0,1,921,"Include",62
"KL2012_e4","KL2012_e4_17",1,5,1291,"Include",63
"KL2012_e4","KL2012_e4_17",1,4,1705,"Include",64
"KL2012_e4","KL2012_e4_17",0,2,1280,"Include",65
"KL2012_e4","KL2012_e4_17",1,1,939,"Include",66
"KL2012_e4","KL2012_e4_17",1,1,1080,"Include",67
"KL2012_e4","KL2012_e4_17",0,6,1050,"Include",68
"KL2012_e4","KL2012_e4_17",1,6,784,"Include",69
"KL2012_e4","KL2012_e4_17",1,6,719,"Include",70
"KL2012_e4","KL2012_e4_17",0,2,1754,"Include",71
"KL2012_e4","KL2012_e4_17",1,5,1114,"Include",72
"KL2012_e4","KL2012_e4_17",0,6,1030,"Include",73
"KL2012_e4","KL2012_e4_17",0,1,1071,"Include",74
"KL2012_e4","KL2012_e4_17",0,1,947,"Include",75
"KL2012_e4","KL2012_e4_17",0,5,1067,"Include",76
"KL2012_e4","KL2012_e4_17",0,4,1272,"Include",77
"KL2012_e4","KL2012_e4_17",1,2,1032,"Include",78
"KL2012_e4","KL2012_e4_17",0,4,1284,"Include",79
"KL2012_e4","KL2012_e4_17",1,6,1103,"Include",80
"KL2012_e4","KL2012_e4_17",1,1,815,"Include",81
"KL2012_e4","KL2012_e4_17",0,1,956,"Include",82
"KL2012_e4","KL2012_e4_17",0,1,1095,"Include",83
"KL2012_e4","KL2012_e4_17",1,4,1212,"Include",84
"KL2012_e4","KL2012_e4_17",1,1,1753,"Include",85
"KL2012_e4","KL2012_e4_17",1,6,1225,"Include",86
"KL2012_e4","KL2012_e4_17",0,1,1097,"Include",87
"KL2012_e4","KL2012_e4_17",1,1,846,"Include",88
"KL2012_e4","KL2012_e4_17",1,4,1472,"Include",89
"KL2012_e4","KL2012_e4_17",1,6,1072,"Include",90
"KL2012_e4","KL2012_e4_17",1,6,1016,"Include",91
"KL2012_e4","KL2012_e4_17",0,4,1973,"Include",92
"KL2012_e4","KL2012_e4_17",0,1,906,"Include",93
"KL2012_e4","KL2012_e4_17",1,6,930,"Include",94
"KL2012_e4","KL2012_e4_17",0,1,951,"Include",95
"KL2012_e4","KL2012_e4_17",0,1,967,"Include",96
"KL2012_e4","KL2012_e4_18",0,2,3964,"Include",1
"KL2012_e4","KL2012_e4_18",0,2,1366,"Include",2
"KL2012_e4","KL2012_e4_18",1,6,2354,"Include",3
"KL2012_e4","KL2012_e4_18",1,5,2709,"Include",4
"KL2012_e4","KL2012_e4_18",0,1,1323,"Include",5
"KL2012_e4","KL2012_e4_18",1,1,1558,"Include",6
"KL2012_e4","KL2012_e4_18",1,2,1600,"Include",7
"KL2012_e4","KL2012_e4_18",0,2,1801,"Include",8
"KL2012_e4","KL2012_e4_18",1,3,1236,"Include",9
"KL2012_e4","KL2012_e4_18",1,3,1382,"Include",10
"KL2012_e4","KL2012_e4_18",1,5,2277,"Include",11
"KL2012_e4","KL2012_e4_18",1,6,1935,"Include",12
"KL2012_e4","KL2012_e4_18",0,4,2891,"Include",13
"KL2012_e4","KL2012_e4_18",1,6,1328,"Include",14
"KL2012_e4","KL2012_e4_18",1,6,956,"Include",15
"KL2012_e4","KL2012_e4_18",1,6,726,"Include",16
"KL2012_e4","KL2012_e4_18",1,6,1059,"Include",17
"KL2012_e4","KL2012_e4_18",1,6,987,"Include",18
"KL2012_e4","KL2012_e4_18",0,1,1874,"Include",19
"KL2012_e4","KL2012_e4_18",0,5,1628,"Include",20
"KL2012_e4","KL2012_e4_18",1,6,1539,"Include",21
"KL2012_e4","KL2012_e4_18",1,4,1611,"Include",22
"KL2012_e4","KL2012_e4_18",0,2,1943,"Include",23
"KL2012_e4","KL2012_e4_18",1,2,950,"Include",24
"KL2012_e4","KL2012_e4_18",0,2,1030,"Include",25
"KL2012_e4","KL2012_e4_18",1,5,3272,"Include",26
"KL2012_e4","KL2012_e4_18",0,4,1258,"Include",27
"KL2012_e4","KL2012_e4_18",0,3,2438,"Include",28
"KL2012_e4","KL2012_e4_18",0,3,1000,"Include",29
"KL2012_e4","KL2012_e4_18",0,3,3049,"Include",30
"KL2012_e4","KL2012_e4_18",0,4,1150,"Include",31
"KL2012_e4","KL2012_e4_18",0,3,1022,"Include",32
"KL2012_e4","KL2012_e4_18",0,6,1421,"Include",33
"KL2012_e4","KL2012_e4_18",0,6,3372,"Include",34
"KL2012_e4","KL2012_e4_18",1,3,2144,"Include",35
"KL2012_e4","KL2012_e4_18",0,4,1904,"Include",36
"KL2012_e4","KL2012_e4_18",0,4,5079,"Include",37
"KL2012_e4","KL2012_e4_18",1,5,1223,"Include",38
"KL2012_e4","KL2012_e4_18",1,6,1319,"Include",39
"KL2012_e4","KL2012_e4_18",0,5,1313,"Include",40
"KL2012_e4","KL2012_e4_18",1,2,1659,"Include",41
"KL2012_e4","KL2012_e4_18",0,2,979,"Include",42
"KL2012_e4","KL2012_e4_18",0,1,2202,"Include",43
"KL2012_e4","KL2012_e4_18",1,6,1844,"Include",44
"KL2012_e4","KL2012_e4_18",0,6,1710,"Include",45
"KL2012_e4","KL2012_e4_18",1,3,1317,"Include",46
"KL2012_e4","KL2012_e4_18",0,4,7014,"Include",47
"KL2012_e4","KL2012_e4_18",0,3,1146,"Include",48
"KL2012_e4","KL2012_e4_18",1,4,1113,"Include",49
"KL2012_e4","KL2012_e4_18",1,4,1667,"Include",50
"KL2012_e4","KL2012_e4_18",0,4,827,"Include",51
"KL2012_e4","KL2012_e4_18",1,6,1170,"Include",52
"KL2012_e4","KL2012_e4_18",0,5,975,"Include",53
"KL2012_e4","KL2012_e4_18",0,2,2252,"Include",54
"KL2012_e4","KL2012_e4_18",1,5,1560,"Include",55
"KL2012_e4","KL2012_e4_18",1,4,1394,"Include",56
"KL2012_e4","KL2012_e4_18",1,6,1157,"Include",57
"KL2012_e4","KL2012_e4_18",0,2,1902,"Include",58
"KL2012_e4","KL2012_e4_18",1,6,1158,"Include",59
"KL2012_e4","KL2012_e4_18",0,5,2127,"Include",60
"KL2012_e4","KL2012_e4_18",1,6,1076,"Include",61
"KL2012_e4","KL2012_e4_18",0,3,1319,"Include",62
"KL2012_e4","KL2012_e4_18",1,4,1216,"Include",63
"KL2012_e4","KL2012_e4_18",0,4,917,"Include",64
"KL2012_e4","KL2012_e4_18",1,5,1136,"Include",65
"KL2012_e4","KL2012_e4_18",1,6,2916,"Include",66
"KL2012_e4","KL2012_e4_18",0,3,1246,"Include",67
"KL2012_e4","KL2012_e4_18",0,3,1408,"Include",68
"KL2012_e4","KL2012_e4_18",0,2,1391,"Include",69
"KL2012_e4","KL2012_e4_18",1,2,1279,"Include",70
"KL2012_e4","KL2012_e4_18",0,4,1464,"Include",71
"KL2012_e4","KL2012_e4_18",1,5,1256,"Include",72
"KL2012_e4","KL2012_e4_18",0,3,1389,"Include",73
"KL2012_e4","KL2012_e4_18",1,3,1052,"Include",74
"KL2012_e4","KL2012_e4_18",1,4,6104,"Include",75
"KL2012_e4","KL2012_e4_18",0,4,1119,"Include",76
"KL2012_e4","KL2012_e4_18",1,5,1265,"Include",77
"KL2012_e4","KL2012_e4_18",1,5,5024,"Include",78
"KL2012_e4","KL2012_e4_18",0,2,1238,"Include",79
"KL2012_e4","KL2012_e4_18",0,4,4327,"Include",80
"KL2012_e4","KL2012_e4_18",1,1,1548,"Include",81
"KL2012_e4","KL2012_e4_18",1,6,1124,"Include",82
"KL2012_e4","KL2012_e4_18",0,6,973,"Include",83
"KL2012_e4","KL2012_e4_18",0,4,1306,"Include",84
"KL2012_e4","KL2012_e4_18",0,2,1298,"Include",85
"KL2012_e4","KL2012_e4_18",1,4,2286,"Include",86
"KL2012_e4","KL2012_e4_18",1,6,2067,"Include",87
"KL2012_e4","KL2012_e4_18",1,4,1650,"Include",88
"KL2012_e4","KL2012_e4_18",0,4,1071,"Include",89
"KL2012_e4","KL2012_e4_18",0,3,5989,"Include",90
"KL2012_e4","KL2012_e4_18",0,2,1076,"Include",91
"KL2012_e4","KL2012_e4_18",0,5,1230,"Include",92
"KL2012_e4","KL2012_e4_18",1,6,1142,"Include",93
"KL2012_e4","KL2012_e4_18",1,6,1101,"Include",94
"KL2012_e4","KL2012_e4_18",1,3,1444,"Include",95
"KL2012_e4","KL2012_e4_18",0,4,1295,"Include",96
"KL2012_e4","KL2012_e4_19",1,6,5088,"Include",1
"KL2012_e4","KL2012_e4_19",0,2,3299,"Include",2
"KL2012_e4","KL2012_e4_19",0,2,1282,"Include",3
"KL2012_e4","KL2012_e4_19",0,4,3578,"Include",4
"KL2012_e4","KL2012_e4_19",0,4,809,"Include",5
"KL2012_e4","KL2012_e4_19",0,3,1681,"Include",6
"KL2012_e4","KL2012_e4_19",0,5,2096,"Include",7
"KL2012_e4","KL2012_e4_19",0,5,1155,"Include",8
"KL2012_e4","KL2012_e4_19",1,4,1886,"Include",9
"KL2012_e4","KL2012_e4_19",0,4,1086,"Include",10
"KL2012_e4","KL2012_e4_19",1,5,1608,"Include",11
"KL2012_e4","KL2012_e4_19",0,2,1590,"Include",12
"KL2012_e4","KL2012_e4_19",0,4,1805,"Include",13
"KL2012_e4","KL2012_e4_19",0,2,1910,"Include",14
"KL2012_e4","KL2012_e4_19",0,5,4936,"Include",15
"KL2012_e4","KL2012_e4_19",1,5,944,"Include",16
"KL2012_e4","KL2012_e4_19",0,2,2194,"Include",17
"KL2012_e4","KL2012_e4_19",1,6,1644,"Include",18
"KL2012_e4","KL2012_e4_19",1,5,4813,"Include",19
"KL2012_e4","KL2012_e4_19",1,4,3149,"Include",20
"KL2012_e4","KL2012_e4_19",0,4,1492,"Include",21
"KL2012_e4","KL2012_e4_19",0,4,1352,"Include",22
"KL2012_e4","KL2012_e4_19",1,3,1639,"Include",23
"KL2012_e4","KL2012_e4_19",1,5,2302,"Include",24
"KL2012_e4","KL2012_e4_19",0,2,2657,"Include",25
"KL2012_e4","KL2012_e4_19",0,2,2882,"Include",26
"KL2012_e4","KL2012_e4_19",1,6,1494,"Include",27
"KL2012_e4","KL2012_e4_19",0,3,1644,"Include",28
"KL2012_e4","KL2012_e4_19",1,6,1535,"Include",29
"KL2012_e4","KL2012_e4_19",0,3,1878,"Include",30
"KL2012_e4","KL2012_e4_19",0,4,1791,"Include",31
"KL2012_e4","KL2012_e4_19",1,6,1162,"Include",32
"KL2012_e4","KL2012_e4_19",1,6,1165,"Include",33
"KL2012_e4","KL2012_e4_19",1,6,1327,"Include",34
"KL2012_e4","KL2012_e4_19",1,5,1714,"Include",35
"KL2012_e4","KL2012_e4_19",1,6,747,"Include",36
"KL2012_e4","KL2012_e4_19",0,3,1750,"Include",37
"KL2012_e4","KL2012_e4_19",0,3,1853,"Include",38
"KL2012_e4","KL2012_e4_19",0,2,1437,"Include",39
"KL2012_e4","KL2012_e4_19",0,4,3316,"Include",40
"KL2012_e4","KL2012_e4_19",1,4,6681,"Include",41
"KL2012_e4","KL2012_e4_19",1,5,1128,"Include",42
"KL2012_e4","KL2012_e4_19",1,3,2815,"Include",43
"KL2012_e4","KL2012_e4_19",1,5,1403,"Include",44
"KL2012_e4","KL2012_e4_19",1,5,1498,"Include",45
"KL2012_e4","KL2012_e4_19",1,5,888,"Include",46
"KL2012_e4","KL2012_e4_19",1,6,2316,"Include",47
"KL2012_e4","KL2012_e4_19",0,3,3129,"Include",48
"KL2012_e4","KL2012_e4_19",1,5,2074,"Include",49
"KL2012_e4","KL2012_e4_19",0,5,2746,"Include",50
"KL2012_e4","KL2012_e4_19",1,6,1594,"Include",51
"KL2012_e4","KL2012_e4_19",1,6,916,"Include",52
"KL2012_e4","KL2012_e4_19",0,4,1849,"Include",53
"KL2012_e4","KL2012_e4_19",0,3,1979,"Include",54
"KL2012_e4","KL2012_e4_19",1,2,4163,"Include",55
"KL2012_e4","KL2012_e4_19",0,2,855,"Include",56
"KL2012_e4","KL2012_e4_19",0,4,6703,"Include",57
"KL2012_e4","KL2012_e4_19",1,5,1841,"Include",58
"KL2012_e4","KL2012_e4_19",0,5,1454,"Include",59
"KL2012_e4","KL2012_e4_19",1,6,1111,"Include",60
"KL2012_e4","KL2012_e4_19",0,3,1780,"Include",61
"KL2012_e4","KL2012_e4_19",1,6,4019,"Include",62
"KL2012_e4","KL2012_e4_19",0,3,2318,"Include",63
"KL2012_e4","KL2012_e4_19",1,6,1057,"Include",64
"KL2012_e4","KL2012_e4_19",0,4,4865,"Include",65
"KL2012_e4","KL2012_e4_19",1,2,2004,"Include",66
"KL2012_e4","KL2012_e4_19",1,2,2785,"Include",67
"KL2012_e4","KL2012_e4_19",0,2,2726,"Include",68
"KL2012_e4","KL2012_e4_19",0,3,2137,"Include",69
"KL2012_e4","KL2012_e4_19",1,3,1264,"Include",70
"KL2012_e4","KL2012_e4_19",1,4,1576,"Include",71
"KL2012_e4","KL2012_e4_19",0,3,1655,"Include",72
"KL2012_e4","KL2012_e4_19",1,4,1246,"Include",73
"KL2012_e4","KL2012_e4_19",1,5,1145,"Include",74
"KL2012_e4","KL2012_e4_19",0,4,3072,"Include",75
"KL2012_e4","KL2012_e4_19",0,4,1727,"Include",76
"KL2012_e4","KL2012_e4_19",1,4,1302,"Include",77
"KL2012_e4","KL2012_e4_19",0,4,1724,"Include",78
"KL2012_e4","KL2012_e4_19",0,2,3827,"Include",79
"KL2012_e4","KL2012_e4_19",1,4,2068,"Include",80
"KL2012_e4","KL2012_e4_19",0,2,1671,"Include",81
"KL2012_e4","KL2012_e4_19",0,2,1770,"Include",82
"KL2012_e4","KL2012_e4_19",1,6,1765,"Include",83
"KL2012_e4","KL2012_e4_19",1,4,2812,"Include",84
"KL2012_e4","KL2012_e4_19",0,4,2516,"Include",85
"KL2012_e4","KL2012_e4_19",1,5,1053,"Include",86
"KL2012_e4","KL2012_e4_19",1,3,2421,"Include",87
"KL2012_e4","KL2012_e4_19",1,5,1811,"Include",88
"KL2012_e4","KL2012_e4_19",1,5,4019,"Include",89
"KL2012_e4","KL2012_e4_19",0,4,13796,"Include",90
"KL2012_e4","KL2012_e4_19",0,4,5423,"Include",91
"KL2012_e4","KL2012_e4_19",1,6,2107,"Include",92
"KL2012_e4","KL2012_e4_19",0,4,1414,"Include",93
"KL2012_e4","KL2012_e4_19",0,4,2311,"Include",94
"KL2012_e4","KL2012_e4_19",1,6,1095,"Include",95
"KL2012_e4","KL2012_e4_19",1,3,1457,"Include",96
"KL2012_e4","KL2012_e4_2",1,5,2387,"Include",1
"KL2012_e4","KL2012_e4_2",1,6,2111,"Include",2
"KL2012_e4","KL2012_e4_2",0,2,2285,"Include",3
"KL2012_e4","KL2012_e4_2",1,6,2735,"Include",4
"KL2012_e4","KL2012_e4_2",0,2,1908,"Include",5
"KL2012_e4","KL2012_e4_2",0,4,2252,"Include",6
"KL2012_e4","KL2012_e4_2",1,6,1721,"Include",7
"KL2012_e4","KL2012_e4_2",1,6,940,"Include",8
"KL2012_e4","KL2012_e4_2",1,2,1625,"Include",9
"KL2012_e4","KL2012_e4_2",0,1,1513,"Include",10
"KL2012_e4","KL2012_e4_2",1,6,1639,"Include",11
"KL2012_e4","KL2012_e4_2",1,5,1850,"Include",12
"KL2012_e4","KL2012_e4_2",0,2,1671,"Include",13
"KL2012_e4","KL2012_e4_2",0,4,2463,"Include",14
"KL2012_e4","KL2012_e4_2",1,5,3014,"Include",15
"KL2012_e4","KL2012_e4_2",0,4,1931,"Include",16
"KL2012_e4","KL2012_e4_2",1,6,2446,"Include",17
"KL2012_e4","KL2012_e4_2",0,1,2632,"Include",18
"KL2012_e4","KL2012_e4_2",1,5,2384,"Include",19
"KL2012_e4","KL2012_e4_2",0,2,2452,"Include",20
"KL2012_e4","KL2012_e4_2",1,6,1578,"Include",21
"KL2012_e4","KL2012_e4_2",1,6,1015,"Include",22
"KL2012_e4","KL2012_e4_2",0,3,1740,"Include",23
"KL2012_e4","KL2012_e4_2",0,2,2105,"Include",24
"KL2012_e4","KL2012_e4_2",0,4,2768,"Include",25
"KL2012_e4","KL2012_e4_2",0,5,1549,"Include",26
"KL2012_e4","KL2012_e4_2",1,6,1141,"Include",27
"KL2012_e4","KL2012_e4_2",0,3,1762,"Include",28
"KL2012_e4","KL2012_e4_2",1,2,3073,"Include",29
"KL2012_e4","KL2012_e4_2",0,4,1820,"Include",30
"KL2012_e4","KL2012_e4_2",0,2,1857,"Include",31
"KL2012_e4","KL2012_e4_2",0,5,2390,"Include",32
"KL2012_e4","KL2012_e4_2",0,5,1078,"Include",33
"KL2012_e4","KL2012_e4_2",0,3,2289,"Include",34
"KL2012_e4","KL2012_e4_2",0,3,1419,"Include",35
"KL2012_e4","KL2012_e4_2",0,2,2288,"Include",36
"KL2012_e4","KL2012_e4_2",1,2,2285,"Include",37
"KL2012_e4","KL2012_e4_2",1,5,2316,"Include",38
"KL2012_e4","KL2012_e4_2",1,5,1207,"Include",39
"KL2012_e4","KL2012_e4_2",1,3,2162,"Include",40
"KL2012_e4","KL2012_e4_2",1,5,1891,"Include",41
"KL2012_e4","KL2012_e4_2",0,3,1824,"Include",42
"KL2012_e4","KL2012_e4_2",0,4,1760,"Include",43
"KL2012_e4","KL2012_e4_2",0,5,1810,"Include",44
"KL2012_e4","KL2012_e4_2",1,5,1013,"Include",45
"KL2012_e4","KL2012_e4_2",1,6,1578,"Include",46
"KL2012_e4","KL2012_e4_2",1,6,639,"Include",47
"KL2012_e4","KL2012_e4_2",0,4,1530,"Include",48
"KL2012_e4","KL2012_e4_2",0,2,1335,"Include",49
"KL2012_e4","KL2012_e4_2",0,3,2156,"Include",50
"KL2012_e4","KL2012_e4_2",1,5,1270,"Include",51
"KL2012_e4","KL2012_e4_2",1,6,2206,"Include",52
"KL2012_e4","KL2012_e4_2",0,5,1233,"Include",53
"KL2012_e4","KL2012_e4_2",1,3,1952,"Include",54
"KL2012_e4","KL2012_e4_2",0,2,2032,"Include",55
"KL2012_e4","KL2012_e4_2",0,4,1616,"Include",56
"KL2012_e4","KL2012_e4_2",1,4,1133,"Include",57
"KL2012_e4","KL2012_e4_2",1,5,2146,"Include",58
"KL2012_e4","KL2012_e4_2",1,3,2609,"Include",59
"KL2012_e4","KL2012_e4_2",0,3,1230,"Include",60
"KL2012_e4","KL2012_e4_2",0,2,2062,"Include",61
"KL2012_e4","KL2012_e4_2",0,5,2323,"Include",62
"KL2012_e4","KL2012_e4_2",0,5,949,"Include",63
"KL2012_e4","KL2012_e4_2",0,3,2805,"Include",64
"KL2012_e4","KL2012_e4_2",0,5,1839,"Include",65
"KL2012_e4","KL2012_e4_2",0,4,2282,"Include",66
"KL2012_e4","KL2012_e4_2",1,4,1188,"Include",67
"KL2012_e4","KL2012_e4_2",1,5,2092,"Include",68
"KL2012_e4","KL2012_e4_2",1,5,2193,"Include",69
"KL2012_e4","KL2012_e4_2",1,5,1049,"Include",70
"KL2012_e4","KL2012_e4_2",1,2,1894,"Include",71
"KL2012_e4","KL2012_e4_2",0,4,2515,"Include",72
"KL2012_e4","KL2012_e4_2",1,5,1005,"Include",73
"KL2012_e4","KL2012_e4_2",0,6,2335,"Include",74
"KL2012_e4","KL2012_e4_2",1,5,1036,"Include",75
"KL2012_e4","KL2012_e4_2",1,4,3564,"Include",76
"KL2012_e4","KL2012_e4_2",1,3,2574,"Include",77
"KL2012_e4","KL2012_e4_2",1,3,2691,"Include",78
"KL2012_e4","KL2012_e4_2",1,4,2080,"Include",79
"KL2012_e4","KL2012_e4_2",0,4,952,"Include",80
"KL2012_e4","KL2012_e4_2",0,4,2848,"Include",81
"KL2012_e4","KL2012_e4_2",0,3,2202,"Include",82
"KL2012_e4","KL2012_e4_2",1,4,2130,"Include",83
"KL2012_e4","KL2012_e4_2",1,5,1607,"Include",84
"KL2012_e4","KL2012_e4_2",1,2,3521,"Include",85
"KL2012_e4","KL2012_e4_2",0,1,4612,"Include",86
"KL2012_e4","KL2012_e4_2",0,3,2503,"Include",87
"KL2012_e4","KL2012_e4_2",0,5,2719,"Include",88
"KL2012_e4","KL2012_e4_2",1,5,1049,"Include",89
"KL2012_e4","KL2012_e4_2",0,5,1268,"Include",90
"KL2012_e4","KL2012_e4_2",0,5,1116,"Include",91
"KL2012_e4","KL2012_e4_2",1,5,1542,"Include",92
"KL2012_e4","KL2012_e4_2",1,4,1870,"Include",93
"KL2012_e4","KL2012_e4_2",0,4,3870,"Include",94
"KL2012_e4","KL2012_e4_2",1,3,1933,"Include",95
"KL2012_e4","KL2012_e4_2",1,4,1520,"Include",96
"KL2012_e4","KL2012_e4_20",0,1,10085,"Include",1
"KL2012_e4","KL2012_e4_20",0,2,15619,"Include",2
"KL2012_e4","KL2012_e4_20",0,2,1774,"Include",3
"KL2012_e4","KL2012_e4_20",1,4,3634,"Include",4
"KL2012_e4","KL2012_e4_20",1,4,1612,"Include",5
"KL2012_e4","KL2012_e4_20",1,2,1680,"Include",6
"KL2012_e4","KL2012_e4_20",0,2,1379,"Include",7
"KL2012_e4","KL2012_e4_20",1,2,1505,"Include",8
"KL2012_e4","KL2012_e4_20",1,6,3393,"Include",9
"KL2012_e4","KL2012_e4_20",0,5,1786,"Include",10
"KL2012_e4","KL2012_e4_20",0,4,1922,"Include",11
"KL2012_e4","KL2012_e4_20",0,3,1539,"Include",12
"KL2012_e4","KL2012_e4_20",0,2,2027,"Include",13
"KL2012_e4","KL2012_e4_20",1,2,1122,"Include",14
"KL2012_e4","KL2012_e4_20",0,2,1276,"Include",15
"KL2012_e4","KL2012_e4_20",1,6,2190,"Include",16
"KL2012_e4","KL2012_e4_20",0,4,1877,"Include",17
"KL2012_e4","KL2012_e4_20",0,4,1831,"Include",18
"KL2012_e4","KL2012_e4_20",0,5,1830,"Include",19
"KL2012_e4","KL2012_e4_20",0,2,2917,"Include",20
"KL2012_e4","KL2012_e4_20",0,2,1719,"Include",21
"KL2012_e4","KL2012_e4_20",1,3,2849,"Include",22
"KL2012_e4","KL2012_e4_20",0,4,2269,"Include",23
"KL2012_e4","KL2012_e4_20",0,2,1452,"Include",24
"KL2012_e4","KL2012_e4_20",0,5,2297,"Include",25
"KL2012_e4","KL2012_e4_20",0,2,1933,"Include",26
"KL2012_e4","KL2012_e4_20",1,5,2713,"Include",27
"KL2012_e4","KL2012_e4_20",0,3,2092,"Include",28
"KL2012_e4","KL2012_e4_20",0,3,2368,"Include",29
"KL2012_e4","KL2012_e4_20",0,3,1885,"Include",30
"KL2012_e4","KL2012_e4_20",1,6,1550,"Include",31
"KL2012_e4","KL2012_e4_20",0,3,2126,"Include",32
"KL2012_e4","KL2012_e4_20",0,4,1921,"Include",33
"KL2012_e4","KL2012_e4_20",1,6,5043,"Include",34
"KL2012_e4","KL2012_e4_20",1,4,1877,"Include",35
"KL2012_e4","KL2012_e4_20",1,5,2030,"Include",36
"KL2012_e4","KL2012_e4_20",1,5,1998,"Include",37
"KL2012_e4","KL2012_e4_20",1,4,1904,"Include",38
"KL2012_e4","KL2012_e4_20",1,5,2367,"Include",39
"KL2012_e4","KL2012_e4_20",1,2,1460,"Include",40
"KL2012_e4","KL2012_e4_20",1,3,4594,"Include",41
"KL2012_e4","KL2012_e4_20",1,3,1555,"Include",42
"KL2012_e4","KL2012_e4_20",0,2,1918,"Include",43
"KL2012_e4","KL2012_e4_20",1,5,1959,"Include",44
"KL2012_e4","KL2012_e4_20",0,4,1825,"Include",45
"KL2012_e4","KL2012_e4_20",1,3,5552,"Include",46
"KL2012_e4","KL2012_e4_20",1,4,2526,"Include",47
"KL2012_e4","KL2012_e4_20",0,5,4570,"Include",48
"KL2012_e4","KL2012_e4_20",0,2,4053,"Include",49
"KL2012_e4","KL2012_e4_20",1,6,4617,"Include",50
"KL2012_e4","KL2012_e4_20",1,1,6085,"Include",51
"KL2012_e4","KL2012_e4_20",0,3,2158,"Include",52
"KL2012_e4","KL2012_e4_20",0,1,3424,"Include",53
"KL2012_e4","KL2012_e4_20",1,6,1383,"Include",54
"KL2012_e4","KL2012_e4_20",0,2,3910,"Include",55
"KL2012_e4","KL2012_e4_20",1,4,4508,"Include",56
"KL2012_e4","KL2012_e4_20",0,1,3619,"Include",57
"KL2012_e4","KL2012_e4_20",0,3,1714,"Include",58
"KL2012_e4","KL2012_e4_20",1,1,1651,"Include",59
"KL2012_e4","KL2012_e4_20",1,6,1256,"Include",60
"KL2012_e4","KL2012_e4_20",0,5,1868,"Include",61
"KL2012_e4","KL2012_e4_20",0,1,1900,"Include",62
"KL2012_e4","KL2012_e4_20",1,2,4227,"Include",63
"KL2012_e4","KL2012_e4_20",0,4,4145,"Include",64
"KL2012_e4","KL2012_e4_20",1,1,1400,"Include",65
"KL2012_e4","KL2012_e4_20",1,4,2674,"Include",66
"KL2012_e4","KL2012_e4_20",0,1,1812,"Include",67
"KL2012_e4","KL2012_e4_20",0,2,6463,"Include",68
"KL2012_e4","KL2012_e4_20",1,2,990,"Include",69
"KL2012_e4","KL2012_e4_20",1,4,1926,"Include",70
"KL2012_e4","KL2012_e4_20",1,5,1602,"Include",71
"KL2012_e4","KL2012_e4_20",1,6,1340,"Include",72
"KL2012_e4","KL2012_e4_20",1,5,2523,"Include",73
"KL2012_e4","KL2012_e4_20",0,1,2445,"Include",74
"KL2012_e4","KL2012_e4_20",0,1,1782,"Include",75
"KL2012_e4","KL2012_e4_20",1,4,3382,"Include",76
"KL2012_e4","KL2012_e4_20",1,2,2180,"Include",77
"KL2012_e4","KL2012_e4_20",1,1,3179,"Include",78
"KL2012_e4","KL2012_e4_20",1,6,1403,"Include",79
"KL2012_e4","KL2012_e4_20",0,2,4860,"Include",80
"KL2012_e4","KL2012_e4_20",1,1,2355,"Include",81
"KL2012_e4","KL2012_e4_20",0,1,1500,"Include",82
"KL2012_e4","KL2012_e4_20",0,2,2284,"Include",83
"KL2012_e4","KL2012_e4_20",0,4,5317,"Include",84
"KL2012_e4","KL2012_e4_20",1,3,4862,"Include",85
"KL2012_e4","KL2012_e4_20",0,4,2092,"Include",86
"KL2012_e4","KL2012_e4_20",1,5,1625,"Include",87
"KL2012_e4","KL2012_e4_20",1,4,4592,"Include",88
"KL2012_e4","KL2012_e4_20",0,4,7445,"Include",89
"KL2012_e4","KL2012_e4_20",1,1,2498,"Include",90
"KL2012_e4","KL2012_e4_20",0,4,1861,"Include",91
"KL2012_e4","KL2012_e4_20",1,1,1733,"Include",92
"KL2012_e4","KL2012_e4_20",0,1,4905,"Include",93
"KL2012_e4","KL2012_e4_20",1,6,1455,"Include",94
"KL2012_e4","KL2012_e4_20",0,4,2420,"Include",95
"KL2012_e4","KL2012_e4_20",1,6,1283,"Include",96
"KL2012_e4","KL2012_e4_21",1,3,10020,"Include",1
"KL2012_e4","KL2012_e4_21",1,3,3791,"Include",2
"KL2012_e4","KL2012_e4_21",0,1,2749,"Include",3
"KL2012_e4","KL2012_e4_21",0,1,3010,"Include",4
"KL2012_e4","KL2012_e4_21",0,1,1074,"Include",5
"KL2012_e4","KL2012_e4_21",0,1,2578,"Include",6
"KL2012_e4","KL2012_e4_21",1,6,2145,"Include",7
"KL2012_e4","KL2012_e4_21",0,4,4859,"Include",8
"KL2012_e4","KL2012_e4_21",0,2,4837,"Include",9
"KL2012_e4","KL2012_e4_21",0,1,1288,"Include",10
"KL2012_e4","KL2012_e4_21",0,2,1152,"Include",11
"KL2012_e4","KL2012_e4_21",0,4,1853,"Include",12
"KL2012_e4","KL2012_e4_21",1,4,782,"Include",13
"KL2012_e4","KL2012_e4_21",0,3,1439,"Include",14
"KL2012_e4","KL2012_e4_21",1,5,1282,"Include",15
"KL2012_e4","KL2012_e4_21",0,1,1205,"Include",16
"KL2012_e4","KL2012_e4_21",1,6,1750,"Include",17
"KL2012_e4","KL2012_e4_21",1,6,722,"Include",18
"KL2012_e4","KL2012_e4_21",1,3,1471,"Include",19
"KL2012_e4","KL2012_e4_21",0,2,1059,"Include",20
"KL2012_e4","KL2012_e4_21",0,5,1401,"Include",21
"KL2012_e4","KL2012_e4_21",0,3,1533,"Include",22
"KL2012_e4","KL2012_e4_21",1,3,2256,"Include",23
"KL2012_e4","KL2012_e4_21",1,6,962,"Include",24
"KL2012_e4","KL2012_e4_21",1,6,795,"Include",25
"KL2012_e4","KL2012_e4_21",1,6,1000,"Include",26
"KL2012_e4","KL2012_e4_21",0,2,1089,"Include",27
"KL2012_e4","KL2012_e4_21",0,2,1334,"Include",28
"KL2012_e4","KL2012_e4_21",1,3,2023,"Include",29
"KL2012_e4","KL2012_e4_21",1,3,833,"Include",30
"KL2012_e4","KL2012_e4_21",1,4,8659,"Include",31
"KL2012_e4","KL2012_e4_21",0,3,772,"Include",32
"KL2012_e4","KL2012_e4_21",0,3,854,"Include",33
"KL2012_e4","KL2012_e4_21",1,3,1136,"Include",34
"KL2012_e4","KL2012_e4_21",1,3,1273,"Include",35
"KL2012_e4","KL2012_e4_21",0,5,1503,"Include",36
"KL2012_e4","KL2012_e4_21",1,5,1163,"Include",37
"KL2012_e4","KL2012_e4_21",0,3,582,"Include",38
"KL2012_e4","KL2012_e4_21",0,3,1262,"Include",39
"KL2012_e4","KL2012_e4_21",1,3,1290,"Include",40
"KL2012_e4","KL2012_e4_21",0,3,676,"Include",41
"KL2012_e4","KL2012_e4_21",0,5,1270,"Include",42
"KL2012_e4","KL2012_e4_21",1,6,1337,"Include",43
"KL2012_e4","KL2012_e4_21",1,2,2053,"Include",44
"KL2012_e4","KL2012_e4_21",0,2,1918,"Include",45
"KL2012_e4","KL2012_e4_21",1,5,1428,"Include",46
"KL2012_e4","KL2012_e4_21",0,2,637,"Include",47
"KL2012_e4","KL2012_e4_21",0,1,1002,"Include",48
"KL2012_e4","KL2012_e4_21",1,2,1109,"Include",49
"KL2012_e4","KL2012_e4_21",0,2,680,"Include",50
"KL2012_e4","KL2012_e4_21",0,1,932,"Include",51
"KL2012_e4","KL2012_e4_21",0,2,1487,"Include",52
"KL2012_e4","KL2012_e4_21",0,3,2363,"Include",53
"KL2012_e4","KL2012_e4_21",1,6,1055,"Include",54
"KL2012_e4","KL2012_e4_21",1,3,1381,"Include",55
"KL2012_e4","KL2012_e4_21",0,3,812,"Include",56
"KL2012_e4","KL2012_e4_21",1,3,626,"Include",57
"KL2012_e4","KL2012_e4_21",0,3,682,"Include",58
"KL2012_e4","KL2012_e4_21",0,3,706,"Include",59
"KL2012_e4","KL2012_e4_21",1,2,3760,"Include",60
"KL2012_e4","KL2012_e4_21",1,1,1475,"Include",61
"KL2012_e4","KL2012_e4_21",1,6,1069,"Include",62
"KL2012_e4","KL2012_e4_21",0,2,1125,"Include",63
"KL2012_e4","KL2012_e4_21",1,1,1157,"Include",64
"KL2012_e4","KL2012_e4_21",1,2,1638,"Include",65
"KL2012_e4","KL2012_e4_21",1,6,1141,"Include",66
"KL2012_e4","KL2012_e4_21",0,1,2592,"Include",67
"KL2012_e4","KL2012_e4_21",0,2,973,"Include",68
"KL2012_e4","KL2012_e4_21",0,3,1472,"Include",69
"KL2012_e4","KL2012_e4_21",0,2,868,"Include",70
"KL2012_e4","KL2012_e4_21",1,2,3510,"Include",71
"KL2012_e4","KL2012_e4_21",1,6,2339,"Include",72
"KL2012_e4","KL2012_e4_21",0,2,725,"Include",73
"KL2012_e4","KL2012_e4_21",1,2,715,"Include",74
"KL2012_e4","KL2012_e4_21",1,2,557,"Include",75
"KL2012_e4","KL2012_e4_21",0,3,1112,"Include",76
"KL2012_e4","KL2012_e4_21",1,2,2578,"Include",77
"KL2012_e4","KL2012_e4_21",1,3,1959,"Include",78
"KL2012_e4","KL2012_e4_21",0,3,1155,"Include",79
"KL2012_e4","KL2012_e4_21",0,3,914,"Include",80
"KL2012_e4","KL2012_e4_21",0,4,4236,"Include",81
"KL2012_e4","KL2012_e4_21",1,3,1217,"Include",82
"KL2012_e4","KL2012_e4_21",1,3,1526,"Include",83
"KL2012_e4","KL2012_e4_21",0,4,2173,"Include",84
"KL2012_e4","KL2012_e4_21",1,4,1184,"Include",85
"KL2012_e4","KL2012_e4_21",1,3,809,"Include",86
"KL2012_e4","KL2012_e4_21",1,3,930,"Include",87
"KL2012_e4","KL2012_e4_21",1,3,573,"Include",88
"KL2012_e4","KL2012_e4_21",1,6,1124,"Include",89
"KL2012_e4","KL2012_e4_21",1,3,792,"Include",90
"KL2012_e4","KL2012_e4_21",1,3,964,"Include",91
"KL2012_e4","KL2012_e4_21",0,3,1984,"Include",92
"KL2012_e4","KL2012_e4_21",0,5,1435,"Include",93
"KL2012_e4","KL2012_e4_21",0,4,1782,"Include",94
"KL2012_e4","KL2012_e4_21",1,3,770,"Include",95
"KL2012_e4","KL2012_e4_21",0,2,1271,"Include",96
"KL2012_e4","KL2012_e4_22",1,5,9474,"Include",1
"KL2012_e4","KL2012_e4_22",1,6,1164,"Include",2
"KL2012_e4","KL2012_e4_22",1,6,998,"Include",3
"KL2012_e4","KL2012_e4_22",0,6,1297,"Include",4
"KL2012_e4","KL2012_e4_22",0,1,1462,"Include",5
"KL2012_e4","KL2012_e4_22",1,2,2526,"Include",6
"KL2012_e4","KL2012_e4_22",1,3,4024,"Include",7
"KL2012_e4","KL2012_e4_22",1,4,1560,"Include",8
"KL2012_e4","KL2012_e4_22",1,3,1545,"Include",9
"KL2012_e4","KL2012_e4_22",0,4,1737,"Include",10
"KL2012_e4","KL2012_e4_22",0,5,1478,"Include",11
"KL2012_e4","KL2012_e4_22",0,1,1665,"Include",12
"KL2012_e4","KL2012_e4_22",0,1,1373,"Include",13
"KL2012_e4","KL2012_e4_22",1,1,1187,"Include",14
"KL2012_e4","KL2012_e4_22",0,1,1859,"Include",15
"KL2012_e4","KL2012_e4_22",1,4,1816,"Include",16
"KL2012_e4","KL2012_e4_22",1,5,1325,"Include",17
"KL2012_e4","KL2012_e4_22",1,6,1092,"Include",18
"KL2012_e4","KL2012_e4_22",0,2,2162,"Include",19
"KL2012_e4","KL2012_e4_22",0,2,1050,"Include",20
"KL2012_e4","KL2012_e4_22",0,3,2287,"Include",21
"KL2012_e4","KL2012_e4_22",0,3,869,"Include",22
"KL2012_e4","KL2012_e4_22",1,4,1526,"Include",23
"KL2012_e4","KL2012_e4_22",0,4,1104,"Include",24
"KL2012_e4","KL2012_e4_22",1,5,888,"Include",25
"KL2012_e4","KL2012_e4_22",1,5,957,"Include",26
"KL2012_e4","KL2012_e4_22",1,6,2352,"Include",27
"KL2012_e4","KL2012_e4_22",1,3,1092,"Include",28
"KL2012_e4","KL2012_e4_22",0,6,2274,"Include",29
"KL2012_e4","KL2012_e4_22",1,6,962,"Include",30
"KL2012_e4","KL2012_e4_22",0,6,852,"Include",31
"KL2012_e4","KL2012_e4_22",0,4,1598,"Include",32
"KL2012_e4","KL2012_e4_22",0,3,1153,"Include",33
"KL2012_e4","KL2012_e4_22",1,4,2113,"Include",34
"KL2012_e4","KL2012_e4_22",1,6,977,"Include",35
"KL2012_e4","KL2012_e4_22",0,4,1598,"Include",36
"KL2012_e4","KL2012_e4_22",0,4,1432,"Include",37
"KL2012_e4","KL2012_e4_22",0,2,1352,"Include",38
"KL2012_e4","KL2012_e4_22",0,2,1071,"Include",39
"KL2012_e4","KL2012_e4_22",1,2,2559,"Include",40
"KL2012_e4","KL2012_e4_22",1,6,1665,"Include",41
"KL2012_e4","KL2012_e4_22",0,6,1993,"Include",42
"KL2012_e4","KL2012_e4_22",0,1,1649,"Include",43
"KL2012_e4","KL2012_e4_22",1,6,1518,"Include",44
"KL2012_e4","KL2012_e4_22",0,2,2597,"Include",45
"KL2012_e4","KL2012_e4_22",0,6,1256,"Include",46
"KL2012_e4","KL2012_e4_22",1,4,1797,"Include",47
"KL2012_e4","KL2012_e4_22",1,6,2600,"Include",48
"KL2012_e4","KL2012_e4_22",0,1,1082,"Include",49
"KL2012_e4","KL2012_e4_22",0,6,1957,"Include",50
"KL2012_e4","KL2012_e4_22",0,3,1511,"Include",51
"KL2012_e4","KL2012_e4_22",0,3,1102,"Include",52
"KL2012_e4","KL2012_e4_22",0,4,1102,"Include",53
"KL2012_e4","KL2012_e4_22",1,6,1142,"Include",54
"KL2012_e4","KL2012_e4_22",0,6,851,"Include",55
"KL2012_e4","KL2012_e4_22",1,1,936,"Include",56
"KL2012_e4","KL2012_e4_22",1,6,861,"Include",57
"KL2012_e4","KL2012_e4_22",0,3,1957,"Include",58
"KL2012_e4","KL2012_e4_22",1,1,852,"Include",59
"KL2012_e4","KL2012_e4_22",1,1,770,"Include",60
"KL2012_e4","KL2012_e4_22",1,6,647,"Include",61
"KL2012_e4","KL2012_e4_22",1,6,1378,"Include",62
"KL2012_e4","KL2012_e4_22",1,1,1327,"Include",63
"KL2012_e4","KL2012_e4_22",0,1,882,"Include",64
"KL2012_e4","KL2012_e4_22",0,6,2420,"Include",65
"KL2012_e4","KL2012_e4_22",1,3,2345,"Include",66
"KL2012_e4","KL2012_e4_22",1,3,1801,"Include",67
"KL2012_e4","KL2012_e4_22",1,6,1330,"Include",68
"KL2012_e4","KL2012_e4_22",1,3,5159,"Include",69
"KL2012_e4","KL2012_e4_22",1,3,970,"Include",70
"KL2012_e4","KL2012_e4_22",0,1,1839,"Include",71
"KL2012_e4","KL2012_e4_22",1,1,1545,"Include",72
"KL2012_e4","KL2012_e4_22",0,1,793,"Include",73
"KL2012_e4","KL2012_e4_22",0,1,769,"Include",74
"KL2012_e4","KL2012_e4_22",0,1,1918,"Include",75
"KL2012_e4","KL2012_e4_22",0,6,934,"Include",76
"KL2012_e4","KL2012_e4_22",0,1,1235,"Include",77
"KL2012_e4","KL2012_e4_22",0,1,2182,"Include",78
"KL2012_e4","KL2012_e4_22",0,1,805,"Include",79
"KL2012_e4","KL2012_e4_22",1,1,1400,"Include",80
"KL2012_e4","KL2012_e4_22",1,1,754,"Include",81
"KL2012_e4","KL2012_e4_22",0,6,10033,"Include",82
"KL2012_e4","KL2012_e4_22",1,1,1872,"Include",83
"KL2012_e4","KL2012_e4_22",1,6,11264,"Include",84
"KL2012_e4","KL2012_e4_22",0,1,1135,"Include",85
"KL2012_e4","KL2012_e4_22",1,1,1020,"Include",86
"KL2012_e4","KL2012_e4_22",1,1,1409,"Include",87
"KL2012_e4","KL2012_e4_22",1,6,955,"Include",88
"KL2012_e4","KL2012_e4_22",1,6,814,"Include",89
"KL2012_e4","KL2012_e4_22",1,6,827,"Include",90
"KL2012_e4","KL2012_e4_22",0,1,2778,"Include",91
"KL2012_e4","KL2012_e4_22",0,1,807,"Include",92
"KL2012_e4","KL2012_e4_22",1,6,4165,"Include",93
"KL2012_e4","KL2012_e4_22",0,1,855,"Include",94
"KL2012_e4","KL2012_e4_22",0,1,1004,"Include",95
"KL2012_e4","KL2012_e4_22",0,6,1131,"Include",96
"KL2012_e4","KL2012_e4_23",0,5,9993,"Include",1
"KL2012_e4","KL2012_e4_23",0,2,4785,"Include",2
"KL2012_e4","KL2012_e4_23",0,5,7784,"Include",3
"KL2012_e4","KL2012_e4_23",1,2,3462,"Include",4
"KL2012_e4","KL2012_e4_23",1,3,7707,"Include",5
"KL2012_e4","KL2012_e4_23",0,1,2106,"Include",6
"KL2012_e4","KL2012_e4_23",1,6,3864,"Include",7
"KL2012_e4","KL2012_e4_23",1,6,3255,"Include",8
"KL2012_e4","KL2012_e4_23",1,3,2420,"Include",9
"KL2012_e4","KL2012_e4_23",0,2,5890,"Include",10
"KL2012_e4","KL2012_e4_23",0,5,3982,"Include",11
"KL2012_e4","KL2012_e4_23",0,1,2156,"Include",12
"KL2012_e4","KL2012_e4_23",1,6,2518,"Include",13
"KL2012_e4","KL2012_e4_23",0,1,1983,"Include",14
"KL2012_e4","KL2012_e4_23",1,6,1999,"Include",15
"KL2012_e4","KL2012_e4_23",1,4,4464,"Include",16
"KL2012_e4","KL2012_e4_23",1,2,2295,"Include",17
"KL2012_e4","KL2012_e4_23",1,6,1828,"Include",18
"KL2012_e4","KL2012_e4_23",0,4,4130,"Include",19
"KL2012_e4","KL2012_e4_23",0,2,3318,"Include",20
"KL2012_e4","KL2012_e4_23",1,3,2304,"Include",21
"KL2012_e4","KL2012_e4_23",0,4,2743,"Include",22
"KL2012_e4","KL2012_e4_23",0,5,1686,"Include",23
"KL2012_e4","KL2012_e4_23",1,2,1970,"Include",24
"KL2012_e4","KL2012_e4_23",1,5,1799,"Include",25
"KL2012_e4","KL2012_e4_23",0,1,1689,"Include",26
"KL2012_e4","KL2012_e4_23",1,6,1470,"Include",27
"KL2012_e4","KL2012_e4_23",0,1,2084,"Include",28
"KL2012_e4","KL2012_e4_23",0,1,1153,"Include",29
"KL2012_e4","KL2012_e4_23",0,2,4243,"Include",30
"KL2012_e4","KL2012_e4_23",1,4,3013,"Include",31
"KL2012_e4","KL2012_e4_23",0,4,1920,"Include",32
"KL2012_e4","KL2012_e4_23",0,4,931,"Include",33
"KL2012_e4","KL2012_e4_23",0,3,4639,"Include",34
"KL2012_e4","KL2012_e4_23",1,2,2480,"Include",35
"KL2012_e4","KL2012_e4_23",0,5,2018,"Include",36
"KL2012_e4","KL2012_e4_23",0,4,4225,"Include",37
"KL2012_e4","KL2012_e4_23",1,1,2463,"Include",38
"KL2012_e4","KL2012_e4_23",1,2,6182,"Include",39
"KL2012_e4","KL2012_e4_23",0,2,1469,"Include",40
"KL2012_e4","KL2012_e4_23",1,6,1715,"Include",41
"KL2012_e4","KL2012_e4_23",1,5,4973,"Include",42
"KL2012_e4","KL2012_e4_23",0,5,1297,"Include",43
"KL2012_e4","KL2012_e4_23",0,2,1829,"Include",44
"KL2012_e4","KL2012_e4_23",0,4,3373,"Include",45
"KL2012_e4","KL2012_e4_23",0,2,3801,"Include",46
"KL2012_e4","KL2012_e4_23",0,5,2906,"Include",47
"KL2012_e4","KL2012_e4_23",1,6,2737,"Include",48
"KL2012_e4","KL2012_e4_23",1,2,1973,"Include",49
"KL2012_e4","KL2012_e4_23",1,6,3777,"Include",50
"KL2012_e4","KL2012_e4_23",1,6,1974,"Include",51
"KL2012_e4","KL2012_e4_23",0,4,3530,"Include",52
"KL2012_e4","KL2012_e4_23",1,4,4230,"Include",53
"KL2012_e4","KL2012_e4_23",1,4,1733,"Include",54
"KL2012_e4","KL2012_e4_23",1,6,3625,"Include",55
"KL2012_e4","KL2012_e4_23",0,4,5359,"Include",56
"KL2012_e4","KL2012_e4_23",1,2,1753,"Include",57
"KL2012_e4","KL2012_e4_23",0,6,1555,"Include",58
"KL2012_e4","KL2012_e4_23",1,6,3204,"Include",59
"KL2012_e4","KL2012_e4_23",1,5,6560,"Include",60
"KL2012_e4","KL2012_e4_23",0,3,8799,"Include",61
"KL2012_e4","KL2012_e4_23",1,5,3337,"Include",62
"KL2012_e4","KL2012_e4_23",0,2,2653,"Include",63
"KL2012_e4","KL2012_e4_23",1,5,1633,"Include",64
"KL2012_e4","KL2012_e4_23",1,2,3859,"Include",65
"KL2012_e4","KL2012_e4_23",1,5,3537,"Include",66
"KL2012_e4","KL2012_e4_23",0,5,1558,"Include",67
"KL2012_e4","KL2012_e4_23",1,6,1207,"Include",68
"KL2012_e4","KL2012_e4_23",0,1,3188,"Include",69
"KL2012_e4","KL2012_e4_23",0,1,1931,"Include",70
"KL2012_e4","KL2012_e4_23",0,1,2736,"Include",71
"KL2012_e4","KL2012_e4_23",1,6,1804,"Include",72
"KL2012_e4","KL2012_e4_23",0,5,3365,"Include",73
"KL2012_e4","KL2012_e4_23",0,5,6225,"Include",74
"KL2012_e4","KL2012_e4_23",0,6,2687,"Include",75
"KL2012_e4","KL2012_e4_23",0,2,3964,"Include",76
"KL2012_e4","KL2012_e4_23",1,4,5029,"Include",77
"KL2012_e4","KL2012_e4_23",1,3,2379,"Include",78
"KL2012_e4","KL2012_e4_23",0,2,1627,"Include",79
"KL2012_e4","KL2012_e4_23",1,2,1273,"Include",80
"KL2012_e4","KL2012_e4_23",1,6,2540,"Include",81
"KL2012_e4","KL2012_e4_23",1,5,4834,"Include",82
"KL2012_e4","KL2012_e4_23",0,3,3587,"Include",83
"KL2012_e4","KL2012_e4_23",1,4,3961,"Include",84
"KL2012_e4","KL2012_e4_23",1,4,1668,"Include",85
"KL2012_e4","KL2012_e4_23",1,3,1978,"Include",86
"KL2012_e4","KL2012_e4_23",1,3,1698,"Include",87
"KL2012_e4","KL2012_e4_23",0,5,2969,"Include",88
"KL2012_e4","KL2012_e4_23",0,1,1901,"Include",89
"KL2012_e4","KL2012_e4_23",0,1,1444,"Include",90
"KL2012_e4","KL2012_e4_23",1,6,5632,"Include",91
"KL2012_e4","KL2012_e4_23",0,1,1234,"Include",92
"KL2012_e4","KL2012_e4_23",1,6,2907,"Include",93
"KL2012_e4","KL2012_e4_23",0,1,1307,"Include",94
"KL2012_e4","KL2012_e4_23",0,2,3978,"Include",95
"KL2012_e4","KL2012_e4_23",1,2,1774,"Include",96
"KL2012_e4","KL2012_e4_24",0,6,3991,"Include",1
"KL2012_e4","KL2012_e4_24",0,3,7834,"Include",2
"KL2012_e4","KL2012_e4_24",1,5,2041,"Include",3
"KL2012_e4","KL2012_e4_24",1,5,869,"Include",4
"KL2012_e4","KL2012_e4_24",0,1,2221,"Include",5
"KL2012_e4","KL2012_e4_24",1,4,4328,"Include",6
"KL2012_e4","KL2012_e4_24",0,2,4809,"Include",7
"KL2012_e4","KL2012_e4_24",0,1,2542,"Include",8
"KL2012_e4","KL2012_e4_24",0,4,5428,"Include",9
"KL2012_e4","KL2012_e4_24",1,4,2201,"Include",10
"KL2012_e4","KL2012_e4_24",0,6,1279,"Include",11
"KL2012_e4","KL2012_e4_24",0,4,1835,"Include",12
"KL2012_e4","KL2012_e4_24",1,3,2161,"Include",13
"KL2012_e4","KL2012_e4_24",0,4,1695,"Include",14
"KL2012_e4","KL2012_e4_24",0,2,3653,"Include",15
"KL2012_e4","KL2012_e4_24",0,1,2229,"Include",16
"KL2012_e4","KL2012_e4_24",1,5,2532,"Include",17
"KL2012_e4","KL2012_e4_24",1,3,4830,"Include",18
"KL2012_e4","KL2012_e4_24",1,5,2010,"Include",19
"KL2012_e4","KL2012_e4_24",0,4,1992,"Include",20
"KL2012_e4","KL2012_e4_24",1,3,4710,"Include",21
"KL2012_e4","KL2012_e4_24",1,4,3966,"Include",22
"KL2012_e4","KL2012_e4_24",0,1,2690,"Include",23
"KL2012_e4","KL2012_e4_24",1,6,2174,"Include",24
"KL2012_e4","KL2012_e4_24",1,6,1033,"Include",25
"KL2012_e4","KL2012_e4_24",0,4,2762,"Include",26
"KL2012_e4","KL2012_e4_24",1,1,2817,"Include",27
"KL2012_e4","KL2012_e4_24",0,1,929,"Include",28
"KL2012_e4","KL2012_e4_24",0,3,2816,"Include",29
"KL2012_e4","KL2012_e4_24",1,6,1490,"Include",30
"KL2012_e4","KL2012_e4_24",1,6,940,"Include",31
"KL2012_e4","KL2012_e4_24",1,6,2792,"Include",32
"KL2012_e4","KL2012_e4_24",1,2,4177,"Include",33
"KL2012_e4","KL2012_e4_24",0,5,3197,"Include",34
"KL2012_e4","KL2012_e4_24",0,4,3468,"Include",35
"KL2012_e4","KL2012_e4_24",0,3,1624,"Include",36
"KL2012_e4","KL2012_e4_24",1,5,1805,"Include",37
"KL2012_e4","KL2012_e4_24",1,2,3382,"Include",38
"KL2012_e4","KL2012_e4_24",0,5,1988,"Include",39
"KL2012_e4","KL2012_e4_24",0,4,1647,"Include",40
"KL2012_e4","KL2012_e4_24",1,6,1275,"Include",41
"KL2012_e4","KL2012_e4_24",0,1,1454,"Include",42
"KL2012_e4","KL2012_e4_24",1,4,4921,"Include",43
"KL2012_e4","KL2012_e4_24",0,1,2480,"Include",44
"KL2012_e4","KL2012_e4_24",0,3,1671,"Include",45
"KL2012_e4","KL2012_e4_24",1,5,2571,"Include",46
"KL2012_e4","KL2012_e4_24",1,4,4665,"Include",47
"KL2012_e4","KL2012_e4_24",1,6,1907,"Include",48
"KL2012_e4","KL2012_e4_24",1,3,8620,"Include",49
"KL2012_e4","KL2012_e4_24",0,4,5885,"Include",50
"KL2012_e4","KL2012_e4_24",1,6,2550,"Include",51
"KL2012_e4","KL2012_e4_24",1,6,1646,"Include",52
"KL2012_e4","KL2012_e4_24",0,3,4599,"Include",53
"KL2012_e4","KL2012_e4_24",1,5,1302,"Include",54
"KL2012_e4","KL2012_e4_24",0,6,1245,"Include",55
"KL2012_e4","KL2012_e4_24",0,4,5400,"Include",56
"KL2012_e4","KL2012_e4_24",0,2,2147,"Include",57
"KL2012_e4","KL2012_e4_24",0,1,1708,"Include",58
"KL2012_e4","KL2012_e4_24",0,3,1535,"Include",59
"KL2012_e4","KL2012_e4_24",1,5,1546,"Include",60
"KL2012_e4","KL2012_e4_24",1,5,1559,"Include",61
"KL2012_e4","KL2012_e4_24",1,6,2689,"Include",62
"KL2012_e4","KL2012_e4_24",0,4,8373,"Include",63
"KL2012_e4","KL2012_e4_24",1,6,2059,"Include",64
"KL2012_e4","KL2012_e4_24",1,2,1598,"Include",65
"KL2012_e4","KL2012_e4_24",1,3,1303,"Include",66
"KL2012_e4","KL2012_e4_24",0,2,1997,"Include",67
"KL2012_e4","KL2012_e4_24",1,4,1964,"Include",68
"KL2012_e4","KL2012_e4_24",1,3,2014,"Include",69
"KL2012_e4","KL2012_e4_24",1,5,1287,"Include",70
"KL2012_e4","KL2012_e4_24",1,6,1108,"Include",71
"KL2012_e4","KL2012_e4_24",0,4,8375,"Include",72
"KL2012_e4","KL2012_e4_24",0,3,2108,"Include",73
"KL2012_e4","KL2012_e4_24",1,6,1952,"Include",74
"KL2012_e4","KL2012_e4_24",1,6,939,"Include",75
"KL2012_e4","KL2012_e4_24",1,6,4359,"Include",76
"KL2012_e4","KL2012_e4_24",0,6,1109,"Include",77
"KL2012_e4","KL2012_e4_24",0,2,4007,"Include",78
"KL2012_e4","KL2012_e4_24",1,2,2202,"Include",79
"KL2012_e4","KL2012_e4_24",0,3,6619,"Include",80
"KL2012_e4","KL2012_e4_24",1,5,3304,"Include",81
"KL2012_e4","KL2012_e4_24",0,5,1621,"Include",82
"KL2012_e4","KL2012_e4_24",0,4,1865,"Include",83
"KL2012_e4","KL2012_e4_24",1,2,4305,"Include",84
"KL2012_e4","KL2012_e4_24",0,2,1163,"Include",85
"KL2012_e4","KL2012_e4_24",0,3,4327,"Include",86
"KL2012_e4","KL2012_e4_24",0,6,1729,"Include",87
"KL2012_e4","KL2012_e4_24",0,1,1704,"Include",88
"KL2012_e4","KL2012_e4_24",1,2,1571,"Include",89
"KL2012_e4","KL2012_e4_24",0,4,2746,"Include",90
"KL2012_e4","KL2012_e4_24",0,5,3995,"Include",91
"KL2012_e4","KL2012_e4_24",0,2,1505,"Include",92
"KL2012_e4","KL2012_e4_24",1,2,3020,"Include",93
"KL2012_e4","KL2012_e4_24",0,1,3901,"Include",94
"KL2012_e4","KL2012_e4_24",1,4,2236,"Include",95
"KL2012_e4","KL2012_e4_24",1,3,2565,"Include",96
"KL2012_e4","KL2012_e4_25",0,5,7419,"Include",1
"KL2012_e4","KL2012_e4_25",1,6,1703,"Include",2
"KL2012_e4","KL2012_e4_25",1,6,1207,"Include",3
"KL2012_e4","KL2012_e4_25",1,6,846,"Include",4
"KL2012_e4","KL2012_e4_25",0,6,3809,"Include",5
"KL2012_e4","KL2012_e4_25",0,1,2037,"Include",6
"KL2012_e4","KL2012_e4_25",0,5,2392,"Include",7
"KL2012_e4","KL2012_e4_25",0,2,4983,"Include",8
"KL2012_e4","KL2012_e4_25",1,4,4543,"Include",9
"KL2012_e4","KL2012_e4_25",1,6,2187,"Include",10
"KL2012_e4","KL2012_e4_25",0,6,792,"Include",11
"KL2012_e4","KL2012_e4_25",0,2,5361,"Include",12
"KL2012_e4","KL2012_e4_25",0,2,2251,"Include",13
"KL2012_e4","KL2012_e4_25",0,5,2472,"Include",14
"KL2012_e4","KL2012_e4_25",1,6,1992,"Include",15
"KL2012_e4","KL2012_e4_25",0,1,2918,"Include",16
"KL2012_e4","KL2012_e4_25",0,2,3529,"Include",17
"KL2012_e4","KL2012_e4_25",0,2,5342,"Include",18
"KL2012_e4","KL2012_e4_25",0,2,3589,"Include",19
"KL2012_e4","KL2012_e4_25",0,1,1973,"Include",20
"KL2012_e4","KL2012_e4_25",0,1,1730,"Include",21
"KL2012_e4","KL2012_e4_25",0,4,5751,"Include",22
"KL2012_e4","KL2012_e4_25",1,6,1437,"Include",23
"KL2012_e4","KL2012_e4_25",1,5,2240,"Include",24
"KL2012_e4","KL2012_e4_25",1,6,1298,"Include",25
"KL2012_e4","KL2012_e4_25",0,2,5237,"Include",26
"KL2012_e4","KL2012_e4_25",0,4,3199,"Include",27
"KL2012_e4","KL2012_e4_25",1,6,1489,"Include",28
"KL2012_e4","KL2012_e4_25",0,6,2494,"Include",29
"KL2012_e4","KL2012_e4_25",0,1,4080,"Include",30
"KL2012_e4","KL2012_e4_25",0,3,3459,"Include",31
"KL2012_e4","KL2012_e4_25",0,5,2567,"Include",32
"KL2012_e4","KL2012_e4_25",1,6,3020,"Include",33
"KL2012_e4","KL2012_e4_25",0,1,2993,"Include",34
"KL2012_e4","KL2012_e4_25",1,6,1537,"Include",35
"KL2012_e4","KL2012_e4_25",1,4,4406,"Include",36
"KL2012_e4","KL2012_e4_25",1,5,5936,"Include",37
"KL2012_e4","KL2012_e4_25",1,2,3837,"Include",38
"KL2012_e4","KL2012_e4_25",0,3,2942,"Include",39
"KL2012_e4","KL2012_e4_25",1,6,1302,"Include",40
"KL2012_e4","KL2012_e4_25",1,6,2859,"Include",41
"KL2012_e4","KL2012_e4_25",1,2,2336,"Include",42
"KL2012_e4","KL2012_e4_25",1,2,5173,"Include",43
"KL2012_e4","KL2012_e4_25",1,4,9738,"Include",44
"KL2012_e4","KL2012_e4_25",1,6,2566,"Include",45
"KL2012_e4","KL2012_e4_25",0,1,2533,"Include",46
"KL2012_e4","KL2012_e4_25",0,1,3650,"Include",47
"KL2012_e4","KL2012_e4_25",1,2,3039,"Include",48
"KL2012_e4","KL2012_e4_25",1,6,5433,"Include",49
"KL2012_e4","KL2012_e4_25",0,4,4334,"Include",50
"KL2012_e4","KL2012_e4_25",1,1,1963,"Include",51
"KL2012_e4","KL2012_e4_25",0,2,6965,"Include",52
"KL2012_e4","KL2012_e4_25",1,6,3118,"Include",53
"KL2012_e4","KL2012_e4_25",1,2,9001,"Include",54
"KL2012_e4","KL2012_e4_25",1,6,8914,"Include",55
"KL2012_e4","KL2012_e4_25",1,2,2849,"Include",56
"KL2012_e4","KL2012_e4_25",0,2,3388,"Include",57
"KL2012_e4","KL2012_e4_25",0,1,1743,"Include",58
"KL2012_e4","KL2012_e4_25",1,6,1469,"Include",59
"KL2012_e4","KL2012_e4_25",1,1,1661,"Include",60
"KL2012_e4","KL2012_e4_25",1,5,3593,"Include",61
"KL2012_e4","KL2012_e4_25",1,6,1430,"Include",62
"KL2012_e4","KL2012_e4_25",0,1,3087,"Include",63
"KL2012_e4","KL2012_e4_25",0,3,2697,"Include",64
"KL2012_e4","KL2012_e4_25",0,6,1798,"Include",65
"KL2012_e4","KL2012_e4_25",0,1,2510,"Include",66
"KL2012_e4","KL2012_e4_25",1,6,2730,"Include",67
"KL2012_e4","KL2012_e4_25",1,5,8407,"Include",68
"KL2012_e4","KL2012_e4_25",0,6,3497,"Include",69
"KL2012_e4","KL2012_e4_25",0,3,3366,"Include",70
"KL2012_e4","KL2012_e4_25",0,2,2240,"Include",71
"KL2012_e4","KL2012_e4_25",0,2,2322,"Include",72
"KL2012_e4","KL2012_e4_25",0,2,5493,"Include",73
"KL2012_e4","KL2012_e4_25",0,2,5169,"Include",74
"KL2012_e4","KL2012_e4_25",1,5,2149,"Include",75
"KL2012_e4","KL2012_e4_25",0,1,2901,"Include",76
"KL2012_e4","KL2012_e4_25",1,1,3365,"Include",77
"KL2012_e4","KL2012_e4_25",1,1,2647,"Include",78
"KL2012_e4","KL2012_e4_25",1,1,2953,"Include",79
"KL2012_e4","KL2012_e4_25",1,6,4633,"Include",80
"KL2012_e4","KL2012_e4_25",1,5,5806,"Include",81
"KL2012_e4","KL2012_e4_25",0,4,8855,"Include",82
"KL2012_e4","KL2012_e4_25",1,6,2084,"Include",83
"KL2012_e4","KL2012_e4_25",1,2,5878,"Include",84
"KL2012_e4","KL2012_e4_25",0,2,1560,"Include",85
"KL2012_e4","KL2012_e4_25",1,3,4938,"Include",86
"KL2012_e4","KL2012_e4_25",0,2,6382,"Include",87
"KL2012_e4","KL2012_e4_25",1,2,10334,"Include",88
"KL2012_e4","KL2012_e4_25",1,5,3410,"Include",89
"KL2012_e4","KL2012_e4_25",0,2,2463,"Include",90
"KL2012_e4","KL2012_e4_25",0,1,2559,"Include",91
"KL2012_e4","KL2012_e4_25",0,2,5705,"Include",92
"KL2012_e4","KL2012_e4_25",1,2,3319,"Include",93
"KL2012_e4","KL2012_e4_25",1,2,3090,"Include",94
"KL2012_e4","KL2012_e4_25",0,3,5103,"Include",95
"KL2012_e4","KL2012_e4_25",1,6,1718,"Include",96
"KL2012_e4","KL2012_e4_26",1,1,8446,"Include",1
"KL2012_e4","KL2012_e4_26",1,2,2145,"Include",2
"KL2012_e4","KL2012_e4_26",1,4,5152,"Include",3
"KL2012_e4","KL2012_e4_26",0,4,1850,"Include",4
"KL2012_e4","KL2012_e4_26",1,4,3742,"Include",5
"KL2012_e4","KL2012_e4_26",0,6,3396,"Include",6
"KL2012_e4","KL2012_e4_26",0,3,2958,"Include",7
"KL2012_e4","KL2012_e4_26",1,4,2600,"Include",8
"KL2012_e4","KL2012_e4_26",1,6,3889,"Include",9
"KL2012_e4","KL2012_e4_26",0,6,726,"Include",10
"KL2012_e4","KL2012_e4_26",1,1,2130,"Include",11
"KL2012_e4","KL2012_e4_26",0,3,1239,"Include",12
"KL2012_e4","KL2012_e4_26",0,4,1808,"Include",13
"KL2012_e4","KL2012_e4_26",1,2,4892,"Include",14
"KL2012_e4","KL2012_e4_26",0,3,4600,"Include",15
"KL2012_e4","KL2012_e4_26",0,4,2258,"Include",16
"KL2012_e4","KL2012_e4_26",1,5,1041,"Include",17
"KL2012_e4","KL2012_e4_26",0,5,1195,"Include",18
"KL2012_e4","KL2012_e4_26",1,5,1190,"Include",19
"KL2012_e4","KL2012_e4_26",0,3,3788,"Include",20
"KL2012_e4","KL2012_e4_26",0,1,4491,"Include",21
"KL2012_e4","KL2012_e4_26",0,6,1966,"Include",22
"KL2012_e4","KL2012_e4_26",1,6,1195,"Include",23
"KL2012_e4","KL2012_e4_26",1,6,982,"Include",24
"KL2012_e4","KL2012_e4_26",0,3,3069,"Include",25
"KL2012_e4","KL2012_e4_26",0,3,1636,"Include",26
"KL2012_e4","KL2012_e4_26",1,2,3526,"Include",27
"KL2012_e4","KL2012_e4_26",1,3,2473,"Include",28
"KL2012_e4","KL2012_e4_26",1,6,1524,"Include",29
"KL2012_e4","KL2012_e4_26",0,4,2365,"Include",30
"KL2012_e4","KL2012_e4_26",0,2,4985,"Include",31
"KL2012_e4","KL2012_e4_26",1,6,864,"Include",32
"KL2012_e4","KL2012_e4_26",0,6,960,"Include",33
"KL2012_e4","KL2012_e4_26",0,3,2498,"Include",34
"KL2012_e4","KL2012_e4_26",1,6,1497,"Include",35
"KL2012_e4","KL2012_e4_26",0,3,3245,"Include",36
"KL2012_e4","KL2012_e4_26",0,4,1849,"Include",37
"KL2012_e4","KL2012_e4_26",1,6,1430,"Include",38
"KL2012_e4","KL2012_e4_26",1,2,1278,"Include",39
"KL2012_e4","KL2012_e4_26",1,5,1657,"Include",40
"KL2012_e4","KL2012_e4_26",0,6,3566,"Include",41
"KL2012_e4","KL2012_e4_26",1,6,1355,"Include",42
"KL2012_e4","KL2012_e4_26",1,4,2052,"Include",43
"KL2012_e4","KL2012_e4_26",1,6,1009,"Include",44
"KL2012_e4","KL2012_e4_26",0,1,1958,"Include",45
"KL2012_e4","KL2012_e4_26",1,6,1032,"Include",46
"KL2012_e4","KL2012_e4_26",1,6,818,"Include",47
"KL2012_e4","KL2012_e4_26",0,6,818,"Include",48
"KL2012_e4","KL2012_e4_26",1,3,2537,"Include",49
"KL2012_e4","KL2012_e4_26",0,3,2312,"Include",50
"KL2012_e4","KL2012_e4_26",1,6,994,"Include",51
"KL2012_e4","KL2012_e4_26",1,6,884,"Include",52
"KL2012_e4","KL2012_e4_26",0,6,953,"Include",53
"KL2012_e4","KL2012_e4_26",1,1,1627,"Include",54
"KL2012_e4","KL2012_e4_26",0,4,1594,"Include",55
"KL2012_e4","KL2012_e4_26",1,6,1501,"Include",56
"KL2012_e4","KL2012_e4_26",0,5,1308,"Include",57
"KL2012_e4","KL2012_e4_26",0,3,1451,"Include",58
"KL2012_e4","KL2012_e4_26",1,6,1031,"Include",59
"KL2012_e4","KL2012_e4_26",0,6,786,"Include",60
"KL2012_e4","KL2012_e4_26",0,2,2338,"Include",61
"KL2012_e4","KL2012_e4_26",0,6,1590,"Include",62
"KL2012_e4","KL2012_e4_26",0,6,1965,"Include",63
"KL2012_e4","KL2012_e4_26",0,6,2201,"Include",64
"KL2012_e4","KL2012_e4_26",0,4,2188,"Include",65
"KL2012_e4","KL2012_e4_26",1,6,1218,"Include",66
"KL2012_e4","KL2012_e4_26",1,4,882,"Include",67
"KL2012_e4","KL2012_e4_26",0,3,764,"Include",68
"KL2012_e4","KL2012_e4_26",0,3,1313,"Include",69
"KL2012_e4","KL2012_e4_26",0,6,2019,"Include",70
"KL2012_e4","KL2012_e4_26",0,2,6122,"Include",71
"KL2012_e4","KL2012_e4_26",1,4,2395,"Include",72
"KL2012_e4","KL2012_e4_26",1,6,1405,"Include",73
"KL2012_e4","KL2012_e4_26",0,6,1793,"Include",74
"KL2012_e4","KL2012_e4_26",1,6,4122,"Include",75
"KL2012_e4","KL2012_e4_26",1,6,2572,"Include",76
"KL2012_e4","KL2012_e4_26",1,5,1632,"Include",77
"KL2012_e4","KL2012_e4_26",1,6,1539,"Include",78
"KL2012_e4","KL2012_e4_26",1,1,1473,"Include",79
"KL2012_e4","KL2012_e4_26",0,2,3308,"Include",80
"KL2012_e4","KL2012_e4_26",0,6,1402,"Include",81
"KL2012_e4","KL2012_e4_26",1,6,917,"Include",82
"KL2012_e4","KL2012_e4_26",1,1,2782,"Include",83
"KL2012_e4","KL2012_e4_26",0,1,1182,"Include",84
"KL2012_e4","KL2012_e4_26",1,6,1053,"Include",85
"KL2012_e4","KL2012_e4_26",1,6,1018,"Include",86
"KL2012_e4","KL2012_e4_26",0,1,1473,"Include",87
"KL2012_e4","KL2012_e4_26",1,4,1596,"Include",88
"KL2012_e4","KL2012_e4_26",0,4,301,"Include",89
"KL2012_e4","KL2012_e4_26",0,5,933,"Include",90
"KL2012_e4","KL2012_e4_26",0,6,994,"Include",91
"KL2012_e4","KL2012_e4_26",1,6,773,"Include",92
"KL2012_e4","KL2012_e4_26",0,3,1681,"Include",93
"KL2012_e4","KL2012_e4_26",1,4,1435,"Include",94
"KL2012_e4","KL2012_e4_26",0,5,542,"Include",95
"KL2012_e4","KL2012_e4_26",1,4,644,"Include",96
"KL2012_e4","KL2012_e4_27",1,6,2929,"Include",1
"KL2012_e4","KL2012_e4_27",1,4,4588,"Include",2
"KL2012_e4","KL2012_e4_27",1,1,3641,"Include",3
"KL2012_e4","KL2012_e4_27",0,1,1999,"Include",4
"KL2012_e4","KL2012_e4_27",0,3,2624,"Include",5
"KL2012_e4","KL2012_e4_27",0,1,1530,"Include",6
"KL2012_e4","KL2012_e4_27",0,1,1303,"Include",7
"KL2012_e4","KL2012_e4_27",1,2,2700,"Include",8
"KL2012_e4","KL2012_e4_27",0,2,1253,"Include",9
"KL2012_e4","KL2012_e4_27",0,2,1320,"Include",10
"KL2012_e4","KL2012_e4_27",0,3,1956,"Include",11
"KL2012_e4","KL2012_e4_27",0,3,3342,"Include",12
"KL2012_e4","KL2012_e4_27",1,6,2124,"Include",13
"KL2012_e4","KL2012_e4_27",1,6,1156,"Include",14
"KL2012_e4","KL2012_e4_27",0,6,1226,"Include",15
"KL2012_e4","KL2012_e4_27",1,4,1645,"Include",16
"KL2012_e4","KL2012_e4_27",0,1,1487,"Include",17
"KL2012_e4","KL2012_e4_27",1,6,1494,"Include",18
"KL2012_e4","KL2012_e4_27",0,5,1710,"Include",19
"KL2012_e4","KL2012_e4_27",0,2,1301,"Include",20
"KL2012_e4","KL2012_e4_27",0,1,1838,"Include",21
"KL2012_e4","KL2012_e4_27",1,1,1153,"Include",22
"KL2012_e4","KL2012_e4_27",0,3,1497,"Include",23
"KL2012_e4","KL2012_e4_27",0,4,1557,"Include",24
"KL2012_e4","KL2012_e4_27",1,6,1454,"Include",25
"KL2012_e4","KL2012_e4_27",1,6,1479,"Include",26
"KL2012_e4","KL2012_e4_27",1,6,1343,"Include",27
"KL2012_e4","KL2012_e4_27",0,3,1253,"Include",28
"KL2012_e4","KL2012_e4_27",1,6,3707,"Include",29
"KL2012_e4","KL2012_e4_27",0,1,1310,"Include",30
"KL2012_e4","KL2012_e4_27",0,3,1268,"Include",31
"KL2012_e4","KL2012_e4_27",0,6,1546,"Include",32
"KL2012_e4","KL2012_e4_27",0,6,971,"Include",33
"KL2012_e4","KL2012_e4_27",1,4,1460,"Include",34
"KL2012_e4","KL2012_e4_27",0,6,1401,"Include",35
"KL2012_e4","KL2012_e4_27",0,1,1521,"Include",36
"KL2012_e4","KL2012_e4_27",0,1,1044,"Include",37
"KL2012_e4","KL2012_e4_27",1,3,1262,"Include",38
"KL2012_e4","KL2012_e4_27",0,1,967,"Include",39
"KL2012_e4","KL2012_e4_27",1,3,2110,"Include",40
"KL2012_e4","KL2012_e4_27",0,2,3222,"Include",41
"KL2012_e4","KL2012_e4_27",0,4,2457,"Include",42
"KL2012_e4","KL2012_e4_27",1,1,1774,"Include",43
"KL2012_e4","KL2012_e4_27",0,2,1374,"Include",44
"KL2012_e4","KL2012_e4_27",1,6,1536,"Include",45
"KL2012_e4","KL2012_e4_27",0,4,5374,"Include",46
"KL2012_e4","KL2012_e4_27",0,1,1538,"Include",47
"KL2012_e4","KL2012_e4_27",0,1,1084,"Include",48
"KL2012_e4","KL2012_e4_27",1,1,944,"Include",49
"KL2012_e4","KL2012_e4_27",1,6,1140,"Include",50
"KL2012_e4","KL2012_e4_27",1,6,1133,"Include",51
"KL2012_e4","KL2012_e4_27",1,4,1176,"Include",52
"KL2012_e4","KL2012_e4_27",1,6,1205,"Include",53
"KL2012_e4","KL2012_e4_27",1,6,1239,"Include",54
"KL2012_e4","KL2012_e4_27",0,4,2120,"Include",55
"KL2012_e4","KL2012_e4_27",1,6,1049,"Include",56
"KL2012_e4","KL2012_e4_27",0,3,4207,"Include",57
"KL2012_e4","KL2012_e4_27",1,6,2168,"Include",58
"KL2012_e4","KL2012_e4_27",1,6,969,"Include",59
"KL2012_e4","KL2012_e4_27",1,6,901,"Include",60
"KL2012_e4","KL2012_e4_27",1,6,871,"Include",61
"KL2012_e4","KL2012_e4_27",0,4,1895,"Include",62
"KL2012_e4","KL2012_e4_27",0,1,1475,"Include",63
"KL2012_e4","KL2012_e4_27",1,6,1135,"Include",64
"KL2012_e4","KL2012_e4_27",1,2,2938,"Include",65
"KL2012_e4","KL2012_e4_27",0,1,1412,"Include",66
"KL2012_e4","KL2012_e4_27",0,6,1646,"Include",67
"KL2012_e4","KL2012_e4_27",0,1,2180,"Include",68
"KL2012_e4","KL2012_e4_27",1,1,998,"Include",69
"KL2012_e4","KL2012_e4_27",0,1,842,"Include",70
"KL2012_e4","KL2012_e4_27",1,6,2174,"Include",71
"KL2012_e4","KL2012_e4_27",1,4,1445,"Include",72
"KL2012_e4","KL2012_e4_27",0,2,1563,"Include",73
"KL2012_e4","KL2012_e4_27",0,2,1245,"Include",74
"KL2012_e4","KL2012_e4_27",0,4,1442,"Include",75
"KL2012_e4","KL2012_e4_27",0,2,1631,"Include",76
"KL2012_e4","KL2012_e4_27",1,6,1438,"Include",77
"KL2012_e4","KL2012_e4_27",0,5,6382,"Include",78
"KL2012_e4","KL2012_e4_27",1,1,1309,"Include",79
"KL2012_e4","KL2012_e4_27",1,2,6714,"Include",80
"KL2012_e4","KL2012_e4_27",0,2,2342,"Include",81
"KL2012_e4","KL2012_e4_27",1,4,3361,"Include",82
"KL2012_e4","KL2012_e4_27",1,6,1242,"Include",83
"KL2012_e4","KL2012_e4_27",1,6,1057,"Include",84
"KL2012_e4","KL2012_e4_27",0,2,1607,"Include",85
"KL2012_e4","KL2012_e4_27",1,2,1304,"Include",86
"KL2012_e4","KL2012_e4_27",0,1,851,"Include",87
"KL2012_e4","KL2012_e4_27",1,5,1249,"Include",88
"KL2012_e4","KL2012_e4_27",1,2,1609,"Include",89
"KL2012_e4","KL2012_e4_27",1,4,1648,"Include",90
"KL2012_e4","KL2012_e4_27",0,4,856,"Include",91
"KL2012_e4","KL2012_e4_27",1,2,969,"Include",92
"KL2012_e4","KL2012_e4_27",1,1,1727,"Include",93
"KL2012_e4","KL2012_e4_27",1,1,883,"Include",94
"KL2012_e4","KL2012_e4_27",0,4,1473,"Include",95
"KL2012_e4","KL2012_e4_27",1,3,965,"Include",96
"KL2012_e4","KL2012_e4_28",0,1,7286,"Include",1
"KL2012_e4","KL2012_e4_28",0,2,4151,"Include",2
"KL2012_e4","KL2012_e4_28",1,2,1751,"Include",3
"KL2012_e4","KL2012_e4_28",1,6,2551,"Include",4
"KL2012_e4","KL2012_e4_28",0,2,2190,"Include",5
"KL2012_e4","KL2012_e4_28",1,6,3142,"Include",6
"KL2012_e4","KL2012_e4_28",1,2,3027,"Include",7
"KL2012_e4","KL2012_e4_28",0,1,1240,"Include",8
"KL2012_e4","KL2012_e4_28",1,1,1506,"Include",9
"KL2012_e4","KL2012_e4_28",0,1,738,"Include",10
"KL2012_e4","KL2012_e4_28",1,1,807,"Include",11
"KL2012_e4","KL2012_e4_28",0,1,1242,"Include",12
"KL2012_e4","KL2012_e4_28",1,6,1811,"Include",13
"KL2012_e4","KL2012_e4_28",0,1,1448,"Include",14
"KL2012_e4","KL2012_e4_28",1,1,1005,"Include",15
"KL2012_e4","KL2012_e4_28",1,6,1576,"Include",16
"KL2012_e4","KL2012_e4_28",1,6,1285,"Include",17
"KL2012_e4","KL2012_e4_28",0,1,1183,"Include",18
"KL2012_e4","KL2012_e4_28",0,1,1071,"Include",19
"KL2012_e4","KL2012_e4_28",1,1,871,"Include",20
"KL2012_e4","KL2012_e4_28",0,1,703,"Include",21
"KL2012_e4","KL2012_e4_28",0,1,663,"Include",22
"KL2012_e4","KL2012_e4_28",1,3,4743,"Include",23
"KL2012_e4","KL2012_e4_28",0,3,934,"Include",24
"KL2012_e4","KL2012_e4_28",1,1,1299,"Include",25
"KL2012_e4","KL2012_e4_28",1,6,1512,"Include",26
"KL2012_e4","KL2012_e4_28",0,1,1816,"Include",27
"KL2012_e4","KL2012_e4_28",1,2,2029,"Include",28
"KL2012_e4","KL2012_e4_28",0,2,1357,"Include",29
"KL2012_e4","KL2012_e4_28",0,2,959,"Include",30
"KL2012_e4","KL2012_e4_28",0,2,842,"Include",31
"KL2012_e4","KL2012_e4_28",1,6,1452,"Include",32
"KL2012_e4","KL2012_e4_28",0,1,1209,"Include",33
"KL2012_e4","KL2012_e4_28",1,6,2311,"Include",34
"KL2012_e4","KL2012_e4_28",1,6,1734,"Include",35
"KL2012_e4","KL2012_e4_28",1,6,691,"Include",36
"KL2012_e4","KL2012_e4_28",1,4,3309,"Include",37
"KL2012_e4","KL2012_e4_28",0,4,1501,"Include",38
"KL2012_e4","KL2012_e4_28",1,3,1779,"Include",39
"KL2012_e4","KL2012_e4_28",1,6,1589,"Include",40
"KL2012_e4","KL2012_e4_28",0,1,1397,"Include",41
"KL2012_e4","KL2012_e4_28",1,6,3343,"Include",42
"KL2012_e4","KL2012_e4_28",0,6,1551,"Include",43
"KL2012_e4","KL2012_e4_28",0,4,2115,"Include",44
"KL2012_e4","KL2012_e4_28",0,1,1654,"Include",45
"KL2012_e4","KL2012_e4_28",1,2,1531,"Include",46
"KL2012_e4","KL2012_e4_28",0,1,2024,"Include",47
"KL2012_e4","KL2012_e4_28",0,4,4551,"Include",48
"KL2012_e4","KL2012_e4_28",1,6,1660,"Include",49
"KL2012_e4","KL2012_e4_28",0,2,3105,"Include",50
"KL2012_e4","KL2012_e4_28",1,1,1733,"Include",51
"KL2012_e4","KL2012_e4_28",1,1,1115,"Include",52
"KL2012_e4","KL2012_e4_28",1,1,1085,"Include",53
"KL2012_e4","KL2012_e4_28",0,2,1504,"Include",54
"KL2012_e4","KL2012_e4_28",0,4,3216,"Include",55
"KL2012_e4","KL2012_e4_28",0,1,2074,"Include",56
"KL2012_e4","KL2012_e4_28",0,1,1164,"Include",57
"KL2012_e4","KL2012_e4_28",1,6,2727,"Include",58
"KL2012_e4","KL2012_e4_28",1,6,969,"Include",59
"KL2012_e4","KL2012_e4_28",0,2,2622,"Include",60
"KL2012_e4","KL2012_e4_28",1,2,1094,"Include",61
"KL2012_e4","KL2012_e4_28",0,2,987,"Include",62
"KL2012_e4","KL2012_e4_28",1,2,1331,"Include",63
"KL2012_e4","KL2012_e4_28",1,6,2528,"Include",64
"KL2012_e4","KL2012_e4_28",0,1,1210,"Include",65
"KL2012_e4","KL2012_e4_28",0,1,919,"Include",66
"KL2012_e4","KL2012_e4_28",0,1,778,"Include",67
"KL2012_e4","KL2012_e4_28",1,6,1439,"Include",68
"KL2012_e4","KL2012_e4_28",0,1,1751,"Include",69
"KL2012_e4","KL2012_e4_28",0,2,1519,"Include",70
"KL2012_e4","KL2012_e4_28",1,2,1065,"Include",71
"KL2012_e4","KL2012_e4_28",1,6,1345,"Include",72
"KL2012_e4","KL2012_e4_28",1,2,1209,"Include",73
"KL2012_e4","KL2012_e4_28",1,2,1862,"Include",74
"KL2012_e4","KL2012_e4_28",0,1,1546,"Include",75
"KL2012_e4","KL2012_e4_28",1,1,1376,"Include",76
"KL2012_e4","KL2012_e4_28",0,1,1133,"Include",77
"KL2012_e4","KL2012_e4_28",1,6,1402,"Include",78
"KL2012_e4","KL2012_e4_28",1,3,2557,"Include",79
"KL2012_e4","KL2012_e4_28",0,2,3503,"Include",80
"KL2012_e4","KL2012_e4_28",1,2,1171,"Include",81
"KL2012_e4","KL2012_e4_28",0,1,1296,"Include",82
"KL2012_e4","KL2012_e4_28",1,6,1741,"Include",83
"KL2012_e4","KL2012_e4_28",0,2,3685,"Include",84
"KL2012_e4","KL2012_e4_28",1,2,1447,"Include",85
"KL2012_e4","KL2012_e4_28",0,1,1238,"Include",86
"KL2012_e4","KL2012_e4_28",0,2,2689,"Include",87
"KL2012_e4","KL2012_e4_28",1,6,1710,"Include",88
"KL2012_e4","KL2012_e4_28",0,1,1430,"Include",89
"KL2012_e4","KL2012_e4_28",1,6,1302,"Include",90
"KL2012_e4","KL2012_e4_28",1,1,3782,"Include",91
"KL2012_e4","KL2012_e4_28",0,2,1789,"Include",92
"KL2012_e4","KL2012_e4_28",1,6,1469,"Include",93
"KL2012_e4","KL2012_e4_28",0,3,2973,"Include",94
"KL2012_e4","KL2012_e4_28",0,1,1566,"Include",95
"KL2012_e4","KL2012_e4_28",0,1,1169,"Include",96
"KL2012_e4","KL2012_e4_29",0,2,3721,"Include",1
"KL2012_e4","KL2012_e4_29",0,1,987,"Include",2
"KL2012_e4","KL2012_e4_29",0,5,2314,"Include",3
"KL2012_e4","KL2012_e4_29",0,2,1500,"Include",4
"KL2012_e4","KL2012_e4_29",0,2,1308,"Include",5
"KL2012_e4","KL2012_e4_29",1,2,6090,"Include",6
"KL2012_e4","KL2012_e4_29",0,1,1838,"Include",7
"KL2012_e4","KL2012_e4_29",1,3,1864,"Include",8
"KL2012_e4","KL2012_e4_29",0,2,1519,"Include",9
"KL2012_e4","KL2012_e4_29",0,2,3465,"Include",10
"KL2012_e4","KL2012_e4_29",1,1,1736,"Include",11
"KL2012_e4","KL2012_e4_29",1,1,1532,"Include",12
"KL2012_e4","KL2012_e4_29",1,3,2113,"Include",13
"KL2012_e4","KL2012_e4_29",0,1,2027,"Include",14
"KL2012_e4","KL2012_e4_29",1,5,4081,"Include",15
"KL2012_e4","KL2012_e4_29",0,2,1731,"Include",16
"KL2012_e4","KL2012_e4_29",1,6,2799,"Include",17
"KL2012_e4","KL2012_e4_29",0,2,4289,"Include",18
"KL2012_e4","KL2012_e4_29",0,1,2029,"Include",19
"KL2012_e4","KL2012_e4_29",0,2,1884,"Include",20
"KL2012_e4","KL2012_e4_29",1,6,2425,"Include",21
"KL2012_e4","KL2012_e4_29",0,1,4544,"Include",22
"KL2012_e4","KL2012_e4_29",0,2,2950,"Include",23
"KL2012_e4","KL2012_e4_29",0,2,1677,"Include",24
"KL2012_e4","KL2012_e4_29",0,2,11869,"Include",25
"KL2012_e4","KL2012_e4_29",1,2,2651,"Include",26
"KL2012_e4","KL2012_e4_29",1,6,2543,"Include",27
"KL2012_e4","KL2012_e4_29",1,2,2286,"Include",28
"KL2012_e4","KL2012_e4_29",1,2,2395,"Include",29
"KL2012_e4","KL2012_e4_29",0,1,1204,"Include",30
"KL2012_e4","KL2012_e4_29",0,4,2489,"Include",31
"KL2012_e4","KL2012_e4_29",0,2,1389,"Include",32
"KL2012_e4","KL2012_e4_29",1,6,2157,"Include",33
"KL2012_e4","KL2012_e4_29",1,3,1822,"Include",34
"KL2012_e4","KL2012_e4_29",1,6,1622,"Include",35
"KL2012_e4","KL2012_e4_29",0,4,2892,"Include",36
