"exp","id","condition1","trial","isold","rating","RT_CONF","excluding"
"KL2012_e1","KL2012_e1_10","Block1",1,0,1,2698,"Include"
"KL2012_e1","KL2012_e1_10","Block1",2,0,3,2656,"Include"
"KL2012_e1","KL2012_e1_10","Block1",3,0,5,1449,"Include"
"KL2012_e1","KL2012_e1_10","Block1",4,0,5,1347,"Include"
"KL2012_e1","KL2012_e1_10","Block1",5,0,2,1901,"Include"
"KL2012_e1","KL2012_e1_10","Block1",6,1,3,2050,"Include"
"KL2012_e1","KL2012_e1_10","Block1",7,0,3,1101,"Include"
"KL2012_e1","KL2012_e1_10","Block1",8,1,6,976,"Include"
"KL2012_e1","KL2012_e1_10","Block1",9,0,4,1561,"Include"
"KL2012_e1","KL2012_e1_10","Block1",10,1,5,1161,"Include"
"KL2012_e1","KL2012_e1_10","Block1",11,0,2,1553,"Include"
"KL2012_e1","KL2012_e1_10","Block1",12,0,5,1266,"Include"
"KL2012_e1","KL2012_e1_10","Block1",13,1,6,2167,"Include"
"KL2012_e1","KL2012_e1_10","Block1",14,0,4,2170,"Include"
"KL2012_e1","KL2012_e1_10","Block1",15,1,4,1329,"Include"
"KL2012_e1","KL2012_e1_10","Block1",16,1,4,1553,"Include"
"KL2012_e1","KL2012_e1_10","Block1",17,0,4,1120,"Include"
"KL2012_e1","KL2012_e1_10","Block1",18,1,6,1212,"Include"
"KL2012_e1","KL2012_e1_10","Block1",19,0,5,2251,"Include"
"KL2012_e1","KL2012_e1_10","Block1",20,0,3,1558,"Include"
"KL2012_e1","KL2012_e1_10","Block1",21,0,5,1430,"Include"
"KL2012_e1","KL2012_e1_10","Block1",22,1,5,1459,"Include"
"KL2012_e1","KL2012_e1_10","Block1",23,0,5,893,"Include"
"KL2012_e1","KL2012_e1_10","Block1",24,1,6,960,"Include"
"KL2012_e1","KL2012_e1_10","Block1",25,1,6,1155,"Include"
"KL2012_e1","KL2012_e1_10","Block1",26,0,3,1811,"Include"
"KL2012_e1","KL2012_e1_10","Block1",27,1,6,705,"Include"
"KL2012_e1","KL2012_e1_10","Block1",28,1,6,645,"Include"
"KL2012_e1","KL2012_e1_10","Block1",29,1,6,699,"Include"
"KL2012_e1","KL2012_e1_10","Block1",30,0,3,1216,"Include"
"KL2012_e1","KL2012_e1_10","Block1",31,0,3,2201,"Include"
"KL2012_e1","KL2012_e1_10","Block1",32,1,5,1383,"Include"
"KL2012_e1","KL2012_e1_10","Block1",33,1,6,784,"Include"
"KL2012_e1","KL2012_e1_10","Block1",34,0,6,892,"Include"
"KL2012_e1","KL2012_e1_10","Block1",35,1,6,540,"Include"
"KL2012_e1","KL2012_e1_10","Block1",36,0,6,499,"Include"
"KL2012_e1","KL2012_e1_10","Block1",37,1,6,731,"Include"
"KL2012_e1","KL2012_e1_10","Block1",38,1,6,619,"Include"
"KL2012_e1","KL2012_e1_10","Block1",39,0,2,1820,"Include"
"KL2012_e1","KL2012_e1_10","Block1",40,0,4,1216,"Include"
"KL2012_e1","KL2012_e1_10","Block1",41,1,5,939,"Include"
"KL2012_e1","KL2012_e1_10","Block1",42,1,6,1087,"Include"
"KL2012_e1","KL2012_e1_10","Block1",43,0,3,1859,"Include"
"KL2012_e1","KL2012_e1_10","Block1",44,0,3,1006,"Include"
"KL2012_e1","KL2012_e1_10","Block1",45,1,6,997,"Include"
"KL2012_e1","KL2012_e1_10","Block1",46,1,5,1829,"Include"
"KL2012_e1","KL2012_e1_10","Block1",47,0,4,1258,"Include"
"KL2012_e1","KL2012_e1_10","Block1",48,1,3,994,"Include"
"KL2012_e1","KL2012_e1_10","Block1",49,0,5,1124,"Include"
"KL2012_e1","KL2012_e1_10","Block1",50,1,5,1026,"Include"
"KL2012_e1","KL2012_e1_10","Block1",51,0,3,1652,"Include"
"KL2012_e1","KL2012_e1_10","Block1",52,1,5,803,"Include"
"KL2012_e1","KL2012_e1_10","Block1",53,0,3,1017,"Include"
"KL2012_e1","KL2012_e1_10","Block1",54,1,5,1042,"Include"
"KL2012_e1","KL2012_e1_10","Block1",55,1,6,942,"Include"
"KL2012_e1","KL2012_e1_10","Block1",56,0,6,1316,"Include"
"KL2012_e1","KL2012_e1_10","Block1",57,0,3,908,"Include"
"KL2012_e1","KL2012_e1_10","Block1",58,0,2,1451,"Include"
"KL2012_e1","KL2012_e1_10","Block1",59,1,2,1010,"Include"
"KL2012_e1","KL2012_e1_10","Block1",60,1,6,741,"Include"
"KL2012_e1","KL2012_e1_10","Block1",61,0,3,1307,"Include"
"KL2012_e1","KL2012_e1_10","Block1",62,1,6,966,"Include"
"KL2012_e1","KL2012_e1_10","Block1",63,0,6,824,"Include"
"KL2012_e1","KL2012_e1_10","Block1",64,1,6,659,"Include"
"KL2012_e1","KL2012_e1_10","Block1",65,0,1,1273,"Include"
"KL2012_e1","KL2012_e1_10","Block1",66,0,3,2104,"Include"
"KL2012_e1","KL2012_e1_10","Block1",67,0,3,866,"Include"
"KL2012_e1","KL2012_e1_10","Block1",68,1,6,800,"Include"
"KL2012_e1","KL2012_e1_10","Block1",69,1,3,1391,"Include"
"KL2012_e1","KL2012_e1_10","Block1",70,0,6,780,"Include"
"KL2012_e1","KL2012_e1_10","Block1",71,0,6,809,"Include"
"KL2012_e1","KL2012_e1_10","Block1",72,0,5,1846,"Include"
"KL2012_e1","KL2012_e1_10","Block1",73,1,5,1570,"Include"
"KL2012_e1","KL2012_e1_10","Block1",74,1,5,1120,"Include"
"KL2012_e1","KL2012_e1_10","Block1",75,0,1,1118,"Include"
"KL2012_e1","KL2012_e1_10","Block1",76,1,6,684,"Include"
"KL2012_e1","KL2012_e1_10","Block1",77,1,6,884,"Include"
"KL2012_e1","KL2012_e1_10","Block1",78,1,6,765,"Include"
"KL2012_e1","KL2012_e1_10","Block1",79,0,2,1475,"Include"
"KL2012_e1","KL2012_e1_10","Block1",80,1,5,1203,"Include"
"KL2012_e1","KL2012_e1_10","Block1",81,1,4,1903,"Include"
"KL2012_e1","KL2012_e1_10","Block1",82,1,5,1191,"Include"
"KL2012_e1","KL2012_e1_10","Block1",83,1,6,1068,"Include"
"KL2012_e1","KL2012_e1_10","Block1",84,0,3,1429,"Include"
"KL2012_e1","KL2012_e1_10","Block1",85,0,3,1116,"Include"
"KL2012_e1","KL2012_e1_10","Block1",86,1,6,675,"Include"
"KL2012_e1","KL2012_e1_10","Block1",87,0,6,1061,"Include"
"KL2012_e1","KL2012_e1_10","Block1",88,0,3,978,"Include"
"KL2012_e1","KL2012_e1_10","Block1",89,1,6,1125,"Include"
"KL2012_e1","KL2012_e1_10","Block1",90,1,2,1219,"Include"
"KL2012_e1","KL2012_e1_10","Block1",91,0,2,1520,"Include"
"KL2012_e1","KL2012_e1_10","Block1",92,1,5,1602,"Include"
"KL2012_e1","KL2012_e1_10","Block1",93,1,2,1343,"Include"
"KL2012_e1","KL2012_e1_10","Block1",94,0,1,1100,"Include"
"KL2012_e1","KL2012_e1_10","Block1",95,0,2,1045,"Include"
"KL2012_e1","KL2012_e1_10","Block1",96,1,6,896,"Include"
"KL2012_e1","KL2012_e1_10","Block2",97,0,1,2306,"Include"
"KL2012_e1","KL2012_e1_10","Block2",98,0,3,1726,"Include"
"KL2012_e1","KL2012_e1_10","Block2",99,0,3,1083,"Include"
"KL2012_e1","KL2012_e1_10","Block2",100,0,3,1697,"Include"
"KL2012_e1","KL2012_e1_10","Block2",101,0,5,1524,"Include"
"KL2012_e1","KL2012_e1_10","Block2",102,1,6,1064,"Include"
"KL2012_e1","KL2012_e1_10","Block2",103,0,3,2095,"Include"
"KL2012_e1","KL2012_e1_10","Block2",104,0,4,1538,"Include"
"KL2012_e1","KL2012_e1_10","Block2",105,1,4,957,"Include"
"KL2012_e1","KL2012_e1_10","Block2",106,0,4,740,"Include"
"KL2012_e1","KL2012_e1_10","Block2",107,1,6,720,"Include"
"KL2012_e1","KL2012_e1_10","Block2",108,0,3,1261,"Include"
"KL2012_e1","KL2012_e1_10","Block2",109,0,3,1506,"Include"
"KL2012_e1","KL2012_e1_10","Block2",110,0,2,1445,"Include"
"KL2012_e1","KL2012_e1_10","Block2",111,1,2,992,"Include"
"KL2012_e1","KL2012_e1_10","Block2",112,1,6,710,"Include"
"KL2012_e1","KL2012_e1_10","Block2",113,0,2,1300,"Include"
"KL2012_e1","KL2012_e1_10","Block2",114,0,5,924,"Include"
"KL2012_e1","KL2012_e1_10","Block2",115,1,6,688,"Include"
"KL2012_e1","KL2012_e1_10","Block2",116,0,6,803,"Include"
"KL2012_e1","KL2012_e1_10","Block2",117,0,1,1374,"Include"
"KL2012_e1","KL2012_e1_10","Block2",118,1,6,754,"Include"
"KL2012_e1","KL2012_e1_10","Block2",119,0,3,1947,"Include"
"KL2012_e1","KL2012_e1_10","Block2",120,0,1,1077,"Include"
"KL2012_e1","KL2012_e1_10","Block2",121,1,6,712,"Include"
"KL2012_e1","KL2012_e1_10","Block2",122,1,6,578,"Include"
"KL2012_e1","KL2012_e1_10","Block2",123,1,6,520,"Include"
"KL2012_e1","KL2012_e1_10","Block2",124,0,5,1528,"Include"
"KL2012_e1","KL2012_e1_10","Block2",125,0,2,1189,"Include"
"KL2012_e1","KL2012_e1_10","Block2",126,0,4,1584,"Include"
"KL2012_e1","KL2012_e1_10","Block2",127,1,6,722,"Include"
"KL2012_e1","KL2012_e1_10","Block2",128,1,3,1638,"Include"
"KL2012_e1","KL2012_e1_10","Block2",129,1,6,689,"Include"
"KL2012_e1","KL2012_e1_10","Block2",130,0,6,780,"Include"
"KL2012_e1","KL2012_e1_10","Block2",131,0,5,1433,"Include"
"KL2012_e1","KL2012_e1_10","Block2",132,0,5,1046,"Include"
"KL2012_e1","KL2012_e1_10","Block2",133,0,2,1339,"Include"
"KL2012_e1","KL2012_e1_10","Block2",134,1,6,1280,"Include"
"KL2012_e1","KL2012_e1_10","Block2",135,1,2,1016,"Include"
"KL2012_e1","KL2012_e1_10","Block2",136,1,6,686,"Include"
"KL2012_e1","KL2012_e1_10","Block2",137,1,5,1315,"Include"
"KL2012_e1","KL2012_e1_10","Block2",138,1,2,1932,"Include"
"KL2012_e1","KL2012_e1_10","Block2",139,0,6,1056,"Include"
"KL2012_e1","KL2012_e1_10","Block2",140,0,2,1977,"Include"
"KL2012_e1","KL2012_e1_10","Block2",141,1,2,1372,"Include"
"KL2012_e1","KL2012_e1_10","Block2",142,0,2,771,"Include"
"KL2012_e1","KL2012_e1_10","Block2",143,0,2,1052,"Include"
"KL2012_e1","KL2012_e1_10","Block2",144,1,5,1734,"Include"
"KL2012_e1","KL2012_e1_10","Block2",145,1,6,690,"Include"
"KL2012_e1","KL2012_e1_10","Block2",146,1,5,2733,"Include"
"KL2012_e1","KL2012_e1_10","Block2",147,1,6,617,"Include"
"KL2012_e1","KL2012_e1_10","Block2",148,1,4,1414,"Include"
"KL2012_e1","KL2012_e1_10","Block2",149,1,6,1397,"Include"
"KL2012_e1","KL2012_e1_10","Block2",150,0,4,1046,"Include"
"KL2012_e1","KL2012_e1_10","Block2",151,1,2,3011,"Include"
"KL2012_e1","KL2012_e1_10","Block2",152,1,2,1266,"Include"
"KL2012_e1","KL2012_e1_10","Block2",153,1,6,964,"Include"
"KL2012_e1","KL2012_e1_10","Block2",154,0,6,944,"Include"
"KL2012_e1","KL2012_e1_10","Block2",155,0,6,892,"Include"
"KL2012_e1","KL2012_e1_10","Block2",156,0,2,1188,"Include"
"KL2012_e1","KL2012_e1_10","Block2",157,1,5,924,"Include"
"KL2012_e1","KL2012_e1_10","Block2",158,0,4,1217,"Include"
"KL2012_e1","KL2012_e1_10","Block2",159,1,6,1264,"Include"
"KL2012_e1","KL2012_e1_10","Block2",160,0,6,728,"Include"
"KL2012_e1","KL2012_e1_10","Block2",161,1,5,1967,"Include"
"KL2012_e1","KL2012_e1_10","Block2",162,0,1,1076,"Include"
"KL2012_e1","KL2012_e1_10","Block2",163,1,6,1824,"Include"
"KL2012_e1","KL2012_e1_10","Block2",164,1,6,2512,"Include"
"KL2012_e1","KL2012_e1_10","Block2",165,0,4,2238,"Include"
"KL2012_e1","KL2012_e1_10","Block2",166,0,2,1415,"Include"
"KL2012_e1","KL2012_e1_10","Block2",167,0,2,1416,"Include"
"KL2012_e1","KL2012_e1_10","Block2",168,1,2,1008,"Include"
"KL2012_e1","KL2012_e1_10","Block2",169,0,2,973,"Include"
"KL2012_e1","KL2012_e1_10","Block2",170,0,3,1074,"Include"
"KL2012_e1","KL2012_e1_10","Block2",171,1,4,1211,"Include"
"KL2012_e1","KL2012_e1_10","Block2",172,1,4,986,"Include"
"KL2012_e1","KL2012_e1_10","Block2",173,1,4,954,"Include"
"KL2012_e1","KL2012_e1_10","Block2",174,1,4,808,"Include"
"KL2012_e1","KL2012_e1_10","Block2",175,1,5,1040,"Include"
"KL2012_e1","KL2012_e1_10","Block2",176,0,2,1726,"Include"
"KL2012_e1","KL2012_e1_10","Block2",177,0,2,1291,"Include"
"KL2012_e1","KL2012_e1_10","Block2",178,0,2,896,"Include"
"KL2012_e1","KL2012_e1_10","Block2",179,1,6,1389,"Include"
"KL2012_e1","KL2012_e1_10","Block2",180,0,4,2187,"Include"
"KL2012_e1","KL2012_e1_10","Block2",181,1,4,1211,"Include"
"KL2012_e1","KL2012_e1_10","Block2",182,1,6,1187,"Include"
"KL2012_e1","KL2012_e1_10","Block2",183,1,2,2911,"Include"
"KL2012_e1","KL2012_e1_10","Block2",184,0,3,1063,"Include"
"KL2012_e1","KL2012_e1_10","Block2",185,1,5,1973,"Include"
"KL2012_e1","KL2012_e1_10","Block2",186,0,4,1466,"Include"
"KL2012_e1","KL2012_e1_10","Block2",187,0,2,1851,"Include"
"KL2012_e1","KL2012_e1_10","Block2",188,1,2,2102,"Include"
"KL2012_e1","KL2012_e1_10","Block2",189,0,3,1312,"Include"
"KL2012_e1","KL2012_e1_10","Block2",190,1,6,1599,"Include"
"KL2012_e1","KL2012_e1_10","Block2",191,1,5,1052,"Include"
"KL2012_e1","KL2012_e1_10","Block2",192,1,6,2232,"Include"
"KL2012_e1","KL2012_e1_11","Block1",1,0,3,7538,"Include"
"KL2012_e1","KL2012_e1_11","Block1",2,0,1,3875,"Include"
"KL2012_e1","KL2012_e1_11","Block1",3,1,1,2952,"Include"
"KL2012_e1","KL2012_e1_11","Block1",4,0,2,2732,"Include"
"KL2012_e1","KL2012_e1_11","Block1",5,1,6,2122,"Include"
"KL2012_e1","KL2012_e1_11","Block1",6,1,4,2808,"Include"
"KL2012_e1","KL2012_e1_11","Block1",7,1,6,1835,"Include"
"KL2012_e1","KL2012_e1_11","Block1",8,1,4,2814,"Include"
"KL2012_e1","KL2012_e1_11","Block1",9,0,4,3425,"Include"
"KL2012_e1","KL2012_e1_11","Block1",10,1,6,1422,"Include"
"KL2012_e1","KL2012_e1_11","Block1",11,1,6,959,"Include"
"KL2012_e1","KL2012_e1_11","Block1",12,1,4,2359,"Include"
"KL2012_e1","KL2012_e1_11","Block1",13,1,6,2339,"Include"
"KL2012_e1","KL2012_e1_11","Block1",14,0,4,1572,"Include"
"KL2012_e1","KL2012_e1_11","Block1",15,1,6,1191,"Include"
"KL2012_e1","KL2012_e1_11","Block1",16,0,3,1892,"Include"
"KL2012_e1","KL2012_e1_11","Block1",17,0,3,2927,"Include"
"KL2012_e1","KL2012_e1_11","Block1",18,0,3,1489,"Include"
"KL2012_e1","KL2012_e1_11","Block1",19,0,3,1247,"Include"
"KL2012_e1","KL2012_e1_11","Block1",20,0,3,2341,"Include"
"KL2012_e1","KL2012_e1_11","Block1",21,1,3,1232,"Include"
"KL2012_e1","KL2012_e1_11","Block1",22,0,3,1017,"Include"
"KL2012_e1","KL2012_e1_11","Block1",23,1,3,1363,"Include"
"KL2012_e1","KL2012_e1_11","Block1",24,1,3,850,"Include"
"KL2012_e1","KL2012_e1_11","Block1",25,0,3,1486,"Include"
"KL2012_e1","KL2012_e1_11","Block1",26,1,3,2412,"Include"
"KL2012_e1","KL2012_e1_11","Block1",27,1,6,1756,"Include"
"KL2012_e1","KL2012_e1_11","Block1",28,1,3,981,"Include"
"KL2012_e1","KL2012_e1_11","Block1",29,0,3,1061,"Include"
"KL2012_e1","KL2012_e1_11","Block1",30,0,3,2222,"Include"
"KL2012_e1","KL2012_e1_11","Block1",31,1,3,1232,"Include"
"KL2012_e1","KL2012_e1_11","Block1",32,0,3,1546,"Include"
"KL2012_e1","KL2012_e1_11","Block1",33,1,3,1000,"Include"
"KL2012_e1","KL2012_e1_11","Block1",34,0,3,1700,"Include"
"KL2012_e1","KL2012_e1_11","Block1",35,0,3,1340,"Include"
"KL2012_e1","KL2012_e1_11","Block1",36,0,3,1030,"Include"
"KL2012_e1","KL2012_e1_11","Block1",37,1,4,3380,"Include"
"KL2012_e1","KL2012_e1_11","Block1",38,0,4,2799,"Include"
"KL2012_e1","KL2012_e1_11","Block1",39,0,4,697,"Include"
"KL2012_e1","KL2012_e1_11","Block1",40,0,4,677,"Include"
"KL2012_e1","KL2012_e1_11","Block1",41,0,4,725,"Include"
"KL2012_e1","KL2012_e1_11","Block1",42,0,4,892,"Include"
"KL2012_e1","KL2012_e1_11","Block1",43,0,6,1386,"Include"
"KL2012_e1","KL2012_e1_11","Block1",44,1,6,729,"Include"
"KL2012_e1","KL2012_e1_11","Block1",45,0,4,901,"Include"
"KL2012_e1","KL2012_e1_11","Block1",46,1,4,4241,"Include"
"KL2012_e1","KL2012_e1_11","Block1",47,1,6,1958,"Include"
"KL2012_e1","KL2012_e1_11","Block1",48,1,6,744,"Include"
"KL2012_e1","KL2012_e1_11","Block1",49,1,6,802,"Include"
"KL2012_e1","KL2012_e1_11","Block1",50,0,3,1410,"Include"
"KL2012_e1","KL2012_e1_11","Block1",51,1,3,959,"Include"
"KL2012_e1","KL2012_e1_11","Block1",52,1,6,888,"Include"
"KL2012_e1","KL2012_e1_11","Block1",53,0,3,1749,"Include"
"KL2012_e1","KL2012_e1_11","Block1",54,1,3,781,"Include"
"KL2012_e1","KL2012_e1_11","Block1",55,1,6,1129,"Include"
"KL2012_e1","KL2012_e1_11","Block1",56,1,3,3205,"Include"
"KL2012_e1","KL2012_e1_11","Block1",57,1,3,2230,"Include"
"KL2012_e1","KL2012_e1_11","Block1",58,0,3,909,"Include"
"KL2012_e1","KL2012_e1_11","Block1",59,1,3,1094,"Include"
"KL2012_e1","KL2012_e1_11","Block1",60,0,3,2114,"Include"
"KL2012_e1","KL2012_e1_11","Block1",61,0,3,657,"Include"
"KL2012_e1","KL2012_e1_11","Block1",62,1,3,912,"Include"
"KL2012_e1","KL2012_e1_11","Block1",63,0,3,696,"Include"
"KL2012_e1","KL2012_e1_11","Block1",64,0,3,1172,"Include"
"KL2012_e1","KL2012_e1_11","Block1",65,1,6,2707,"Include"
"KL2012_e1","KL2012_e1_11","Block1",66,0,3,1029,"Include"
"KL2012_e1","KL2012_e1_11","Block1",67,1,3,2484,"Include"
"KL2012_e1","KL2012_e1_11","Block1",68,0,3,960,"Include"
"KL2012_e1","KL2012_e1_11","Block1",69,1,6,1415,"Include"
"KL2012_e1","KL2012_e1_11","Block1",70,0,3,952,"Include"
"KL2012_e1","KL2012_e1_11","Block1",71,0,3,3640,"Include"
"KL2012_e1","KL2012_e1_11","Block1",72,1,3,857,"Include"
"KL2012_e1","KL2012_e1_11","Block1",73,1,4,2568,"Include"
"KL2012_e1","KL2012_e1_11","Block1",74,0,3,3047,"Include"
"KL2012_e1","KL2012_e1_11","Block1",75,1,6,1012,"Include"
"KL2012_e1","KL2012_e1_11","Block1",76,1,3,1115,"Include"
"KL2012_e1","KL2012_e1_11","Block1",77,0,3,942,"Include"
"KL2012_e1","KL2012_e1_11","Block1",78,0,3,687,"Include"
"KL2012_e1","KL2012_e1_11","Block1",79,0,3,719,"Include"
"KL2012_e1","KL2012_e1_11","Block1",80,1,3,604,"Include"
"KL2012_e1","KL2012_e1_11","Block1",81,1,6,1295,"Include"
"KL2012_e1","KL2012_e1_11","Block1",82,0,3,920,"Include"
"KL2012_e1","KL2012_e1_11","Block1",83,0,3,675,"Include"
"KL2012_e1","KL2012_e1_11","Block1",84,1,6,1037,"Include"
"KL2012_e1","KL2012_e1_11","Block1",85,1,6,1248,"Include"
"KL2012_e1","KL2012_e1_11","Block1",86,0,3,970,"Include"
"KL2012_e1","KL2012_e1_11","Block1",87,1,6,1569,"Include"
"KL2012_e1","KL2012_e1_11","Block1",88,0,3,727,"Include"
"KL2012_e1","KL2012_e1_11","Block1",89,1,3,1046,"Include"
"KL2012_e1","KL2012_e1_11","Block1",90,0,3,1077,"Include"
"KL2012_e1","KL2012_e1_11","Block1",91,0,3,1148,"Include"
"KL2012_e1","KL2012_e1_11","Block1",92,0,3,3021,"Include"
"KL2012_e1","KL2012_e1_11","Block1",93,1,3,4661,"Include"
"KL2012_e1","KL2012_e1_11","Block1",94,1,6,1315,"Include"
"KL2012_e1","KL2012_e1_11","Block1",95,0,3,970,"Include"
"KL2012_e1","KL2012_e1_11","Block1",96,1,4,2304,"Include"
"KL2012_e1","KL2012_e1_11","Block2",97,0,3,4913,"Include"
"KL2012_e1","KL2012_e1_11","Block2",98,1,3,1391,"Include"
"KL2012_e1","KL2012_e1_11","Block2",99,1,6,1663,"Include"
"KL2012_e1","KL2012_e1_11","Block2",100,1,3,2391,"Include"
"KL2012_e1","KL2012_e1_11","Block2",101,0,3,2026,"Include"
"KL2012_e1","KL2012_e1_11","Block2",102,0,3,1068,"Include"
"KL2012_e1","KL2012_e1_11","Block2",103,1,2,3408,"Include"
"KL2012_e1","KL2012_e1_11","Block2",104,1,6,1697,"Include"
"KL2012_e1","KL2012_e1_11","Block2",105,0,2,3037,"Include"
"KL2012_e1","KL2012_e1_11","Block2",106,1,5,2586,"Include"
"KL2012_e1","KL2012_e1_11","Block2",107,1,6,1928,"Include"
"KL2012_e1","KL2012_e1_11","Block2",108,1,3,2787,"Include"
"KL2012_e1","KL2012_e1_11","Block2",109,0,3,969,"Include"
"KL2012_e1","KL2012_e1_11","Block2",110,1,6,1267,"Include"
"KL2012_e1","KL2012_e1_11","Block2",111,0,2,1566,"Include"
"KL2012_e1","KL2012_e1_11","Block2",112,0,2,1595,"Include"
"KL2012_e1","KL2012_e1_11","Block2",113,0,2,1228,"Include"
"KL2012_e1","KL2012_e1_11","Block2",114,1,6,2107,"Include"
"KL2012_e1","KL2012_e1_11","Block2",115,1,6,2347,"Include"
"KL2012_e1","KL2012_e1_11","Block2",116,0,2,1414,"Include"
"KL2012_e1","KL2012_e1_11","Block2",117,0,2,914,"Include"
"KL2012_e1","KL2012_e1_11","Block2",118,1,2,1459,"Include"
"KL2012_e1","KL2012_e1_11","Block2",119,0,2,810,"Include"
"KL2012_e1","KL2012_e1_11","Block2",120,1,2,638,"Include"
"KL2012_e1","KL2012_e1_11","Block2",121,1,2,1624,"Include"
"KL2012_e1","KL2012_e1_11","Block2",122,0,2,895,"Include"
"KL2012_e1","KL2012_e1_11","Block2",123,0,2,612,"Include"
"KL2012_e1","KL2012_e1_11","Block2",124,0,6,3273,"Include"
"KL2012_e1","KL2012_e1_11","Block2",125,0,2,797,"Include"
"KL2012_e1","KL2012_e1_11","Block2",126,0,2,1225,"Include"
"KL2012_e1","KL2012_e1_11","Block2",127,0,2,2456,"Include"
"KL2012_e1","KL2012_e1_11","Block2",128,1,2,2388,"Include"
"KL2012_e1","KL2012_e1_11","Block2",129,0,2,2524,"Include"
"KL2012_e1","KL2012_e1_11","Block2",130,0,2,704,"Include"
"KL2012_e1","KL2012_e1_11","Block2",131,1,6,859,"Include"
"KL2012_e1","KL2012_e1_11","Block2",132,0,2,1734,"Include"
"KL2012_e1","KL2012_e1_11","Block2",133,0,4,3463,"Include"
"KL2012_e1","KL2012_e1_11","Block2",134,1,6,1079,"Include"
"KL2012_e1","KL2012_e1_11","Block2",135,0,3,3766,"Include"
"KL2012_e1","KL2012_e1_11","Block2",136,0,3,1001,"Include"
"KL2012_e1","KL2012_e1_11","Block2",137,0,3,3641,"Include"
"KL2012_e1","KL2012_e1_11","Block2",138,1,3,1407,"Include"
"KL2012_e1","KL2012_e1_11","Block2",139,1,3,685,"Include"
"KL2012_e1","KL2012_e1_11","Block2",140,1,3,779,"Include"
"KL2012_e1","KL2012_e1_11","Block2",141,0,3,830,"Include"
"KL2012_e1","KL2012_e1_11","Block2",142,0,3,1185,"Include"
"KL2012_e1","KL2012_e1_11","Block2",143,1,3,858,"Include"
"KL2012_e1","KL2012_e1_11","Block2",144,1,6,1113,"Include"
"KL2012_e1","KL2012_e1_11","Block2",145,1,6,1016,"Include"
"KL2012_e1","KL2012_e1_11","Block2",146,1,3,2742,"Include"
"KL2012_e1","KL2012_e1_11","Block2",147,1,3,744,"Include"
"KL2012_e1","KL2012_e1_11","Block2",148,1,3,497,"Include"
"KL2012_e1","KL2012_e1_11","Block2",149,1,3,1303,"Include"
"KL2012_e1","KL2012_e1_11","Block2",150,1,2,5063,"Include"
"KL2012_e1","KL2012_e1_11","Block2",151,1,6,1057,"Include"
"KL2012_e1","KL2012_e1_11","Block2",152,1,2,955,"Include"
"KL2012_e1","KL2012_e1_11","Block2",153,0,2,608,"Include"
"KL2012_e1","KL2012_e1_11","Block2",154,0,2,986,"Include"
"KL2012_e1","KL2012_e1_11","Block2",155,0,2,1109,"Include"
"KL2012_e1","KL2012_e1_11","Block2",156,1,2,810,"Include"
"KL2012_e1","KL2012_e1_11","Block2",157,0,2,591,"Include"
"KL2012_e1","KL2012_e1_11","Block2",158,0,2,2849,"Include"
"KL2012_e1","KL2012_e1_11","Block2",159,0,2,810,"Include"
"KL2012_e1","KL2012_e1_11","Block2",160,1,2,857,"Include"
"KL2012_e1","KL2012_e1_11","Block2",161,0,2,1323,"Include"
"KL2012_e1","KL2012_e1_11","Block2",162,0,2,1088,"Include"
"KL2012_e1","KL2012_e1_11","Block2",163,0,2,828,"Include"
"KL2012_e1","KL2012_e1_11","Block2",164,1,2,1798,"Include"
"KL2012_e1","KL2012_e1_11","Block2",165,1,2,1155,"Include"
"KL2012_e1","KL2012_e1_11","Block2",166,1,2,3664,"Include"
"KL2012_e1","KL2012_e1_11","Block2",167,0,4,2367,"Include"
"KL2012_e1","KL2012_e1_11","Block2",168,0,3,3033,"Include"
"KL2012_e1","KL2012_e1_11","Block2",169,0,3,696,"Include"
"KL2012_e1","KL2012_e1_11","Block2",170,1,3,1348,"Include"
"KL2012_e1","KL2012_e1_11","Block2",171,1,4,3961,"Include"
"KL2012_e1","KL2012_e1_11","Block2",172,1,2,4251,"Include"
"KL2012_e1","KL2012_e1_11","Block2",173,0,2,928,"Include"
"KL2012_e1","KL2012_e1_11","Block2",174,1,2,1270,"Include"
"KL2012_e1","KL2012_e1_11","Block2",175,0,2,689,"Include"
"KL2012_e1","KL2012_e1_11","Block2",176,1,2,630,"Include"
"KL2012_e1","KL2012_e1_11","Block2",177,1,2,1310,"Include"
"KL2012_e1","KL2012_e1_11","Block2",178,0,2,565,"Include"
"KL2012_e1","KL2012_e1_11","Block2",179,1,2,481,"Include"
"KL2012_e1","KL2012_e1_11","Block2",180,1,2,825,"Include"
"KL2012_e1","KL2012_e1_11","Block2",181,0,2,1108,"Include"
"KL2012_e1","KL2012_e1_11","Block2",182,0,2,1144,"Include"
"KL2012_e1","KL2012_e1_11","Block2",183,0,6,2076,"Include"
"KL2012_e1","KL2012_e1_11","Block2",184,1,6,1662,"Include"
"KL2012_e1","KL2012_e1_11","Block2",185,1,2,721,"Include"
"KL2012_e1","KL2012_e1_11","Block2",186,0,2,1132,"Include"
"KL2012_e1","KL2012_e1_11","Block2",187,1,2,1800,"Include"
"KL2012_e1","KL2012_e1_11","Block2",188,0,2,569,"Include"
"KL2012_e1","KL2012_e1_11","Block2",189,1,2,769,"Include"
"KL2012_e1","KL2012_e1_11","Block2",190,0,2,966,"Include"
"KL2012_e1","KL2012_e1_11","Block2",191,1,2,1468,"Include"
"KL2012_e1","KL2012_e1_11","Block2",192,0,2,829,"Include"
"KL2012_e1","KL2012_e1_12","Block1",1,1,6,4768,"Include"
"KL2012_e1","KL2012_e1_12","Block1",2,0,1,2099,"Include"
"KL2012_e1","KL2012_e1_12","Block1",3,1,6,2634,"Include"
"KL2012_e1","KL2012_e1_12","Block1",4,0,2,6780,"Include"
"KL2012_e1","KL2012_e1_12","Block1",5,1,6,1719,"Include"
"KL2012_e1","KL2012_e1_12","Block1",6,0,1,1297,"Include"
"KL2012_e1","KL2012_e1_12","Block1",7,0,2,3163,"Include"
"KL2012_e1","KL2012_e1_12","Block1",8,0,1,3605,"Include"
"KL2012_e1","KL2012_e1_12","Block1",9,1,6,1678,"Include"
"KL2012_e1","KL2012_e1_12","Block1",10,1,6,2207,"Include"
"KL2012_e1","KL2012_e1_12","Block1",11,1,4,4643,"Include"
"KL2012_e1","KL2012_e1_12","Block1",12,0,2,5764,"Include"
"KL2012_e1","KL2012_e1_12","Block1",13,1,2,2446,"Include"
"KL2012_e1","KL2012_e1_12","Block1",14,0,1,2010,"Include"
"KL2012_e1","KL2012_e1_12","Block1",15,0,1,2431,"Include"
"KL2012_e1","KL2012_e1_12","Block1",16,1,6,1128,"Include"
"KL2012_e1","KL2012_e1_12","Block1",17,1,6,1106,"Include"
"KL2012_e1","KL2012_e1_12","Block1",18,0,3,5941,"Include"
"KL2012_e1","KL2012_e1_12","Block1",19,0,3,6267,"Include"
"KL2012_e1","KL2012_e1_12","Block1",20,0,1,2278,"Include"
"KL2012_e1","KL2012_e1_12","Block1",21,0,1,1259,"Include"
"KL2012_e1","KL2012_e1_12","Block1",22,0,1,974,"Include"
"KL2012_e1","KL2012_e1_12","Block1",23,1,2,6799,"Include"
"KL2012_e1","KL2012_e1_12","Block1",24,1,6,1011,"Include"
"KL2012_e1","KL2012_e1_12","Block1",25,1,6,752,"Include"
"KL2012_e1","KL2012_e1_12","Block1",26,0,3,6065,"Include"
"KL2012_e1","KL2012_e1_12","Block1",27,1,3,5346,"Include"
"KL2012_e1","KL2012_e1_12","Block1",28,0,1,1184,"Include"
"KL2012_e1","KL2012_e1_12","Block1",29,0,1,994,"Include"
"KL2012_e1","KL2012_e1_12","Block1",30,0,4,2369,"Include"
"KL2012_e1","KL2012_e1_12","Block1",31,0,4,2633,"Include"
"KL2012_e1","KL2012_e1_12","Block1",32,1,6,963,"Include"
"KL2012_e1","KL2012_e1_12","Block1",33,0,1,1444,"Include"
"KL2012_e1","KL2012_e1_12","Block1",34,0,4,1916,"Include"
"KL2012_e1","KL2012_e1_12","Block1",35,0,2,1941,"Include"
"KL2012_e1","KL2012_e1_12","Block1",36,1,6,941,"Include"
"KL2012_e1","KL2012_e1_12","Block1",37,1,6,1116,"Include"
"KL2012_e1","KL2012_e1_12","Block1",38,0,2,1879,"Include"
"KL2012_e1","KL2012_e1_12","Block1",39,1,6,2491,"Include"
"KL2012_e1","KL2012_e1_12","Block1",40,0,4,4151,"Include"
"KL2012_e1","KL2012_e1_12","Block1",41,1,5,3790,"Include"
"KL2012_e1","KL2012_e1_12","Block1",42,0,3,3151,"Include"
"KL2012_e1","KL2012_e1_12","Block1",43,1,6,892,"Include"
"KL2012_e1","KL2012_e1_12","Block1",44,1,4,6021,"Include"
"KL2012_e1","KL2012_e1_12","Block1",45,1,6,1991,"Include"
"KL2012_e1","KL2012_e1_12","Block1",46,1,3,1546,"Include"
"KL2012_e1","KL2012_e1_12","Block1",47,1,6,979,"Include"
"KL2012_e1","KL2012_e1_12","Block1",48,1,2,2782,"Include"
"KL2012_e1","KL2012_e1_12","Block1",49,0,4,2728,"Include"
"KL2012_e1","KL2012_e1_12","Block1",50,1,6,1319,"Include"
"KL2012_e1","KL2012_e1_12","Block1",51,1,6,1465,"Include"
"KL2012_e1","KL2012_e1_12","Block1",52,0,6,1832,"Include"
"KL2012_e1","KL2012_e1_12","Block1",53,0,2,1816,"Include"
"KL2012_e1","KL2012_e1_12","Block1",54,1,6,848,"Include"
"KL2012_e1","KL2012_e1_12","Block1",55,1,6,1874,"Include"
"KL2012_e1","KL2012_e1_12","Block1",56,0,2,1488,"Include"
"KL2012_e1","KL2012_e1_12","Block1",57,0,4,5415,"Include"
"KL2012_e1","KL2012_e1_12","Block1",58,0,2,5083,"Include"
"KL2012_e1","KL2012_e1_12","Block1",59,0,1,1255,"Include"
"KL2012_e1","KL2012_e1_12","Block1",60,0,3,10113,"Include"
"KL2012_e1","KL2012_e1_12","Block1",61,1,4,1990,"Include"
"KL2012_e1","KL2012_e1_12","Block1",62,1,6,1301,"Include"
"KL2012_e1","KL2012_e1_12","Block1",63,1,2,2395,"Include"
"KL2012_e1","KL2012_e1_12","Block1",64,0,3,2791,"Include"
"KL2012_e1","KL2012_e1_12","Block1",65,0,5,3632,"Include"
"KL2012_e1","KL2012_e1_12","Block1",66,1,5,2667,"Include"
"KL2012_e1","KL2012_e1_12","Block1",67,0,3,4528,"Include"
"KL2012_e1","KL2012_e1_12","Block1",68,0,1,4877,"Include"
"KL2012_e1","KL2012_e1_12","Block1",69,1,6,953,"Include"
"KL2012_e1","KL2012_e1_12","Block1",70,1,6,1547,"Include"
"KL2012_e1","KL2012_e1_12","Block1",71,0,1,1143,"Include"
"KL2012_e1","KL2012_e1_12","Block1",72,1,6,992,"Include"
"KL2012_e1","KL2012_e1_12","Block1",73,0,3,1894,"Include"
"KL2012_e1","KL2012_e1_12","Block1",74,0,4,4176,"Include"
"KL2012_e1","KL2012_e1_12","Block1",75,1,5,4356,"Include"
"KL2012_e1","KL2012_e1_12","Block1",76,1,6,1350,"Include"
"KL2012_e1","KL2012_e1_12","Block1",77,0,3,2178,"Include"
"KL2012_e1","KL2012_e1_12","Block1",78,1,6,3923,"Include"
"KL2012_e1","KL2012_e1_12","Block1",79,1,4,3221,"Include"
"KL2012_e1","KL2012_e1_12","Block1",80,0,2,1874,"Include"
"KL2012_e1","KL2012_e1_12","Block1",81,0,4,4924,"Include"
"KL2012_e1","KL2012_e1_12","Block1",82,0,5,1917,"Include"
"KL2012_e1","KL2012_e1_12","Block1",83,0,2,4293,"Include"
"KL2012_e1","KL2012_e1_12","Block1",84,1,6,1338,"Include"
"KL2012_e1","KL2012_e1_12","Block1",85,1,6,2525,"Include"
"KL2012_e1","KL2012_e1_12","Block1",86,1,1,1546,"Include"
"KL2012_e1","KL2012_e1_12","Block1",87,0,1,1113,"Include"
"KL2012_e1","KL2012_e1_12","Block1",88,0,1,994,"Include"
"KL2012_e1","KL2012_e1_12","Block1",89,0,5,15624,"Include"
"KL2012_e1","KL2012_e1_12","Block1",90,0,3,2285,"Include"
"KL2012_e1","KL2012_e1_12","Block1",91,1,6,1821,"Include"
"KL2012_e1","KL2012_e1_12","Block1",92,1,3,2832,"Include"
"KL2012_e1","KL2012_e1_12","Block1",93,1,6,1756,"Include"
"KL2012_e1","KL2012_e1_12","Block1",94,1,2,5367,"Include"
"KL2012_e1","KL2012_e1_12","Block1",95,1,6,4936,"Include"
"KL2012_e1","KL2012_e1_12","Block1",96,1,4,6299,"Include"
"KL2012_e1","KL2012_e1_12","Block2",97,1,6,3937,"Include"
"KL2012_e1","KL2012_e1_12","Block2",98,0,3,2989,"Include"
"KL2012_e1","KL2012_e1_12","Block2",99,1,6,897,"Include"
"KL2012_e1","KL2012_e1_12","Block2",100,0,1,1165,"Include"
"KL2012_e1","KL2012_e1_12","Block2",101,1,6,908,"Include"
"KL2012_e1","KL2012_e1_12","Block2",102,0,1,2264,"Include"
"KL2012_e1","KL2012_e1_12","Block2",103,0,1,2309,"Include"
"KL2012_e1","KL2012_e1_12","Block2",104,0,2,2177,"Include"
"KL2012_e1","KL2012_e1_12","Block2",105,0,2,2469,"Include"
"KL2012_e1","KL2012_e1_12","Block2",106,1,6,1891,"Include"
"KL2012_e1","KL2012_e1_12","Block2",107,1,6,692,"Include"
"KL2012_e1","KL2012_e1_12","Block2",108,0,2,2937,"Include"
"KL2012_e1","KL2012_e1_12","Block2",109,1,6,740,"Include"
"KL2012_e1","KL2012_e1_12","Block2",110,1,6,1499,"Include"
"KL2012_e1","KL2012_e1_12","Block2",111,1,6,1167,"Include"
"KL2012_e1","KL2012_e1_12","Block2",112,1,6,1893,"Include"
"KL2012_e1","KL2012_e1_12","Block2",113,1,6,756,"Include"
"KL2012_e1","KL2012_e1_12","Block2",114,1,1,1160,"Include"
"KL2012_e1","KL2012_e1_12","Block2",115,0,2,1768,"Include"
"KL2012_e1","KL2012_e1_12","Block2",116,1,6,1103,"Include"
"KL2012_e1","KL2012_e1_12","Block2",117,0,2,2597,"Include"
"KL2012_e1","KL2012_e1_12","Block2",118,1,2,2451,"Include"
"KL2012_e1","KL2012_e1_12","Block2",119,0,1,953,"Include"
"KL2012_e1","KL2012_e1_12","Block2",120,0,1,2631,"Include"
"KL2012_e1","KL2012_e1_12","Block2",121,1,6,1818,"Include"
"KL2012_e1","KL2012_e1_12","Block2",122,1,6,905,"Include"
"KL2012_e1","KL2012_e1_12","Block2",123,0,2,2124,"Include"
"KL2012_e1","KL2012_e1_12","Block2",124,0,3,5279,"Include"
"KL2012_e1","KL2012_e1_12","Block2",125,1,6,1217,"Include"
"KL2012_e1","KL2012_e1_12","Block2",126,0,2,2544,"Include"
"KL2012_e1","KL2012_e1_12","Block2",127,0,1,3645,"Include"
"KL2012_e1","KL2012_e1_12","Block2",128,1,6,926,"Include"
"KL2012_e1","KL2012_e1_12","Block2",129,0,2,4867,"Include"
"KL2012_e1","KL2012_e1_12","Block2",130,0,2,1818,"Include"
"KL2012_e1","KL2012_e1_12","Block2",131,1,6,1926,"Include"
"KL2012_e1","KL2012_e1_12","Block2",132,1,6,1071,"Include"
"KL2012_e1","KL2012_e1_12","Block2",133,0,1,1238,"Include"
"KL2012_e1","KL2012_e1_12","Block2",134,0,1,1290,"Include"
"KL2012_e1","KL2012_e1_12","Block2",135,1,6,866,"Include"
"KL2012_e1","KL2012_e1_12","Block2",136,0,1,3907,"Include"
"KL2012_e1","KL2012_e1_12","Block2",137,1,6,738,"Include"
"KL2012_e1","KL2012_e1_12","Block2",138,1,6,1535,"Include"
"KL2012_e1","KL2012_e1_12","Block2",139,1,6,1182,"Include"
"KL2012_e1","KL2012_e1_12","Block2",140,1,3,3292,"Include"
"KL2012_e1","KL2012_e1_12","Block2",141,0,2,2886,"Include"
"KL2012_e1","KL2012_e1_12","Block2",142,0,1,1652,"Include"
"KL2012_e1","KL2012_e1_12","Block2",143,0,4,1418,"Include"
"KL2012_e1","KL2012_e1_12","Block2",144,0,1,6830,"Include"
"KL2012_e1","KL2012_e1_12","Block2",145,1,6,1400,"Include"
"KL2012_e1","KL2012_e1_12","Block2",146,1,6,736,"Include"
"KL2012_e1","KL2012_e1_12","Block2",147,1,6,798,"Include"
"KL2012_e1","KL2012_e1_12","Block2",148,0,3,3601,"Include"
"KL2012_e1","KL2012_e1_12","Block2",149,1,6,1406,"Include"
"KL2012_e1","KL2012_e1_12","Block2",150,0,1,947,"Include"
"KL2012_e1","KL2012_e1_12","Block2",151,0,2,2256,"Include"
"KL2012_e1","KL2012_e1_12","Block2",152,1,6,1217,"Include"
"KL2012_e1","KL2012_e1_12","Block2",153,1,3,4341,"Include"
"KL2012_e1","KL2012_e1_12","Block2",154,0,1,1167,"Include"
"KL2012_e1","KL2012_e1_12","Block2",155,1,6,1161,"Include"
"KL2012_e1","KL2012_e1_12","Block2",156,1,6,4423,"Include"
"KL2012_e1","KL2012_e1_12","Block2",157,0,1,2296,"Include"
"KL2012_e1","KL2012_e1_12","Block2",158,0,4,9706,"Include"
"KL2012_e1","KL2012_e1_12","Block2",159,0,1,2912,"Include"
"KL2012_e1","KL2012_e1_12","Block2",160,0,2,2453,"Include"
"KL2012_e1","KL2012_e1_12","Block2",161,0,2,2269,"Include"
"KL2012_e1","KL2012_e1_12","Block2",162,1,6,2607,"Include"
"KL2012_e1","KL2012_e1_12","Block2",163,1,6,1157,"Include"
"KL2012_e1","KL2012_e1_12","Block2",164,1,6,4147,"Include"
"KL2012_e1","KL2012_e1_12","Block2",165,1,1,7596,"Include"
"KL2012_e1","KL2012_e1_12","Block2",166,0,1,920,"Include"
"KL2012_e1","KL2012_e1_12","Block2",167,0,1,1207,"Include"
"KL2012_e1","KL2012_e1_12","Block2",168,0,5,2039,"Include"
"KL2012_e1","KL2012_e1_12","Block2",169,0,1,1083,"Include"
"KL2012_e1","KL2012_e1_12","Block2",170,1,6,1205,"Include"
"KL2012_e1","KL2012_e1_12","Block2",171,1,6,925,"Include"
"KL2012_e1","KL2012_e1_12","Block2",172,1,6,786,"Include"
"KL2012_e1","KL2012_e1_12","Block2",173,1,3,4224,"Include"
"KL2012_e1","KL2012_e1_12","Block2",174,0,2,4993,"Include"
"KL2012_e1","KL2012_e1_12","Block2",175,1,6,1423,"Include"
"KL2012_e1","KL2012_e1_12","Block2",176,1,4,3206,"Include"
"KL2012_e1","KL2012_e1_12","Block2",177,1,6,1274,"Include"
"KL2012_e1","KL2012_e1_12","Block2",178,1,6,1266,"Include"
"KL2012_e1","KL2012_e1_12","Block2",179,0,1,3330,"Include"
"KL2012_e1","KL2012_e1_12","Block2",180,0,1,3844,"Include"
"KL2012_e1","KL2012_e1_12","Block2",181,1,4,8430,"Include"
"KL2012_e1","KL2012_e1_12","Block2",182,0,1,1871,"Include"
"KL2012_e1","KL2012_e1_12","Block2",183,0,1,5383,"Include"
"KL2012_e1","KL2012_e1_12","Block2",184,1,6,4810,"Include"
"KL2012_e1","KL2012_e1_12","Block2",185,0,1,4477,"Include"
"KL2012_e1","KL2012_e1_12","Block2",186,0,2,3866,"Include"
"KL2012_e1","KL2012_e1_12","Block2",187,1,6,1375,"Include"
"KL2012_e1","KL2012_e1_12","Block2",188,0,3,3201,"Include"
"KL2012_e1","KL2012_e1_12","Block2",189,0,1,5048,"Include"
"KL2012_e1","KL2012_e1_12","Block2",190,0,1,1469,"Include"
"KL2012_e1","KL2012_e1_12","Block2",191,1,6,1306,"Include"
"KL2012_e1","KL2012_e1_12","Block2",192,0,3,2769,"Include"
"KL2012_e1","KL2012_e1_13","Block1",1,1,5,2514,"Include"
"KL2012_e1","KL2012_e1_13","Block1",2,1,6,1966,"Include"
"KL2012_e1","KL2012_e1_13","Block1",3,0,2,2930,"Include"
"KL2012_e1","KL2012_e1_13","Block1",4,0,6,3541,"Include"
"KL2012_e1","KL2012_e1_13","Block1",5,1,4,3405,"Include"
"KL2012_e1","KL2012_e1_13","Block1",6,1,6,1692,"Include"
"KL2012_e1","KL2012_e1_13","Block1",7,1,4,3611,"Include"
"KL2012_e1","KL2012_e1_13","Block1",8,0,2,3544,"Include"
"KL2012_e1","KL2012_e1_13","Block1",9,0,6,2174,"Include"
"KL2012_e1","KL2012_e1_13","Block1",10,0,4,2139,"Include"
"KL2012_e1","KL2012_e1_13","Block1",11,0,1,1659,"Include"
"KL2012_e1","KL2012_e1_13","Block1",12,1,2,3546,"Include"
"KL2012_e1","KL2012_e1_13","Block1",13,0,2,2181,"Include"
"KL2012_e1","KL2012_e1_13","Block1",14,1,6,1377,"Include"
"KL2012_e1","KL2012_e1_13","Block1",15,1,2,2289,"Include"
"KL2012_e1","KL2012_e1_13","Block1",16,1,2,1811,"Include"
"KL2012_e1","KL2012_e1_13","Block1",17,0,1,3054,"Include"
"KL2012_e1","KL2012_e1_13","Block1",18,0,4,3407,"Include"
"KL2012_e1","KL2012_e1_13","Block1",19,0,2,4141,"Include"
"KL2012_e1","KL2012_e1_13","Block1",20,0,2,1206,"Include"
"KL2012_e1","KL2012_e1_13","Block1",21,0,5,2396,"Include"
"KL2012_e1","KL2012_e1_13","Block1",22,1,2,2969,"Include"
"KL2012_e1","KL2012_e1_13","Block1",23,1,6,1352,"Include"
"KL2012_e1","KL2012_e1_13","Block1",24,1,1,2732,"Include"
"KL2012_e1","KL2012_e1_13","Block1",25,0,5,3061,"Include"
"KL2012_e1","KL2012_e1_13","Block1",26,0,2,2035,"Include"
"KL2012_e1","KL2012_e1_13","Block1",27,0,2,1101,"Include"
"KL2012_e1","KL2012_e1_13","Block1",28,1,4,3286,"Include"
"KL2012_e1","KL2012_e1_13","Block1",29,1,3,2882,"Include"
"KL2012_e1","KL2012_e1_13","Block1",30,0,1,1532,"Include"
"KL2012_e1","KL2012_e1_13","Block1",31,0,3,2433,"Include"
"KL2012_e1","KL2012_e1_13","Block1",32,0,1,1429,"Include"
"KL2012_e1","KL2012_e1_13","Block1",33,0,2,4327,"Include"
"KL2012_e1","KL2012_e1_13","Block1",34,0,2,1855,"Include"
"KL2012_e1","KL2012_e1_13","Block1",35,1,2,1067,"Include"
"KL2012_e1","KL2012_e1_13","Block1",36,0,4,1900,"Include"
"KL2012_e1","KL2012_e1_13","Block1",37,0,1,1190,"Include"
"KL2012_e1","KL2012_e1_13","Block1",38,0,1,4361,"Include"
"KL2012_e1","KL2012_e1_13","Block1",39,0,1,1009,"Include"
"KL2012_e1","KL2012_e1_13","Block1",40,1,6,1223,"Include"
"KL2012_e1","KL2012_e1_13","Block1",41,1,3,3723,"Include"
"KL2012_e1","KL2012_e1_13","Block1",42,1,4,1478,"Include"
"KL2012_e1","KL2012_e1_13","Block1",43,0,2,3192,"Include"
"KL2012_e1","KL2012_e1_13","Block1",44,0,2,978,"Include"
"KL2012_e1","KL2012_e1_13","Block1",45,0,1,3980,"Include"
"KL2012_e1","KL2012_e1_13","Block1",46,0,1,1135,"Include"
"KL2012_e1","KL2012_e1_13","Block1",47,1,6,1035,"Include"
"KL2012_e1","KL2012_e1_13","Block1",48,0,2,1459,"Include"
"KL2012_e1","KL2012_e1_13","Block1",49,1,6,1457,"Include"
"KL2012_e1","KL2012_e1_13","Block1",50,0,2,1672,"Include"
"KL2012_e1","KL2012_e1_13","Block1",51,1,2,1914,"Include"
"KL2012_e1","KL2012_e1_13","Block1",52,0,1,4634,"Include"
"KL2012_e1","KL2012_e1_13","Block1",53,0,2,2665,"Include"
"KL2012_e1","KL2012_e1_13","Block1",54,1,2,2935,"Include"
"KL2012_e1","KL2012_e1_13","Block1",55,1,1,6596,"Include"
"KL2012_e1","KL2012_e1_13","Block1",56,0,2,3155,"Include"
"KL2012_e1","KL2012_e1_13","Block1",57,0,4,2190,"Include"
"KL2012_e1","KL2012_e1_13","Block1",58,1,6,1458,"Include"
"KL2012_e1","KL2012_e1_13","Block1",59,1,1,2569,"Include"
"KL2012_e1","KL2012_e1_13","Block1",60,1,4,1294,"Include"
"KL2012_e1","KL2012_e1_13","Block1",61,1,2,2852,"Include"
"KL2012_e1","KL2012_e1_13","Block1",62,1,6,1675,"Include"
"KL2012_e1","KL2012_e1_13","Block1",63,1,1,4181,"Include"
"KL2012_e1","KL2012_e1_13","Block1",64,1,1,1373,"Include"
"KL2012_e1","KL2012_e1_13","Block1",65,1,4,3046,"Include"
"KL2012_e1","KL2012_e1_13","Block1",66,1,6,2987,"Include"
"KL2012_e1","KL2012_e1_13","Block1",67,0,2,4092,"Include"
"KL2012_e1","KL2012_e1_13","Block1",68,0,2,1885,"Include"
"KL2012_e1","KL2012_e1_13","Block1",69,0,2,1313,"Include"
"KL2012_e1","KL2012_e1_13","Block1",70,0,4,1564,"Include"
"KL2012_e1","KL2012_e1_13","Block1",71,1,2,2460,"Include"
"KL2012_e1","KL2012_e1_13","Block1",72,1,2,7687,"Include"
"KL2012_e1","KL2012_e1_13","Block1",73,0,1,4537,"Include"
"KL2012_e1","KL2012_e1_13","Block1",74,1,4,1607,"Include"
"KL2012_e1","KL2012_e1_13","Block1",75,1,6,1145,"Include"
"KL2012_e1","KL2012_e1_13","Block1",76,1,2,3595,"Include"
"KL2012_e1","KL2012_e1_13","Block1",77,1,6,1844,"Include"
"KL2012_e1","KL2012_e1_13","Block1",78,1,6,1173,"Include"
"KL2012_e1","KL2012_e1_13","Block1",79,1,1,2641,"Include"
"KL2012_e1","KL2012_e1_13","Block1",80,0,1,4081,"Include"
"KL2012_e1","KL2012_e1_13","Block1",81,1,2,2218,"Include"
"KL2012_e1","KL2012_e1_13","Block1",82,0,1,3098,"Include"
"KL2012_e1","KL2012_e1_13","Block1",83,0,2,3753,"Include"
"KL2012_e1","KL2012_e1_13","Block1",84,1,2,2880,"Include"
"KL2012_e1","KL2012_e1_13","Block1",85,1,4,3453,"Include"
"KL2012_e1","KL2012_e1_13","Block1",86,1,1,2588,"Include"
"KL2012_e1","KL2012_e1_13","Block1",87,0,4,2122,"Include"
"KL2012_e1","KL2012_e1_13","Block1",88,1,6,1139,"Include"
"KL2012_e1","KL2012_e1_13","Block1",89,0,1,2797,"Include"
"KL2012_e1","KL2012_e1_13","Block1",90,1,2,2185,"Include"
"KL2012_e1","KL2012_e1_13","Block1",91,1,2,1415,"Include"
"KL2012_e1","KL2012_e1_13","Block1",92,0,2,1791,"Include"
"KL2012_e1","KL2012_e1_13","Block1",93,0,2,1074,"Include"
"KL2012_e1","KL2012_e1_13","Block1",94,0,3,4745,"Include"
"KL2012_e1","KL2012_e1_13","Block1",95,1,2,3830,"Include"
"KL2012_e1","KL2012_e1_13","Block1",96,0,4,2684,"Include"
"KL2012_e1","KL2012_e1_13","Block2",97,1,6,2891,"Include"
"KL2012_e1","KL2012_e1_13","Block2",98,1,6,1210,"Include"
"KL2012_e1","KL2012_e1_13","Block2",99,0,2,2632,"Include"
"KL2012_e1","KL2012_e1_13","Block2",100,1,2,2997,"Include"
"KL2012_e1","KL2012_e1_13","Block2",101,0,1,1805,"Include"
"KL2012_e1","KL2012_e1_13","Block2",102,1,4,1517,"Include"
"KL2012_e1","KL2012_e1_13","Block2",103,1,2,2342,"Include"
"KL2012_e1","KL2012_e1_13","Block2",104,0,1,1308,"Include"
"KL2012_e1","KL2012_e1_13","Block2",105,1,3,3103,"Include"
"KL2012_e1","KL2012_e1_13","Block2",106,0,4,2871,"Include"
"KL2012_e1","KL2012_e1_13","Block2",107,1,6,1202,"Include"
"KL2012_e1","KL2012_e1_13","Block2",108,0,2,2790,"Include"
"KL2012_e1","KL2012_e1_13","Block2",109,0,2,4192,"Include"
"KL2012_e1","KL2012_e1_13","Block2",110,1,1,1180,"Include"
"KL2012_e1","KL2012_e1_13","Block2",111,1,6,1707,"Include"
"KL2012_e1","KL2012_e1_13","Block2",112,0,6,2739,"Include"
"KL2012_e1","KL2012_e1_13","Block2",113,1,6,1525,"Include"
"KL2012_e1","KL2012_e1_13","Block2",114,0,1,2117,"Include"
"KL2012_e1","KL2012_e1_13","Block2",115,1,6,1410,"Include"
"KL2012_e1","KL2012_e1_13","Block2",116,1,6,1037,"Include"
"KL2012_e1","KL2012_e1_13","Block2",117,1,5,1962,"Include"
"KL2012_e1","KL2012_e1_13","Block2",118,0,1,1419,"Include"
"KL2012_e1","KL2012_e1_13","Block2",119,1,6,1083,"Include"
"KL2012_e1","KL2012_e1_13","Block2",120,1,6,3123,"Include"
"KL2012_e1","KL2012_e1_13","Block2",121,1,4,6329,"Include"
"KL2012_e1","KL2012_e1_13","Block2",122,0,1,1252,"Include"
"KL2012_e1","KL2012_e1_13","Block2",123,0,1,935,"Include"
"KL2012_e1","KL2012_e1_13","Block2",124,0,2,1798,"Include"
"KL2012_e1","KL2012_e1_13","Block2",125,1,2,1713,"Include"
"KL2012_e1","KL2012_e1_13","Block2",126,0,2,1803,"Include"
"KL2012_e1","KL2012_e1_13","Block2",127,0,2,5419,"Include"
"KL2012_e1","KL2012_e1_13","Block2",128,0,4,1661,"Include"
"KL2012_e1","KL2012_e1_13","Block2",129,1,6,3200,"Include"
"KL2012_e1","KL2012_e1_13","Block2",130,1,2,3746,"Include"
"KL2012_e1","KL2012_e1_13","Block2",131,1,6,1842,"Include"
"KL2012_e1","KL2012_e1_13","Block2",132,1,6,4226,"Include"
"KL2012_e1","KL2012_e1_13","Block2",133,1,2,1698,"Include"
"KL2012_e1","KL2012_e1_13","Block2",134,0,1,2654,"Include"
"KL2012_e1","KL2012_e1_13","Block2",135,1,6,8535,"Include"
"KL2012_e1","KL2012_e1_13","Block2",136,0,4,2155,"Include"
"KL2012_e1","KL2012_e1_13","Block2",137,1,6,1081,"Include"
"KL2012_e1","KL2012_e1_13","Block2",138,0,2,3369,"Include"
"KL2012_e1","KL2012_e1_13","Block2",139,0,2,1264,"Include"
"KL2012_e1","KL2012_e1_13","Block2",140,0,2,1394,"Include"
"KL2012_e1","KL2012_e1_13","Block2",141,0,1,2556,"Include"
"KL2012_e1","KL2012_e1_13","Block2",142,0,1,1138,"Include"
"KL2012_e1","KL2012_e1_13","Block2",143,0,3,4687,"Include"
"KL2012_e1","KL2012_e1_13","Block2",144,0,4,4780,"Include"
"KL2012_e1","KL2012_e1_13","Block2",145,1,2,2763,"Include"
"KL2012_e1","KL2012_e1_13","Block2",146,1,5,2827,"Include"
"KL2012_e1","KL2012_e1_13","Block2",147,0,2,2218,"Include"
"KL2012_e1","KL2012_e1_13","Block2",148,0,1,2058,"Include"
"KL2012_e1","KL2012_e1_13","Block2",149,1,1,3079,"Include"
"KL2012_e1","KL2012_e1_13","Block2",150,0,4,3700,"Include"
"KL2012_e1","KL2012_e1_13","Block2",151,0,1,2104,"Include"
"KL2012_e1","KL2012_e1_13","Block2",152,1,2,3943,"Include"
"KL2012_e1","KL2012_e1_13","Block2",153,0,1,1200,"Include"
"KL2012_e1","KL2012_e1_13","Block2",154,1,6,2043,"Include"
"KL2012_e1","KL2012_e1_13","Block2",155,0,1,2431,"Include"
"KL2012_e1","KL2012_e1_13","Block2",156,1,6,1803,"Include"
"KL2012_e1","KL2012_e1_13","Block2",157,0,1,1234,"Include"
"KL2012_e1","KL2012_e1_13","Block2",158,1,2,4883,"Include"
"KL2012_e1","KL2012_e1_13","Block2",159,0,2,2555,"Include"
"KL2012_e1","KL2012_e1_13","Block2",160,0,1,1334,"Include"
"KL2012_e1","KL2012_e1_13","Block2",161,0,4,3348,"Include"
"KL2012_e1","KL2012_e1_13","Block2",162,0,1,3114,"Include"
"KL2012_e1","KL2012_e1_13","Block2",163,1,1,3569,"Include"
"KL2012_e1","KL2012_e1_13","Block2",164,1,6,1471,"Include"
"KL2012_e1","KL2012_e1_13","Block2",165,1,6,1214,"Include"
"KL2012_e1","KL2012_e1_13","Block2",166,0,1,2885,"Include"
"KL2012_e1","KL2012_e1_13","Block2",167,0,1,3071,"Include"
"KL2012_e1","KL2012_e1_13","Block2",168,1,6,1918,"Include"
"KL2012_e1","KL2012_e1_13","Block2",169,0,1,3169,"Include"
"KL2012_e1","KL2012_e1_13","Block2",170,0,2,4679,"Include"
"KL2012_e1","KL2012_e1_13","Block2",171,0,1,4961,"Include"
"KL2012_e1","KL2012_e1_13","Block2",172,0,2,2176,"Include"
"KL2012_e1","KL2012_e1_13","Block2",173,0,2,900,"Include"
"KL2012_e1","KL2012_e1_13","Block2",174,1,2,843,"Include"
"KL2012_e1","KL2012_e1_13","Block2",175,1,1,1670,"Include"
"KL2012_e1","KL2012_e1_13","Block2",176,1,1,1398,"Include"
"KL2012_e1","KL2012_e1_13","Block2",177,1,1,2370,"Include"
"KL2012_e1","KL2012_e1_13","Block2",178,1,6,3119,"Include"
"KL2012_e1","KL2012_e1_13","Block2",179,1,6,1718,"Include"
"KL2012_e1","KL2012_e1_13","Block2",180,1,6,1382,"Include"
"KL2012_e1","KL2012_e1_13","Block2",181,1,6,776,"Include"
"KL2012_e1","KL2012_e1_13","Block2",182,0,3,6298,"Include"
"KL2012_e1","KL2012_e1_13","Block2",183,1,1,1102,"Include"
"KL2012_e1","KL2012_e1_13","Block2",184,1,6,1373,"Include"
"KL2012_e1","KL2012_e1_13","Block2",185,1,5,1544,"Include"
"KL2012_e1","KL2012_e1_13","Block2",186,0,1,1075,"Include"
"KL2012_e1","KL2012_e1_13","Block2",187,0,1,1398,"Include"
"KL2012_e1","KL2012_e1_13","Block2",188,0,4,11507,"Include"
"KL2012_e1","KL2012_e1_13","Block2",189,1,6,1668,"Include"
"KL2012_e1","KL2012_e1_13","Block2",190,0,2,1762,"Include"
"KL2012_e1","KL2012_e1_13","Block2",191,1,2,1186,"Include"
"KL2012_e1","KL2012_e1_13","Block2",192,0,1,1433,"Include"
"KL2012_e1","KL2012_e1_14","Block1",1,0,2,2045,"Include"
"KL2012_e1","KL2012_e1_14","Block1",2,0,1,1267,"Include"
"KL2012_e1","KL2012_e1_14","Block1",3,0,2,1228,"Include"
"KL2012_e1","KL2012_e1_14","Block1",4,1,4,1847,"Include"
"KL2012_e1","KL2012_e1_14","Block1",5,0,6,2284,"Include"
"KL2012_e1","KL2012_e1_14","Block1",6,0,4,1593,"Include"
"KL2012_e1","KL2012_e1_14","Block1",7,0,3,1471,"Include"
"KL2012_e1","KL2012_e1_14","Block1",8,1,3,1312,"Include"
"KL2012_e1","KL2012_e1_14","Block1",9,0,3,1075,"Include"
"KL2012_e1","KL2012_e1_14","Block1",10,0,3,856,"Include"
"KL2012_e1","KL2012_e1_14","Block1",11,1,2,1367,"Include"
"KL2012_e1","KL2012_e1_14","Block1",12,0,1,1527,"Include"
"KL2012_e1","KL2012_e1_14","Block1",13,1,6,1438,"Include"
"KL2012_e1","KL2012_e1_14","Block1",14,1,4,1552,"Include"
"KL2012_e1","KL2012_e1_14","Block1",15,0,1,1180,"Include"
"KL2012_e1","KL2012_e1_14","Block1",16,0,2,1043,"Include"
"KL2012_e1","KL2012_e1_14","Block1",17,1,6,1128,"Include"
"KL2012_e1","KL2012_e1_14","Block1",18,1,6,762,"Include"
"KL2012_e1","KL2012_e1_14","Block1",19,1,6,1115,"Include"
"KL2012_e1","KL2012_e1_14","Block1",20,1,4,2178,"Include"
"KL2012_e1","KL2012_e1_14","Block1",21,1,4,1472,"Include"
"KL2012_e1","KL2012_e1_14","Block1",22,0,2,1258,"Include"
"KL2012_e1","KL2012_e1_14","Block1",23,0,2,1554,"Include"
"KL2012_e1","KL2012_e1_14","Block1",24,0,1,1270,"Include"
"KL2012_e1","KL2012_e1_14","Block1",25,1,4,1407,"Include"
"KL2012_e1","KL2012_e1_14","Block1",26,1,5,1323,"Include"
"KL2012_e1","KL2012_e1_14","Block1",27,0,4,1058,"Include"
"KL2012_e1","KL2012_e1_14","Block1",28,1,6,980,"Include"
"KL2012_e1","KL2012_e1_14","Block1",29,0,5,1154,"Include"
"KL2012_e1","KL2012_e1_14","Block1",30,1,2,1407,"Include"
"KL2012_e1","KL2012_e1_14","Block1",31,1,3,1436,"Include"
"KL2012_e1","KL2012_e1_14","Block1",32,1,2,1199,"Include"
"KL2012_e1","KL2012_e1_14","Block1",33,0,1,1341,"Include"
"KL2012_e1","KL2012_e1_14","Block1",34,0,1,843,"Include"
"KL2012_e1","KL2012_e1_14","Block1",35,1,4,1950,"Include"
"KL2012_e1","KL2012_e1_14","Block1",36,1,3,1300,"Include"
"KL2012_e1","KL2012_e1_14","Block1",37,0,2,1275,"Include"
"KL2012_e1","KL2012_e1_14","Block1",38,0,2,857,"Include"
"KL2012_e1","KL2012_e1_14","Block1",39,1,4,1638,"Include"
"KL2012_e1","KL2012_e1_14","Block1",40,0,2,1077,"Include"
"KL2012_e1","KL2012_e1_14","Block1",41,1,2,1247,"Include"
"KL2012_e1","KL2012_e1_14","Block1",42,1,4,1416,"Include"
"KL2012_e1","KL2012_e1_14","Block1",43,0,2,1441,"Include"
"KL2012_e1","KL2012_e1_14","Block1",44,0,1,1150,"Include"
"KL2012_e1","KL2012_e1_14","Block1",45,0,2,990,"Include"
"KL2012_e1","KL2012_e1_14","Block1",46,0,3,1142,"Include"
"KL2012_e1","KL2012_e1_14","Block1",47,1,2,878,"Include"
"KL2012_e1","KL2012_e1_14","Block1",48,0,3,939,"Include"
"KL2012_e1","KL2012_e1_14","Block1",49,0,2,899,"Include"
"KL2012_e1","KL2012_e1_14","Block1",50,1,6,1032,"Include"
"KL2012_e1","KL2012_e1_14","Block1",51,0,3,1274,"Include"
"KL2012_e1","KL2012_e1_14","Block1",52,1,6,2393,"Include"
"KL2012_e1","KL2012_e1_14","Block1",53,0,2,1533,"Include"
"KL2012_e1","KL2012_e1_14","Block1",54,0,2,1675,"Include"
"KL2012_e1","KL2012_e1_14","Block1",55,0,2,2084,"Include"
"KL2012_e1","KL2012_e1_14","Block1",56,1,2,988,"Include"
"KL2012_e1","KL2012_e1_14","Block1",57,0,2,1532,"Include"
"KL2012_e1","KL2012_e1_14","Block1",58,1,3,2108,"Include"
"KL2012_e1","KL2012_e1_14","Block1",59,1,2,1506,"Include"
"KL2012_e1","KL2012_e1_14","Block1",60,0,2,1450,"Include"
"KL2012_e1","KL2012_e1_14","Block1",61,1,6,1034,"Include"
"KL2012_e1","KL2012_e1_14","Block1",62,1,2,1280,"Include"
"KL2012_e1","KL2012_e1_14","Block1",63,0,2,1296,"Include"
"KL2012_e1","KL2012_e1_14","Block1",64,1,4,2262,"Include"
"KL2012_e1","KL2012_e1_14","Block1",65,1,2,2296,"Include"
"KL2012_e1","KL2012_e1_14","Block1",66,1,3,1360,"Include"
"KL2012_e1","KL2012_e1_14","Block1",67,1,2,2493,"Include"
"KL2012_e1","KL2012_e1_14","Block1",68,1,6,1907,"Include"
"KL2012_e1","KL2012_e1_14","Block1",69,0,3,1208,"Include"
"KL2012_e1","KL2012_e1_14","Block1",70,0,1,1344,"Include"
"KL2012_e1","KL2012_e1_14","Block1",71,0,2,1219,"Include"
"KL2012_e1","KL2012_e1_14","Block1",72,1,6,1059,"Include"
"KL2012_e1","KL2012_e1_14","Block1",73,1,5,1203,"Include"
"KL2012_e1","KL2012_e1_14","Block1",74,0,2,1725,"Include"
"KL2012_e1","KL2012_e1_14","Block1",75,0,2,1298,"Include"
"KL2012_e1","KL2012_e1_14","Block1",76,0,3,1491,"Include"
"KL2012_e1","KL2012_e1_14","Block1",77,1,5,1441,"Include"
"KL2012_e1","KL2012_e1_14","Block1",78,0,2,2354,"Include"
"KL2012_e1","KL2012_e1_14","Block1",79,1,4,1793,"Include"
"KL2012_e1","KL2012_e1_14","Block1",80,1,4,940,"Include"
"KL2012_e1","KL2012_e1_14","Block1",81,1,4,1754,"Include"
"KL2012_e1","KL2012_e1_14","Block1",82,0,2,1442,"Include"
"KL2012_e1","KL2012_e1_14","Block1",83,0,3,1540,"Include"
"KL2012_e1","KL2012_e1_14","Block1",84,1,6,987,"Include"
"KL2012_e1","KL2012_e1_14","Block1",85,0,4,1845,"Include"
"KL2012_e1","KL2012_e1_14","Block1",86,1,3,1372,"Include"
"KL2012_e1","KL2012_e1_14","Block1",87,1,2,2063,"Include"
"KL2012_e1","KL2012_e1_14","Block1",88,1,4,1879,"Include"
"KL2012_e1","KL2012_e1_14","Block1",89,0,2,1157,"Include"
"KL2012_e1","KL2012_e1_14","Block1",90,1,4,1981,"Include"
"KL2012_e1","KL2012_e1_14","Block1",91,0,2,1487,"Include"
"KL2012_e1","KL2012_e1_14","Block1",92,0,4,1325,"Include"
"KL2012_e1","KL2012_e1_14","Block1",93,1,6,1189,"Include"
"KL2012_e1","KL2012_e1_14","Block1",94,0,2,1898,"Include"
"KL2012_e1","KL2012_e1_14","Block1",95,1,6,923,"Include"
"KL2012_e1","KL2012_e1_14","Block1",96,1,2,1426,"Include"
"KL2012_e1","KL2012_e1_14","Block2",97,0,2,6002,"Include"
"KL2012_e1","KL2012_e1_14","Block2",98,0,2,1285,"Include"
"KL2012_e1","KL2012_e1_14","Block2",99,0,1,1490,"Include"
"KL2012_e1","KL2012_e1_14","Block2",100,1,2,1491,"Include"
"KL2012_e1","KL2012_e1_14","Block2",101,0,2,1584,"Include"
"KL2012_e1","KL2012_e1_14","Block2",102,1,4,1378,"Include"
"KL2012_e1","KL2012_e1_14","Block2",103,0,1,1193,"Include"
"KL2012_e1","KL2012_e1_14","Block2",104,0,2,1504,"Include"
"KL2012_e1","KL2012_e1_14","Block2",105,0,4,1573,"Include"
"KL2012_e1","KL2012_e1_14","Block2",106,1,6,1295,"Include"
"KL2012_e1","KL2012_e1_14","Block2",107,1,6,1517,"Include"
"KL2012_e1","KL2012_e1_14","Block2",108,1,6,919,"Include"
"KL2012_e1","KL2012_e1_14","Block2",109,1,6,673,"Include"
"KL2012_e1","KL2012_e1_14","Block2",110,0,2,2017,"Include"
"KL2012_e1","KL2012_e1_14","Block2",111,1,5,1347,"Include"
"KL2012_e1","KL2012_e1_14","Block2",112,1,6,1319,"Include"
"KL2012_e1","KL2012_e1_14","Block2",113,0,3,1451,"Include"
"KL2012_e1","KL2012_e1_14","Block2",114,1,4,1379,"Include"
"KL2012_e1","KL2012_e1_14","Block2",115,0,4,1243,"Include"
"KL2012_e1","KL2012_e1_14","Block2",116,1,6,1249,"Include"
"KL2012_e1","KL2012_e1_14","Block2",117,0,2,1477,"Include"
"KL2012_e1","KL2012_e1_14","Block2",118,1,6,985,"Include"
"KL2012_e1","KL2012_e1_14","Block2",119,1,4,1074,"Include"
"KL2012_e1","KL2012_e1_14","Block2",120,1,6,935,"Include"
"KL2012_e1","KL2012_e1_14","Block2",121,0,5,1250,"Include"
"KL2012_e1","KL2012_e1_14","Block2",122,0,4,1319,"Include"
"KL2012_e1","KL2012_e1_14","Block2",123,0,1,1402,"Include"
"KL2012_e1","KL2012_e1_14","Block2",124,1,5,1276,"Include"
"KL2012_e1","KL2012_e1_14","Block2",125,0,2,1222,"Include"
"KL2012_e1","KL2012_e1_14","Block2",126,1,6,1339,"Include"
"KL2012_e1","KL2012_e1_14","Block2",127,1,4,1054,"Include"
"KL2012_e1","KL2012_e1_14","Block2",128,1,5,1147,"Include"
"KL2012_e1","KL2012_e1_14","Block2",129,0,2,1268,"Include"
"KL2012_e1","KL2012_e1_14","Block2",130,0,4,1162,"Include"
"KL2012_e1","KL2012_e1_14","Block2",131,1,6,1100,"Include"
"KL2012_e1","KL2012_e1_14","Block2",132,0,3,1271,"Include"
"KL2012_e1","KL2012_e1_14","Block2",133,1,6,1167,"Include"
"KL2012_e1","KL2012_e1_14","Block2",134,0,4,2000,"Include"
"KL2012_e1","KL2012_e1_14","Block2",135,1,6,973,"Include"
"KL2012_e1","KL2012_e1_14","Block2",136,1,5,1283,"Include"
"KL2012_e1","KL2012_e1_14","Block2",137,1,2,1259,"Include"
"KL2012_e1","KL2012_e1_14","Block2",138,1,6,731,"Include"
"KL2012_e1","KL2012_e1_14","Block2",139,1,6,1193,"Include"
"KL2012_e1","KL2012_e1_14","Block2",140,1,6,744,"Include"
"KL2012_e1","KL2012_e1_14","Block2",141,0,2,1390,"Include"
"KL2012_e1","KL2012_e1_14","Block2",142,0,2,1114,"Include"
"KL2012_e1","KL2012_e1_14","Block2",143,1,5,1913,"Include"
"KL2012_e1","KL2012_e1_14","Block2",144,0,4,2088,"Include"
"KL2012_e1","KL2012_e1_14","Block2",145,1,6,875,"Include"
"KL2012_e1","KL2012_e1_14","Block2",146,1,6,668,"Include"
"KL2012_e1","KL2012_e1_14","Block2",147,0,4,2710,"Include"
"KL2012_e1","KL2012_e1_14","Block2",148,0,4,1199,"Include"
"KL2012_e1","KL2012_e1_14","Block2",149,0,2,1641,"Include"
"KL2012_e1","KL2012_e1_14","Block2",150,1,6,1064,"Include"
"KL2012_e1","KL2012_e1_14","Block2",151,0,2,2044,"Include"
"KL2012_e1","KL2012_e1_14","Block2",152,0,2,1614,"Include"
"KL2012_e1","KL2012_e1_14","Block2",153,1,2,1469,"Include"
"KL2012_e1","KL2012_e1_14","Block2",154,0,2,2245,"Include"
"KL2012_e1","KL2012_e1_14","Block2",155,0,2,925,"Include"
"KL2012_e1","KL2012_e1_14","Block2",156,0,2,1253,"Include"
"KL2012_e1","KL2012_e1_14","Block2",157,1,6,992,"Include"
"KL2012_e1","KL2012_e1_14","Block2",158,0,2,1312,"Include"
"KL2012_e1","KL2012_e1_14","Block2",159,1,2,1498,"Include"
"KL2012_e1","KL2012_e1_14","Block2",160,0,4,1496,"Include"
"KL2012_e1","KL2012_e1_14","Block2",161,0,2,1611,"Include"
"KL2012_e1","KL2012_e1_14","Block2",162,1,6,932,"Include"
"KL2012_e1","KL2012_e1_14","Block2",163,0,4,1536,"Include"
"KL2012_e1","KL2012_e1_14","Block2",164,0,2,1177,"Include"
"KL2012_e1","KL2012_e1_14","Block2",165,1,6,1020,"Include"
"KL2012_e1","KL2012_e1_14","Block2",166,0,2,1304,"Include"
"KL2012_e1","KL2012_e1_14","Block2",167,1,4,983,"Include"
"KL2012_e1","KL2012_e1_14","Block2",168,1,6,1570,"Include"
"KL2012_e1","KL2012_e1_14","Block2",169,0,2,1823,"Include"
"KL2012_e1","KL2012_e1_14","Block2",170,1,2,1492,"Include"
"KL2012_e1","KL2012_e1_14","Block2",171,0,4,1373,"Include"
"KL2012_e1","KL2012_e1_14","Block2",172,1,6,869,"Include"
"KL2012_e1","KL2012_e1_14","Block2",173,1,6,808,"Include"
"KL2012_e1","KL2012_e1_14","Block2",174,1,6,1211,"Include"
"KL2012_e1","KL2012_e1_14","Block2",175,1,6,676,"Include"
"KL2012_e1","KL2012_e1_14","Block2",176,0,3,2261,"Include"
"KL2012_e1","KL2012_e1_14","Block2",177,0,4,1357,"Include"
"KL2012_e1","KL2012_e1_14","Block2",178,1,4,1112,"Include"
"KL2012_e1","KL2012_e1_14","Block2",179,0,4,1009,"Include"
"KL2012_e1","KL2012_e1_14","Block2",180,0,4,1304,"Include"
"KL2012_e1","KL2012_e1_14","Block2",181,0,4,2246,"Include"
"KL2012_e1","KL2012_e1_14","Block2",182,0,3,2206,"Include"
"KL2012_e1","KL2012_e1_14","Block2",183,1,3,1887,"Include"
"KL2012_e1","KL2012_e1_14","Block2",184,1,6,1204,"Include"
"KL2012_e1","KL2012_e1_14","Block2",185,1,4,1141,"Include"
"KL2012_e1","KL2012_e1_14","Block2",186,0,2,1463,"Include"
"KL2012_e1","KL2012_e1_14","Block2",187,0,3,1254,"Include"
"KL2012_e1","KL2012_e1_14","Block2",188,0,5,1323,"Include"
"KL2012_e1","KL2012_e1_14","Block2",189,1,6,1055,"Include"
"KL2012_e1","KL2012_e1_14","Block2",190,1,3,1671,"Include"
"KL2012_e1","KL2012_e1_14","Block2",191,1,4,1238,"Include"
"KL2012_e1","KL2012_e1_14","Block2",192,0,4,1378,"Include"
"KL2012_e1","KL2012_e1_15","Block1",1,1,6,5990,"Include"
"KL2012_e1","KL2012_e1_15","Block1",2,0,1,3823,"Include"
"KL2012_e1","KL2012_e1_15","Block1",3,0,2,4000,"Include"
"KL2012_e1","KL2012_e1_15","Block1",4,0,3,2509,"Include"
"KL2012_e1","KL2012_e1_15","Block1",5,0,2,1508,"Include"
"KL2012_e1","KL2012_e1_15","Block1",6,0,4,2297,"Include"
"KL2012_e1","KL2012_e1_15","Block1",7,1,5,1541,"Include"
"KL2012_e1","KL2012_e1_15","Block1",8,1,6,1137,"Include"
"KL2012_e1","KL2012_e1_15","Block1",9,0,6,1278,"Include"
"KL2012_e1","KL2012_e1_15","Block1",10,1,6,1392,"Include"
"KL2012_e1","KL2012_e1_15","Block1",11,0,2,1721,"Include"
"KL2012_e1","KL2012_e1_15","Block1",12,1,2,999,"Include"
"KL2012_e1","KL2012_e1_15","Block1",13,0,3,1452,"Include"
"KL2012_e1","KL2012_e1_15","Block1",14,1,6,1465,"Include"
"KL2012_e1","KL2012_e1_15","Block1",15,1,6,913,"Include"
"KL2012_e1","KL2012_e1_15","Block1",16,1,6,688,"Include"
"KL2012_e1","KL2012_e1_15","Block1",17,1,6,783,"Include"
"KL2012_e1","KL2012_e1_15","Block1",18,0,1,1424,"Include"
"KL2012_e1","KL2012_e1_15","Block1",19,0,1,995,"Include"
"KL2012_e1","KL2012_e1_15","Block1",20,0,4,1558,"Include"
"KL2012_e1","KL2012_e1_15","Block1",21,0,4,2388,"Include"
"KL2012_e1","KL2012_e1_15","Block1",22,1,5,2002,"Include"
"KL2012_e1","KL2012_e1_15","Block1",23,0,2,1678,"Include"
"KL2012_e1","KL2012_e1_15","Block1",24,0,2,1371,"Include"
"KL2012_e1","KL2012_e1_15","Block1",25,1,6,1184,"Include"
"KL2012_e1","KL2012_e1_15","Block1",26,1,6,605,"Include"
"KL2012_e1","KL2012_e1_15","Block1",27,0,3,2062,"Include"
"KL2012_e1","KL2012_e1_15","Block1",28,0,4,1584,"Include"
"KL2012_e1","KL2012_e1_15","Block1",29,1,4,1203,"Include"
"KL2012_e1","KL2012_e1_15","Block1",30,0,2,1449,"Include"
"KL2012_e1","KL2012_e1_15","Block1",31,1,6,1306,"Include"
"KL2012_e1","KL2012_e1_15","Block1",32,1,6,1087,"Include"
"KL2012_e1","KL2012_e1_15","Block1",33,0,6,949,"Include"
"KL2012_e1","KL2012_e1_15","Block1",34,1,3,1763,"Include"
"KL2012_e1","KL2012_e1_15","Block1",35,1,6,1344,"Include"
"KL2012_e1","KL2012_e1_15","Block1",36,0,6,1437,"Include"
"KL2012_e1","KL2012_e1_15","Block1",37,1,6,774,"Include"
"KL2012_e1","KL2012_e1_15","Block1",38,1,6,625,"Include"
"KL2012_e1","KL2012_e1_15","Block1",39,1,6,1272,"Include"
"KL2012_e1","KL2012_e1_15","Block1",40,0,3,3178,"Include"
"KL2012_e1","KL2012_e1_15","Block1",41,1,1,1896,"Include"
"KL2012_e1","KL2012_e1_15","Block1",42,1,6,1264,"Include"
"KL2012_e1","KL2012_e1_15","Block1",43,0,4,1950,"Include"
"KL2012_e1","KL2012_e1_15","Block1",44,0,4,2044,"Include"
"KL2012_e1","KL2012_e1_15","Block1",45,0,6,2217,"Include"
"KL2012_e1","KL2012_e1_15","Block1",46,1,6,660,"Include"
"KL2012_e1","KL2012_e1_15","Block1",47,0,5,2368,"Include"
"KL2012_e1","KL2012_e1_15","Block1",48,1,6,936,"Include"
"KL2012_e1","KL2012_e1_15","Block1",49,1,6,800,"Include"
"KL2012_e1","KL2012_e1_15","Block1",50,0,6,645,"Include"
"KL2012_e1","KL2012_e1_15","Block1",51,1,6,890,"Include"
"KL2012_e1","KL2012_e1_15","Block1",52,1,6,698,"Include"
"KL2012_e1","KL2012_e1_15","Block1",53,1,6,676,"Include"
"KL2012_e1","KL2012_e1_15","Block1",54,0,2,3396,"Include"
"KL2012_e1","KL2012_e1_15","Block1",55,1,1,1333,"Include"
"KL2012_e1","KL2012_e1_15","Block1",56,0,3,1827,"Include"
"KL2012_e1","KL2012_e1_15","Block1",57,1,5,1767,"Include"
"KL2012_e1","KL2012_e1_15","Block1",58,0,2,1737,"Include"
"KL2012_e1","KL2012_e1_15","Block1",59,0,2,2566,"Include"
"KL2012_e1","KL2012_e1_15","Block1",60,1,3,1310,"Include"
"KL2012_e1","KL2012_e1_15","Block1",61,1,6,1513,"Include"
"KL2012_e1","KL2012_e1_15","Block1",62,0,6,1709,"Include"
"KL2012_e1","KL2012_e1_15","Block1",63,1,6,1219,"Include"
"KL2012_e1","KL2012_e1_15","Block1",64,0,2,1278,"Include"
"KL2012_e1","KL2012_e1_15","Block1",65,1,6,1266,"Include"
"KL2012_e1","KL2012_e1_15","Block1",66,1,6,747,"Include"
"KL2012_e1","KL2012_e1_15","Block1",67,0,6,804,"Include"
"KL2012_e1","KL2012_e1_15","Block1",68,0,1,1731,"Include"
"KL2012_e1","KL2012_e1_15","Block1",69,1,6,1469,"Include"
"KL2012_e1","KL2012_e1_15","Block1",70,0,1,3547,"Include"
"KL2012_e1","KL2012_e1_15","Block1",71,0,1,1451,"Include"
"KL2012_e1","KL2012_e1_15","Block1",72,1,5,1648,"Include"
"KL2012_e1","KL2012_e1_15","Block1",73,1,4,1363,"Include"
"KL2012_e1","KL2012_e1_15","Block1",74,1,6,1883,"Include"
"KL2012_e1","KL2012_e1_15","Block1",75,1,6,565,"Include"
"KL2012_e1","KL2012_e1_15","Block1",76,1,6,577,"Include"
"KL2012_e1","KL2012_e1_15","Block1",77,1,6,1029,"Include"
"KL2012_e1","KL2012_e1_15","Block1",78,0,4,2330,"Include"
"KL2012_e1","KL2012_e1_15","Block1",79,0,3,1861,"Include"
"KL2012_e1","KL2012_e1_15","Block1",80,0,6,1762,"Include"
"KL2012_e1","KL2012_e1_15","Block1",81,1,6,637,"Include"
"KL2012_e1","KL2012_e1_15","Block1",82,0,2,1523,"Include"
"KL2012_e1","KL2012_e1_15","Block1",83,0,3,1536,"Include"
"KL2012_e1","KL2012_e1_15","Block1",84,0,3,717,"Include"
"KL2012_e1","KL2012_e1_15","Block1",85,1,3,961,"Include"
"KL2012_e1","KL2012_e1_15","Block1",86,1,6,2294,"Include"
"KL2012_e1","KL2012_e1_15","Block1",87,0,1,1694,"Include"
"KL2012_e1","KL2012_e1_15","Block1",88,0,3,1764,"Include"
"KL2012_e1","KL2012_e1_15","Block1",89,0,3,620,"Include"
"KL2012_e1","KL2012_e1_15","Block1",90,1,6,1201,"Include"
"KL2012_e1","KL2012_e1_15","Block1",91,0,3,1682,"Include"
"KL2012_e1","KL2012_e1_15","Block1",92,1,5,1629,"Include"
"KL2012_e1","KL2012_e1_15","Block1",93,0,3,1975,"Include"
"KL2012_e1","KL2012_e1_15","Block1",94,0,3,1198,"Include"
"KL2012_e1","KL2012_e1_15","Block1",95,0,3,1210,"Include"
"KL2012_e1","KL2012_e1_15","Block1",96,1,6,1381,"Include"
"KL2012_e1","KL2012_e1_15","Block2",97,1,4,6050,"Include"
"KL2012_e1","KL2012_e1_15","Block2",98,0,1,1592,"Include"
"KL2012_e1","KL2012_e1_15","Block2",99,0,2,1610,"Include"
"KL2012_e1","KL2012_e1_15","Block2",100,0,2,1118,"Include"
"KL2012_e1","KL2012_e1_15","Block2",101,0,2,1180,"Include"
"KL2012_e1","KL2012_e1_15","Block2",102,1,6,1325,"Include"
"KL2012_e1","KL2012_e1_15","Block2",103,0,3,1513,"Include"
"KL2012_e1","KL2012_e1_15","Block2",104,1,6,1039,"Include"
"KL2012_e1","KL2012_e1_15","Block2",105,0,3,1438,"Include"
"KL2012_e1","KL2012_e1_15","Block2",106,0,3,898,"Include"
"KL2012_e1","KL2012_e1_15","Block2",107,0,2,1179,"Include"
"KL2012_e1","KL2012_e1_15","Block2",108,1,6,1419,"Include"
"KL2012_e1","KL2012_e1_15","Block2",109,0,1,2910,"Include"
"KL2012_e1","KL2012_e1_15","Block2",110,0,1,1079,"Include"
"KL2012_e1","KL2012_e1_15","Block2",111,1,6,1125,"Include"
"KL2012_e1","KL2012_e1_15","Block2",112,0,6,1827,"Include"
"KL2012_e1","KL2012_e1_15","Block2",113,0,4,4975,"Include"
"KL2012_e1","KL2012_e1_15","Block2",114,0,2,1943,"Include"
"KL2012_e1","KL2012_e1_15","Block2",115,0,2,1277,"Include"
"KL2012_e1","KL2012_e1_15","Block2",116,0,2,1358,"Include"
"KL2012_e1","KL2012_e1_15","Block2",117,1,6,1213,"Include"
"KL2012_e1","KL2012_e1_15","Block2",118,0,2,2163,"Include"
"KL2012_e1","KL2012_e1_15","Block2",119,1,6,1090,"Include"
"KL2012_e1","KL2012_e1_15","Block2",120,1,6,1053,"Include"
"KL2012_e1","KL2012_e1_15","Block2",121,1,6,925,"Include"
"KL2012_e1","KL2012_e1_15","Block2",122,1,6,568,"Include"
"KL2012_e1","KL2012_e1_15","Block2",123,0,5,2701,"Include"
"KL2012_e1","KL2012_e1_15","Block2",124,1,6,861,"Include"
"KL2012_e1","KL2012_e1_15","Block2",125,0,3,1799,"Include"
"KL2012_e1","KL2012_e1_15","Block2",126,0,2,1171,"Include"
"KL2012_e1","KL2012_e1_15","Block2",127,0,2,1445,"Include"
"KL2012_e1","KL2012_e1_15","Block2",128,0,4,2393,"Include"
"KL2012_e1","KL2012_e1_15","Block2",129,1,6,1514,"Include"
"KL2012_e1","KL2012_e1_15","Block2",130,1,6,682,"Include"
"KL2012_e1","KL2012_e1_15","Block2",131,0,4,1414,"Include"
"KL2012_e1","KL2012_e1_15","Block2",132,1,6,1197,"Include"
"KL2012_e1","KL2012_e1_15","Block2",133,0,2,1895,"Include"
"KL2012_e1","KL2012_e1_15","Block2",134,1,5,1657,"Include"
"KL2012_e1","KL2012_e1_15","Block2",135,0,6,1867,"Include"
"KL2012_e1","KL2012_e1_15","Block2",136,1,6,703,"Include"
"KL2012_e1","KL2012_e1_15","Block2",137,1,6,566,"Include"
"KL2012_e1","KL2012_e1_15","Block2",138,0,4,1518,"Include"
"KL2012_e1","KL2012_e1_15","Block2",139,1,6,1301,"Include"
"KL2012_e1","KL2012_e1_15","Block2",140,1,6,957,"Include"
"KL2012_e1","KL2012_e1_15","Block2",141,0,4,1622,"Include"
"KL2012_e1","KL2012_e1_15","Block2",142,1,6,1027,"Include"
"KL2012_e1","KL2012_e1_15","Block2",143,1,6,827,"Include"
"KL2012_e1","KL2012_e1_15","Block2",144,0,6,2045,"Include"
"KL2012_e1","KL2012_e1_15","Block2",145,0,3,1750,"Include"
"KL2012_e1","KL2012_e1_15","Block2",146,1,6,1385,"Include"
"KL2012_e1","KL2012_e1_15","Block2",147,1,6,1004,"Include"
"KL2012_e1","KL2012_e1_15","Block2",148,1,6,799,"Include"
"KL2012_e1","KL2012_e1_15","Block2",149,0,4,1738,"Include"
"KL2012_e1","KL2012_e1_15","Block2",150,0,1,1514,"Include"
"KL2012_e1","KL2012_e1_15","Block2",151,1,6,1058,"Include"
"KL2012_e1","KL2012_e1_15","Block2",152,1,6,785,"Include"
"KL2012_e1","KL2012_e1_15","Block2",153,0,5,1473,"Include"
"KL2012_e1","KL2012_e1_15","Block2",154,1,6,1098,"Include"
"KL2012_e1","KL2012_e1_15","Block2",155,1,4,1652,"Include"
"KL2012_e1","KL2012_e1_15","Block2",156,1,6,945,"Include"
"KL2012_e1","KL2012_e1_15","Block2",157,1,6,632,"Include"
"KL2012_e1","KL2012_e1_15","Block2",158,0,6,1013,"Include"
"KL2012_e1","KL2012_e1_15","Block2",159,0,5,1892,"Include"
"KL2012_e1","KL2012_e1_15","Block2",160,1,6,1778,"Include"
"KL2012_e1","KL2012_e1_15","Block2",161,0,2,1662,"Include"
"KL2012_e1","KL2012_e1_15","Block2",162,1,6,1195,"Include"
"KL2012_e1","KL2012_e1_15","Block2",163,1,6,864,"Include"
"KL2012_e1","KL2012_e1_15","Block2",164,1,6,554,"Include"
"KL2012_e1","KL2012_e1_15","Block2",165,0,4,1343,"Include"
"KL2012_e1","KL2012_e1_15","Block2",166,1,6,1219,"Include"
"KL2012_e1","KL2012_e1_15","Block2",167,0,2,1680,"Include"
"KL2012_e1","KL2012_e1_15","Block2",168,0,5,2786,"Include"
"KL2012_e1","KL2012_e1_15","Block2",169,1,6,939,"Include"
"KL2012_e1","KL2012_e1_15","Block2",170,1,6,570,"Include"
"KL2012_e1","KL2012_e1_15","Block2",171,1,6,901,"Include"
"KL2012_e1","KL2012_e1_15","Block2",172,1,6,529,"Include"
"KL2012_e1","KL2012_e1_15","Block2",173,1,5,1777,"Include"
"KL2012_e1","KL2012_e1_15","Block2",174,1,6,959,"Include"
"KL2012_e1","KL2012_e1_15","Block2",175,1,6,960,"Include"
"KL2012_e1","KL2012_e1_15","Block2",176,0,5,1792,"Include"
"KL2012_e1","KL2012_e1_15","Block2",177,1,6,758,"Include"
"KL2012_e1","KL2012_e1_15","Block2",178,0,4,1640,"Include"
"KL2012_e1","KL2012_e1_15","Block2",179,1,6,1260,"Include"
"KL2012_e1","KL2012_e1_15","Block2",180,0,3,1736,"Include"
"KL2012_e1","KL2012_e1_15","Block2",181,0,2,1572,"Include"
"KL2012_e1","KL2012_e1_15","Block2",182,0,1,1379,"Include"
"KL2012_e1","KL2012_e1_15","Block2",183,0,6,3068,"Include"
"KL2012_e1","KL2012_e1_15","Block2",184,0,3,2188,"Include"
"KL2012_e1","KL2012_e1_15","Block2",185,1,6,1824,"Include"
"KL2012_e1","KL2012_e1_15","Block2",186,0,3,3467,"Include"
"KL2012_e1","KL2012_e1_15","Block2",187,1,6,1058,"Include"
"KL2012_e1","KL2012_e1_15","Block2",188,0,2,2037,"Include"
"KL2012_e1","KL2012_e1_15","Block2",189,0,2,980,"Include"
"KL2012_e1","KL2012_e1_15","Block2",190,0,2,2479,"Include"
"KL2012_e1","KL2012_e1_15","Block2",191,1,2,1109,"Include"
"KL2012_e1","KL2012_e1_15","Block2",192,1,6,1856,"Include"
"KL2012_e1","KL2012_e1_16","Block1",1,0,5,14418,"Include"
"KL2012_e1","KL2012_e1_16","Block1",2,1,1,7679,"Include"
"KL2012_e1","KL2012_e1_16","Block1",3,0,2,5664,"Include"
"KL2012_e1","KL2012_e1_16","Block1",4,1,6,1985,"Include"
"KL2012_e1","KL2012_e1_16","Block1",5,1,5,2731,"Include"
"KL2012_e1","KL2012_e1_16","Block1",6,1,6,1617,"Include"
"KL2012_e1","KL2012_e1_16","Block1",7,0,5,3753,"Include"
"KL2012_e1","KL2012_e1_16","Block1",8,1,6,1335,"Include"
"KL2012_e1","KL2012_e1_16","Block1",9,1,6,1114,"Include"
"KL2012_e1","KL2012_e1_16","Block1",10,1,6,661,"Include"
"KL2012_e1","KL2012_e1_16","Block1",11,1,6,826,"Include"
"KL2012_e1","KL2012_e1_16","Block1",12,0,3,5640,"Include"
"KL2012_e1","KL2012_e1_16","Block1",13,1,6,1186,"Include"
"KL2012_e1","KL2012_e1_16","Block1",14,1,6,616,"Include"
"KL2012_e1","KL2012_e1_16","Block1",15,1,6,573,"Include"
"KL2012_e1","KL2012_e1_16","Block1",16,0,5,4246,"Include"
"KL2012_e1","KL2012_e1_16","Block1",17,0,2,3890,"Include"
"KL2012_e1","KL2012_e1_16","Block1",18,0,1,1530,"Include"
"KL2012_e1","KL2012_e1_16","Block1",19,1,6,1523,"Include"
"KL2012_e1","KL2012_e1_16","Block1",20,1,6,1081,"Include"
"KL2012_e1","KL2012_e1_16","Block1",21,1,6,836,"Include"
"KL2012_e1","KL2012_e1_16","Block1",22,0,3,6439,"Include"
"KL2012_e1","KL2012_e1_16","Block1",23,1,6,1141,"Include"
"KL2012_e1","KL2012_e1_16","Block1",24,1,6,541,"Include"
"KL2012_e1","KL2012_e1_16","Block1",25,1,5,2220,"Include"
"KL2012_e1","KL2012_e1_16","Block1",26,1,6,515,"Include"
"KL2012_e1","KL2012_e1_16","Block1",27,1,6,617,"Include"
"KL2012_e1","KL2012_e1_16","Block1",28,0,4,3944,"Include"
"KL2012_e1","KL2012_e1_16","Block1",29,0,1,1326,"Include"
"KL2012_e1","KL2012_e1_16","Block1",30,1,6,1154,"Include"
"KL2012_e1","KL2012_e1_16","Block1",31,1,5,5394,"Include"
"KL2012_e1","KL2012_e1_16","Block1",32,0,1,1966,"Include"
"KL2012_e1","KL2012_e1_16","Block1",33,0,2,2672,"Include"
"KL2012_e1","KL2012_e1_16","Block1",34,0,1,2223,"Include"
"KL2012_e1","KL2012_e1_16","Block1",35,0,1,1469,"Include"
"KL2012_e1","KL2012_e1_16","Block1",36,1,6,1293,"Include"
"KL2012_e1","KL2012_e1_16","Block1",37,0,3,4739,"Include"
"KL2012_e1","KL2012_e1_16","Block1",38,0,3,1169,"Include"
"KL2012_e1","KL2012_e1_16","Block1",39,0,1,1372,"Include"
"KL2012_e1","KL2012_e1_16","Block1",40,1,6,1451,"Include"
"KL2012_e1","KL2012_e1_16","Block1",41,1,6,631,"Include"
"KL2012_e1","KL2012_e1_16","Block1",42,0,1,1242,"Include"
"KL2012_e1","KL2012_e1_16","Block1",43,1,6,986,"Include"
"KL2012_e1","KL2012_e1_16","Block1",44,0,2,2574,"Include"
"KL2012_e1","KL2012_e1_16","Block1",45,1,6,926,"Include"
"KL2012_e1","KL2012_e1_16","Block1",46,0,1,1456,"Include"
"KL2012_e1","KL2012_e1_16","Block1",47,0,1,1293,"Include"
"KL2012_e1","KL2012_e1_16","Block1",48,1,6,1221,"Include"
"KL2012_e1","KL2012_e1_16","Block1",49,1,6,796,"Include"
"KL2012_e1","KL2012_e1_16","Block1",50,1,1,1318,"Include"
"KL2012_e1","KL2012_e1_16","Block1",51,1,2,3301,"Include"
"KL2012_e1","KL2012_e1_16","Block1",52,0,2,1508,"Include"
"KL2012_e1","KL2012_e1_16","Block1",53,1,6,1212,"Include"
"KL2012_e1","KL2012_e1_16","Block1",54,0,2,1477,"Include"
"KL2012_e1","KL2012_e1_16","Block1",55,0,1,1321,"Include"
"KL2012_e1","KL2012_e1_16","Block1",56,0,1,1045,"Include"
"KL2012_e1","KL2012_e1_16","Block1",57,0,1,1612,"Include"
"KL2012_e1","KL2012_e1_16","Block1",58,0,3,3067,"Include"
"KL2012_e1","KL2012_e1_16","Block1",59,1,6,1673,"Include"
"KL2012_e1","KL2012_e1_16","Block1",60,0,2,1333,"Include"
"KL2012_e1","KL2012_e1_16","Block1",61,1,2,1129,"Include"
"KL2012_e1","KL2012_e1_16","Block1",62,0,2,3664,"Include"
"KL2012_e1","KL2012_e1_16","Block1",63,0,5,1692,"Include"
"KL2012_e1","KL2012_e1_16","Block1",64,0,1,1365,"Include"
"KL2012_e1","KL2012_e1_16","Block1",65,1,6,1172,"Include"
"KL2012_e1","KL2012_e1_16","Block1",66,1,6,1087,"Include"
"KL2012_e1","KL2012_e1_16","Block1",67,1,6,1134,"Include"
"KL2012_e1","KL2012_e1_16","Block1",68,0,1,1791,"Include"
"KL2012_e1","KL2012_e1_16","Block1",69,1,6,1246,"Include"
"KL2012_e1","KL2012_e1_16","Block1",70,1,6,1090,"Include"
"KL2012_e1","KL2012_e1_16","Block1",71,1,6,2295,"Include"
"KL2012_e1","KL2012_e1_16","Block1",72,1,6,1182,"Include"
"KL2012_e1","KL2012_e1_16","Block1",73,1,6,901,"Include"
"KL2012_e1","KL2012_e1_16","Block1",74,0,4,3570,"Include"
"KL2012_e1","KL2012_e1_16","Block1",75,0,2,1755,"Include"
"KL2012_e1","KL2012_e1_16","Block1",76,1,6,1240,"Include"
"KL2012_e1","KL2012_e1_16","Block1",77,1,6,729,"Include"
"KL2012_e1","KL2012_e1_16","Block1",78,0,1,2438,"Include"
"KL2012_e1","KL2012_e1_16","Block1",79,0,1,2388,"Include"
"KL2012_e1","KL2012_e1_16","Block1",80,0,1,690,"Include"
"KL2012_e1","KL2012_e1_16","Block1",81,0,1,756,"Include"
"KL2012_e1","KL2012_e1_16","Block1",82,0,1,1556,"Include"
"KL2012_e1","KL2012_e1_16","Block1",83,1,5,3629,"Include"
"KL2012_e1","KL2012_e1_16","Block1",84,0,2,1500,"Include"
"KL2012_e1","KL2012_e1_16","Block1",85,1,4,2076,"Include"
"KL2012_e1","KL2012_e1_16","Block1",86,0,4,4377,"Include"
"KL2012_e1","KL2012_e1_16","Block1",87,0,2,1608,"Include"
"KL2012_e1","KL2012_e1_16","Block1",88,1,2,1961,"Include"
"KL2012_e1","KL2012_e1_16","Block1",89,0,2,3644,"Include"
"KL2012_e1","KL2012_e1_16","Block1",90,1,6,1134,"Include"
"KL2012_e1","KL2012_e1_16","Block1",91,0,5,1867,"Include"
"KL2012_e1","KL2012_e1_16","Block1",92,0,6,1075,"Include"
"KL2012_e1","KL2012_e1_16","Block1",93,1,4,3719,"Include"
"KL2012_e1","KL2012_e1_16","Block1",94,0,2,1852,"Include"
"KL2012_e1","KL2012_e1_16","Block1",95,0,2,1043,"Include"
"KL2012_e1","KL2012_e1_16","Block1",96,0,1,1221,"Include"
"KL2012_e1","KL2012_e1_16","Block2",97,1,6,3685,"Include"
"KL2012_e1","KL2012_e1_16","Block2",98,0,1,1422,"Include"
"KL2012_e1","KL2012_e1_16","Block2",99,1,6,4006,"Include"
"KL2012_e1","KL2012_e1_16","Block2",100,1,6,888,"Include"
"KL2012_e1","KL2012_e1_16","Block2",101,0,1,1220,"Include"
"KL2012_e1","KL2012_e1_16","Block2",102,0,1,1376,"Include"
"KL2012_e1","KL2012_e1_16","Block2",103,0,1,818,"Include"
"KL2012_e1","KL2012_e1_16","Block2",104,0,1,779,"Include"
"KL2012_e1","KL2012_e1_16","Block2",105,1,6,1247,"Include"
"KL2012_e1","KL2012_e1_16","Block2",106,1,6,557,"Include"
"KL2012_e1","KL2012_e1_16","Block2",107,0,1,5715,"Include"
"KL2012_e1","KL2012_e1_16","Block2",108,1,6,1489,"Include"
"KL2012_e1","KL2012_e1_16","Block2",109,1,6,639,"Include"
"KL2012_e1","KL2012_e1_16","Block2",110,1,6,699,"Include"
"KL2012_e1","KL2012_e1_16","Block2",111,0,2,1686,"Include"
"KL2012_e1","KL2012_e1_16","Block2",112,0,1,2389,"Include"
"KL2012_e1","KL2012_e1_16","Block2",113,1,6,1474,"Include"
"KL2012_e1","KL2012_e1_16","Block2",114,0,6,8090,"Include"
"KL2012_e1","KL2012_e1_16","Block2",115,1,6,979,"Include"
"KL2012_e1","KL2012_e1_16","Block2",116,1,6,589,"Include"
"KL2012_e1","KL2012_e1_16","Block2",117,0,1,1327,"Include"
"KL2012_e1","KL2012_e1_16","Block2",118,0,5,3348,"Include"
"KL2012_e1","KL2012_e1_16","Block2",119,1,1,8950,"Include"
"KL2012_e1","KL2012_e1_16","Block2",120,1,6,1459,"Include"
"KL2012_e1","KL2012_e1_16","Block2",121,1,6,678,"Include"
"KL2012_e1","KL2012_e1_16","Block2",122,0,4,2915,"Include"
"KL2012_e1","KL2012_e1_16","Block2",123,0,1,1866,"Include"
"KL2012_e1","KL2012_e1_16","Block2",124,1,6,1322,"Include"
"KL2012_e1","KL2012_e1_16","Block2",125,1,6,648,"Include"
"KL2012_e1","KL2012_e1_16","Block2",126,0,1,1992,"Include"
"KL2012_e1","KL2012_e1_16","Block2",127,1,6,1369,"Include"
"KL2012_e1","KL2012_e1_16","Block2",128,1,6,825,"Include"
"KL2012_e1","KL2012_e1_16","Block2",129,0,3,3814,"Include"
"KL2012_e1","KL2012_e1_16","Block2",130,1,6,1066,"Include"
"KL2012_e1","KL2012_e1_16","Block2",131,0,2,1333,"Include"
"KL2012_e1","KL2012_e1_16","Block2",132,1,6,1017,"Include"
"KL2012_e1","KL2012_e1_16","Block2",133,0,1,1786,"Include"
"KL2012_e1","KL2012_e1_16","Block2",134,1,2,1142,"Include"
"KL2012_e1","KL2012_e1_16","Block2",135,0,2,1220,"Include"
"KL2012_e1","KL2012_e1_16","Block2",136,0,6,1809,"Include"
"KL2012_e1","KL2012_e1_16","Block2",137,0,5,3897,"Include"
"KL2012_e1","KL2012_e1_16","Block2",138,1,5,2396,"Include"
"KL2012_e1","KL2012_e1_16","Block2",139,1,6,2029,"Include"
"KL2012_e1","KL2012_e1_16","Block2",140,0,3,1432,"Include"
"KL2012_e1","KL2012_e1_16","Block2",141,1,4,2102,"Include"
"KL2012_e1","KL2012_e1_16","Block2",142,0,2,1314,"Include"
"KL2012_e1","KL2012_e1_16","Block2",143,1,6,1106,"Include"
"KL2012_e1","KL2012_e1_16","Block2",144,0,5,1724,"Include"
"KL2012_e1","KL2012_e1_16","Block2",145,1,5,2245,"Include"
"KL2012_e1","KL2012_e1_16","Block2",146,0,3,5072,"Include"
"KL2012_e1","KL2012_e1_16","Block2",147,0,3,1391,"Include"
"KL2012_e1","KL2012_e1_16","Block2",148,0,3,1191,"Include"
"KL2012_e1","KL2012_e1_16","Block2",149,1,6,1387,"Include"
"KL2012_e1","KL2012_e1_16","Block2",150,1,6,599,"Include"
"KL2012_e1","KL2012_e1_16","Block2",151,0,3,1550,"Include"
"KL2012_e1","KL2012_e1_16","Block2",152,0,4,2527,"Include"
"KL2012_e1","KL2012_e1_16","Block2",153,1,6,1528,"Include"
"KL2012_e1","KL2012_e1_16","Block2",154,1,3,2007,"Include"
"KL2012_e1","KL2012_e1_16","Block2",155,1,6,1560,"Include"
"KL2012_e1","KL2012_e1_16","Block2",156,0,1,2957,"Include"
"KL2012_e1","KL2012_e1_16","Block2",157,1,5,2184,"Include"
"KL2012_e1","KL2012_e1_16","Block2",158,0,4,2012,"Include"
"KL2012_e1","KL2012_e1_16","Block2",159,1,6,2386,"Include"
"KL2012_e1","KL2012_e1_16","Block2",160,1,6,908,"Include"
"KL2012_e1","KL2012_e1_16","Block2",161,0,3,2809,"Include"
"KL2012_e1","KL2012_e1_16","Block2",162,0,3,1374,"Include"
"KL2012_e1","KL2012_e1_16","Block2",163,0,1,1975,"Include"
"KL2012_e1","KL2012_e1_16","Block2",164,0,1,3261,"Include"
"KL2012_e1","KL2012_e1_16","Block2",165,0,1,882,"Include"
"KL2012_e1","KL2012_e1_16","Block2",166,1,6,1365,"Include"
"KL2012_e1","KL2012_e1_16","Block2",167,0,3,2478,"Include"
"KL2012_e1","KL2012_e1_16","Block2",168,1,3,1083,"Include"
"KL2012_e1","KL2012_e1_16","Block2",169,1,6,967,"Include"
"KL2012_e1","KL2012_e1_16","Block2",170,0,6,1475,"Include"
"KL2012_e1","KL2012_e1_16","Block2",171,1,5,1453,"Include"
"KL2012_e1","KL2012_e1_16","Block2",172,0,3,1646,"Include"
"KL2012_e1","KL2012_e1_16","Block2",173,1,2,1493,"Include"
"KL2012_e1","KL2012_e1_16","Block2",174,0,1,1198,"Include"
"KL2012_e1","KL2012_e1_16","Block2",175,0,4,7420,"Include"
"KL2012_e1","KL2012_e1_16","Block2",176,0,3,1716,"Include"
"KL2012_e1","KL2012_e1_16","Block2",177,1,6,1997,"Include"
"KL2012_e1","KL2012_e1_16","Block2",178,0,2,1290,"Include"
"KL2012_e1","KL2012_e1_16","Block2",179,1,6,1410,"Include"
"KL2012_e1","KL2012_e1_16","Block2",180,1,6,1639,"Include"
"KL2012_e1","KL2012_e1_16","Block2",181,0,2,3353,"Include"
"KL2012_e1","KL2012_e1_16","Block2",182,1,6,1249,"Include"
"KL2012_e1","KL2012_e1_16","Block2",183,1,6,1517,"Include"
"KL2012_e1","KL2012_e1_16","Block2",184,0,2,1750,"Include"
"KL2012_e1","KL2012_e1_16","Block2",185,1,6,932,"Include"
"KL2012_e1","KL2012_e1_16","Block2",186,1,6,689,"Include"
"KL2012_e1","KL2012_e1_16","Block2",187,0,2,2367,"Include"
"KL2012_e1","KL2012_e1_16","Block2",188,0,2,1467,"Include"
"KL2012_e1","KL2012_e1_16","Block2",189,1,6,1080,"Include"
"KL2012_e1","KL2012_e1_16","Block2",190,0,1,2091,"Include"
"KL2012_e1","KL2012_e1_16","Block2",191,0,2,3316,"Include"
"KL2012_e1","KL2012_e1_16","Block2",192,1,6,1016,"Include"
"KL2012_e1","KL2012_e1_17","Block1",1,0,5,3970,"Include"
"KL2012_e1","KL2012_e1_17","Block1",2,0,6,1817,"Include"
"KL2012_e1","KL2012_e1_17","Block1",3,1,6,1131,"Include"
"KL2012_e1","KL2012_e1_17","Block1",4,1,3,2407,"Include"
"KL2012_e1","KL2012_e1_17","Block1",5,1,2,2500,"Include"
"KL2012_e1","KL2012_e1_17","Block1",6,0,2,1345,"Include"
"KL2012_e1","KL2012_e1_17","Block1",7,0,4,2229,"Include"
"KL2012_e1","KL2012_e1_17","Block1",8,1,5,2298,"Include"
"KL2012_e1","KL2012_e1_17","Block1",9,0,2,1769,"Include"
"KL2012_e1","KL2012_e1_17","Block1",10,1,1,1469,"Include"
"KL2012_e1","KL2012_e1_17","Block1",11,0,5,1524,"Include"
"KL2012_e1","KL2012_e1_17","Block1",12,1,6,1332,"Include"
"KL2012_e1","KL2012_e1_17","Block1",13,0,2,1388,"Include"
"KL2012_e1","KL2012_e1_17","Block1",14,0,2,2572,"Include"
"KL2012_e1","KL2012_e1_17","Block1",15,1,3,1430,"Include"
"KL2012_e1","KL2012_e1_17","Block1",16,0,4,1805,"Include"
"KL2012_e1","KL2012_e1_17","Block1",17,1,6,1151,"Include"
"KL2012_e1","KL2012_e1_17","Block1",18,0,2,1190,"Include"
"KL2012_e1","KL2012_e1_17","Block1",19,1,6,917,"Include"
"KL2012_e1","KL2012_e1_17","Block1",20,1,2,1343,"Include"
"KL2012_e1","KL2012_e1_17","Block1",21,1,6,1248,"Include"
"KL2012_e1","KL2012_e1_17","Block1",22,0,1,1905,"Include"
"KL2012_e1","KL2012_e1_17","Block1",23,0,3,1918,"Include"
"KL2012_e1","KL2012_e1_17","Block1",24,1,6,1368,"Include"
"KL2012_e1","KL2012_e1_17","Block1",25,0,1,1192,"Include"
"KL2012_e1","KL2012_e1_17","Block1",26,1,6,1519,"Include"
"KL2012_e1","KL2012_e1_17","Block1",27,0,2,1268,"Include"
"KL2012_e1","KL2012_e1_17","Block1",28,0,2,1218,"Include"
"KL2012_e1","KL2012_e1_17","Block1",29,1,6,948,"Include"
"KL2012_e1","KL2012_e1_17","Block1",30,1,2,1333,"Include"
"KL2012_e1","KL2012_e1_17","Block1",31,1,3,1668,"Include"
"KL2012_e1","KL2012_e1_17","Block1",32,0,3,1494,"Include"
"KL2012_e1","KL2012_e1_17","Block1",33,0,3,1227,"Include"
"KL2012_e1","KL2012_e1_17","Block1",34,0,4,1522,"Include"
"KL2012_e1","KL2012_e1_17","Block1",35,1,6,1000,"Include"
"KL2012_e1","KL2012_e1_17","Block1",36,0,2,1251,"Include"
"KL2012_e1","KL2012_e1_17","Block1",37,1,1,2443,"Include"
"KL2012_e1","KL2012_e1_17","Block1",38,0,4,1074,"Include"
"KL2012_e1","KL2012_e1_17","Block1",39,1,6,962,"Include"
"KL2012_e1","KL2012_e1_17","Block1",40,1,4,2558,"Include"
"KL2012_e1","KL2012_e1_17","Block1",41,1,4,1197,"Include"
"KL2012_e1","KL2012_e1_17","Block1",42,1,6,867,"Include"
"KL2012_e1","KL2012_e1_17","Block1",43,0,2,2040,"Include"
"KL2012_e1","KL2012_e1_17","Block1",44,1,6,1019,"Include"
"KL2012_e1","KL2012_e1_17","Block1",45,1,6,999,"Include"
"KL2012_e1","KL2012_e1_17","Block1",46,0,2,1153,"Include"
"KL2012_e1","KL2012_e1_17","Block1",47,1,5,1542,"Include"
"KL2012_e1","KL2012_e1_17","Block1",48,0,3,1600,"Include"
"KL2012_e1","KL2012_e1_17","Block1",49,0,1,1092,"Include"
"KL2012_e1","KL2012_e1_17","Block1",50,1,3,1357,"Include"
"KL2012_e1","KL2012_e1_17","Block1",51,1,3,2011,"Include"
"KL2012_e1","KL2012_e1_17","Block1",52,0,5,1364,"Include"
"KL2012_e1","KL2012_e1_17","Block1",53,1,6,970,"Include"
"KL2012_e1","KL2012_e1_17","Block1",54,0,3,1692,"Include"
"KL2012_e1","KL2012_e1_17","Block1",55,0,4,2206,"Include"
"KL2012_e1","KL2012_e1_17","Block1",56,0,2,1655,"Include"
"KL2012_e1","KL2012_e1_17","Block1",57,0,1,1086,"Include"
"KL2012_e1","KL2012_e1_17","Block1",58,0,3,1225,"Include"
"KL2012_e1","KL2012_e1_17","Block1",59,1,4,2031,"Include"
"KL2012_e1","KL2012_e1_17","Block1",60,1,6,1711,"Include"
"KL2012_e1","KL2012_e1_17","Block1",61,1,3,1619,"Include"
"KL2012_e1","KL2012_e1_17","Block1",62,0,4,1372,"Include"
"KL2012_e1","KL2012_e1_17","Block1",63,0,3,1547,"Include"
"KL2012_e1","KL2012_e1_17","Block1",64,0,5,1599,"Include"
"KL2012_e1","KL2012_e1_17","Block1",65,1,6,887,"Include"
"KL2012_e1","KL2012_e1_17","Block1",66,1,2,1239,"Include"
"KL2012_e1","KL2012_e1_17","Block1",67,0,5,1556,"Include"
"KL2012_e1","KL2012_e1_17","Block1",68,1,6,1137,"Include"
"KL2012_e1","KL2012_e1_17","Block1",69,1,6,1355,"Include"
"KL2012_e1","KL2012_e1_17","Block1",70,0,2,1011,"Include"
"KL2012_e1","KL2012_e1_17","Block1",71,0,1,1146,"Include"
"KL2012_e1","KL2012_e1_17","Block1",72,1,3,1097,"Include"
"KL2012_e1","KL2012_e1_17","Block1",73,1,6,1400,"Include"
"KL2012_e1","KL2012_e1_17","Block1",74,0,4,1548,"Include"
"KL2012_e1","KL2012_e1_17","Block1",75,1,2,969,"Include"
"KL2012_e1","KL2012_e1_17","Block1",76,0,1,1097,"Include"
"KL2012_e1","KL2012_e1_17","Block1",77,0,4,1129,"Include"
"KL2012_e1","KL2012_e1_17","Block1",78,0,3,1062,"Include"
"KL2012_e1","KL2012_e1_17","Block1",79,1,4,2032,"Include"
"KL2012_e1","KL2012_e1_17","Block1",80,0,2,1578,"Include"
"KL2012_e1","KL2012_e1_17","Block1",81,1,2,1240,"Include"
"KL2012_e1","KL2012_e1_17","Block1",82,0,2,1256,"Include"
"KL2012_e1","KL2012_e1_17","Block1",83,0,2,955,"Include"
"KL2012_e1","KL2012_e1_17","Block1",84,1,3,2763,"Include"
"KL2012_e1","KL2012_e1_17","Block1",85,0,2,1358,"Include"
"KL2012_e1","KL2012_e1_17","Block1",86,0,4,1996,"Include"
"KL2012_e1","KL2012_e1_17","Block1",87,0,2,1080,"Include"
"KL2012_e1","KL2012_e1_17","Block1",88,0,5,1474,"Include"
"KL2012_e1","KL2012_e1_17","Block1",89,1,4,1183,"Include"
"KL2012_e1","KL2012_e1_17","Block1",90,1,2,1162,"Include"
"KL2012_e1","KL2012_e1_17","Block1",91,1,6,3372,"Include"
"KL2012_e1","KL2012_e1_17","Block1",92,1,4,1394,"Include"
"KL2012_e1","KL2012_e1_17","Block1",93,1,6,892,"Include"
"KL2012_e1","KL2012_e1_17","Block1",94,1,6,897,"Include"
"KL2012_e1","KL2012_e1_17","Block1",95,0,2,1254,"Include"
"KL2012_e1","KL2012_e1_17","Block1",96,1,6,970,"Include"
"KL2012_e1","KL2012_e1_17","Block2",97,0,6,2812,"Include"
"KL2012_e1","KL2012_e1_17","Block2",98,0,1,967,"Include"
"KL2012_e1","KL2012_e1_17","Block2",99,1,6,1028,"Include"
"KL2012_e1","KL2012_e1_17","Block2",100,1,6,1181,"Include"
"KL2012_e1","KL2012_e1_17","Block2",101,1,6,887,"Include"
"KL2012_e1","KL2012_e1_17","Block2",102,0,1,1059,"Include"
"KL2012_e1","KL2012_e1_17","Block2",103,0,1,1194,"Include"
"KL2012_e1","KL2012_e1_17","Block2",104,0,1,996,"Include"
"KL2012_e1","KL2012_e1_17","Block2",105,1,6,1197,"Include"
"KL2012_e1","KL2012_e1_17","Block2",106,1,6,867,"Include"
"KL2012_e1","KL2012_e1_17","Block2",107,1,6,1000,"Include"
"KL2012_e1","KL2012_e1_17","Block2",108,0,1,2021,"Include"
"KL2012_e1","KL2012_e1_17","Block2",109,0,1,1034,"Include"
"KL2012_e1","KL2012_e1_17","Block2",110,1,6,1057,"Include"
"KL2012_e1","KL2012_e1_17","Block2",111,1,6,943,"Include"
"KL2012_e1","KL2012_e1_17","Block2",112,0,1,2420,"Include"
"KL2012_e1","KL2012_e1_17","Block2",113,1,6,808,"Include"
"KL2012_e1","KL2012_e1_17","Block2",114,0,1,1477,"Include"
"KL2012_e1","KL2012_e1_17","Block2",115,0,1,1245,"Include"
"KL2012_e1","KL2012_e1_17","Block2",116,0,1,1081,"Include"
"KL2012_e1","KL2012_e1_17","Block2",117,1,6,1029,"Include"
"KL2012_e1","KL2012_e1_17","Block2",118,0,1,1633,"Include"
"KL2012_e1","KL2012_e1_17","Block2",119,1,6,826,"Include"
"KL2012_e1","KL2012_e1_17","Block2",120,1,6,1684,"Include"
"KL2012_e1","KL2012_e1_17","Block2",121,1,6,781,"Include"
"KL2012_e1","KL2012_e1_17","Block2",122,0,4,1954,"Include"
"KL2012_e1","KL2012_e1_17","Block2",123,0,1,1670,"Include"
"KL2012_e1","KL2012_e1_17","Block2",124,0,1,1113,"Include"
"KL2012_e1","KL2012_e1_17","Block2",125,0,6,1301,"Include"
"KL2012_e1","KL2012_e1_17","Block2",126,0,1,1061,"Include"
"KL2012_e1","KL2012_e1_17","Block2",127,0,1,1430,"Include"
"KL2012_e1","KL2012_e1_17","Block2",128,1,6,864,"Include"
"KL2012_e1","KL2012_e1_17","Block2",129,0,6,998,"Include"
"KL2012_e1","KL2012_e1_17","Block2",130,0,2,1637,"Include"
"KL2012_e1","KL2012_e1_17","Block2",131,1,6,994,"Include"
"KL2012_e1","KL2012_e1_17","Block2",132,0,6,1060,"Include"
"KL2012_e1","KL2012_e1_17","Block2",133,1,1,1089,"Include"
"KL2012_e1","KL2012_e1_17","Block2",134,1,6,929,"Include"
"KL2012_e1","KL2012_e1_17","Block2",135,1,6,986,"Include"
"KL2012_e1","KL2012_e1_17","Block2",136,0,1,1529,"Include"
"KL2012_e1","KL2012_e1_17","Block2",137,0,1,1460,"Include"
"KL2012_e1","KL2012_e1_17","Block2",138,0,6,888,"Include"
"KL2012_e1","KL2012_e1_17","Block2",139,1,6,730,"Include"
"KL2012_e1","KL2012_e1_17","Block2",140,1,6,922,"Include"
"KL2012_e1","KL2012_e1_17","Block2",141,1,6,934,"Include"
"KL2012_e1","KL2012_e1_17","Block2",142,0,1,1155,"Include"
"KL2012_e1","KL2012_e1_17","Block2",143,0,1,2249,"Include"
"KL2012_e1","KL2012_e1_17","Block2",144,1,6,885,"Include"
"KL2012_e1","KL2012_e1_17","Block2",145,1,6,853,"Include"
"KL2012_e1","KL2012_e1_17","Block2",146,1,6,773,"Include"
"KL2012_e1","KL2012_e1_17","Block2",147,0,1,1024,"Include"
"KL2012_e1","KL2012_e1_17","Block2",148,1,6,1461,"Include"
"KL2012_e1","KL2012_e1_17","Block2",149,1,6,911,"Include"
"KL2012_e1","KL2012_e1_17","Block2",150,1,6,1223,"Include"
"KL2012_e1","KL2012_e1_17","Block2",151,0,1,1004,"Include"
"KL2012_e1","KL2012_e1_17","Block2",152,0,1,2230,"Include"
"KL2012_e1","KL2012_e1_17","Block2",153,1,6,1312,"Include"
"KL2012_e1","KL2012_e1_17","Block2",154,1,6,781,"Include"
"KL2012_e1","KL2012_e1_17","Block2",155,0,6,1109,"Include"
"KL2012_e1","KL2012_e1_17","Block2",156,1,1,2234,"Include"
"KL2012_e1","KL2012_e1_17","Block2",157,1,6,1228,"Include"
"KL2012_e1","KL2012_e1_17","Block2",158,1,6,775,"Include"
"KL2012_e1","KL2012_e1_17","Block2",159,0,1,1027,"Include"
"KL2012_e1","KL2012_e1_17","Block2",160,0,1,1071,"Include"
"KL2012_e1","KL2012_e1_17","Block2",161,0,1,896,"Include"
"KL2012_e1","KL2012_e1_17","Block2",162,1,6,873,"Include"
"KL2012_e1","KL2012_e1_17","Block2",163,0,6,936,"Include"
"KL2012_e1","KL2012_e1_17","Block2",164,0,1,1479,"Include"
"KL2012_e1","KL2012_e1_17","Block2",165,1,6,875,"Include"
"KL2012_e1","KL2012_e1_17","Block2",166,0,1,1110,"Include"
"KL2012_e1","KL2012_e1_17","Block2",167,0,1,1197,"Include"
"KL2012_e1","KL2012_e1_17","Block2",168,1,6,871,"Include"
"KL2012_e1","KL2012_e1_17","Block2",169,1,6,808,"Include"
"KL2012_e1","KL2012_e1_17","Block2",170,0,1,1477,"Include"
"KL2012_e1","KL2012_e1_17","Block2",171,1,6,873,"Include"
"KL2012_e1","KL2012_e1_17","Block2",172,1,6,1128,"Include"
"KL2012_e1","KL2012_e1_17","Block2",173,1,6,780,"Include"
"KL2012_e1","KL2012_e1_17","Block2",174,0,1,916,"Include"
"KL2012_e1","KL2012_e1_17","Block2",175,0,1,836,"Include"
"KL2012_e1","KL2012_e1_17","Block2",176,1,6,1039,"Include"
"KL2012_e1","KL2012_e1_17","Block2",177,0,1,2256,"Include"
"KL2012_e1","KL2012_e1_17","Block2",178,0,1,812,"Include"
"KL2012_e1","KL2012_e1_17","Block2",179,1,2,2728,"Include"
"KL2012_e1","KL2012_e1_17","Block2",180,0,5,1970,"Include"
"KL2012_e1","KL2012_e1_17","Block2",181,1,6,922,"Include"
"KL2012_e1","KL2012_e1_17","Block2",182,0,1,942,"Include"
"KL2012_e1","KL2012_e1_17","Block2",183,0,1,1553,"Include"
"KL2012_e1","KL2012_e1_17","Block2",184,0,1,750,"Include"
"KL2012_e1","KL2012_e1_17","Block2",185,1,6,950,"Include"
"KL2012_e1","KL2012_e1_17","Block2",186,1,6,801,"Include"
"KL2012_e1","KL2012_e1_17","Block2",187,1,6,758,"Include"
"KL2012_e1","KL2012_e1_17","Block2",188,0,1,1169,"Include"
"KL2012_e1","KL2012_e1_17","Block2",189,1,6,2955,"Include"
"KL2012_e1","KL2012_e1_17","Block2",190,1,6,875,"Include"
"KL2012_e1","KL2012_e1_17","Block2",191,0,1,1026,"Include"
"KL2012_e1","KL2012_e1_17","Block2",192,1,6,865,"Include"
"KL2012_e1","KL2012_e1_18","Block1",1,0,2,3472,"Include"
"KL2012_e1","KL2012_e1_18","Block1",2,1,3,3160,"Include"
"KL2012_e1","KL2012_e1_18","Block1",3,1,6,1993,"Include"
"KL2012_e1","KL2012_e1_18","Block1",4,1,6,1071,"Include"
"KL2012_e1","KL2012_e1_18","Block1",5,1,4,3285,"Include"
"KL2012_e1","KL2012_e1_18","Block1",6,1,6,1298,"Include"
"KL2012_e1","KL2012_e1_18","Block1",7,1,6,760,"Include"
"KL2012_e1","KL2012_e1_18","Block1",8,1,6,668,"Include"
"KL2012_e1","KL2012_e1_18","Block1",9,0,2,3060,"Include"
"KL2012_e1","KL2012_e1_18","Block1",10,1,6,724,"Include"
"KL2012_e1","KL2012_e1_18","Block1",11,1,6,675,"Include"
"KL2012_e1","KL2012_e1_18","Block1",12,0,4,3610,"Include"
"KL2012_e1","KL2012_e1_18","Block1",13,1,6,793,"Include"
"KL2012_e1","KL2012_e1_18","Block1",14,1,6,536,"Include"
"KL2012_e1","KL2012_e1_18","Block1",15,1,6,838,"Include"
"KL2012_e1","KL2012_e1_18","Block1",16,1,6,646,"Include"
"KL2012_e1","KL2012_e1_18","Block1",17,0,1,1177,"Include"
"KL2012_e1","KL2012_e1_18","Block1",18,1,1,942,"Include"
"KL2012_e1","KL2012_e1_18","Block1",19,0,2,1329,"Include"
"KL2012_e1","KL2012_e1_18","Block1",20,0,2,1007,"Include"
"KL2012_e1","KL2012_e1_18","Block1",21,1,6,1082,"Include"
"KL2012_e1","KL2012_e1_18","Block1",22,1,6,1097,"Include"
"KL2012_e1","KL2012_e1_18","Block1",23,1,6,1031,"Include"
"KL2012_e1","KL2012_e1_18","Block1",24,0,2,3982,"Include"
"KL2012_e1","KL2012_e1_18","Block1",25,0,2,842,"Include"
"KL2012_e1","KL2012_e1_18","Block1",26,0,3,4479,"Include"
"KL2012_e1","KL2012_e1_18","Block1",27,1,3,1446,"Include"
"KL2012_e1","KL2012_e1_18","Block1",28,0,2,2510,"Include"
"KL2012_e1","KL2012_e1_18","Block1",29,0,4,2930,"Include"
"KL2012_e1","KL2012_e1_18","Block1",30,1,6,1214,"Include"
"KL2012_e1","KL2012_e1_18","Block1",31,0,2,4833,"Include"
"KL2012_e1","KL2012_e1_18","Block1",32,0,1,971,"Include"
"KL2012_e1","KL2012_e1_18","Block1",33,1,6,1035,"Include"
"KL2012_e1","KL2012_e1_18","Block1",34,1,6,1387,"Include"
"KL2012_e1","KL2012_e1_18","Block1",35,0,2,4044,"Include"
"KL2012_e1","KL2012_e1_18","Block1",36,1,6,1078,"Include"
"KL2012_e1","KL2012_e1_18","Block1",37,1,3,1925,"Include"
"KL2012_e1","KL2012_e1_18","Block1",38,0,1,944,"Include"
"KL2012_e1","KL2012_e1_18","Block1",39,0,2,7000,"Include"
"KL2012_e1","KL2012_e1_18","Block1",40,0,4,1977,"Include"
"KL2012_e1","KL2012_e1_18","Block1",41,0,4,2249,"Include"
"KL2012_e1","KL2012_e1_18","Block1",42,1,6,1214,"Include"
"KL2012_e1","KL2012_e1_18","Block1",43,0,6,1486,"Include"
"KL2012_e1","KL2012_e1_18","Block1",44,1,2,1207,"Include"
"KL2012_e1","KL2012_e1_18","Block1",45,0,2,1432,"Include"
"KL2012_e1","KL2012_e1_18","Block1",46,0,3,2308,"Include"
"KL2012_e1","KL2012_e1_18","Block1",47,1,2,2100,"Include"
"KL2012_e1","KL2012_e1_18","Block1",48,1,6,1055,"Include"
"KL2012_e1","KL2012_e1_18","Block1",49,1,6,635,"Include"
"KL2012_e1","KL2012_e1_18","Block1",50,0,2,2611,"Include"
"KL2012_e1","KL2012_e1_18","Block1",51,0,4,1847,"Include"
"KL2012_e1","KL2012_e1_18","Block1",52,0,3,1526,"Include"
"KL2012_e1","KL2012_e1_18","Block1",53,0,2,1910,"Include"
"KL2012_e1","KL2012_e1_18","Block1",54,0,1,1183,"Include"
"KL2012_e1","KL2012_e1_18","Block1",55,1,4,1573,"Include"
"KL2012_e1","KL2012_e1_18","Block1",56,0,3,2252,"Include"
"KL2012_e1","KL2012_e1_18","Block1",57,1,6,1126,"Include"
"KL2012_e1","KL2012_e1_18","Block1",58,1,6,903,"Include"
"KL2012_e1","KL2012_e1_18","Block1",59,0,1,1170,"Include"
"KL2012_e1","KL2012_e1_18","Block1",60,1,1,1205,"Include"
"KL2012_e1","KL2012_e1_18","Block1",61,0,1,3374,"Include"
"KL2012_e1","KL2012_e1_18","Block1",62,0,2,1058,"Include"
"KL2012_e1","KL2012_e1_18","Block1",63,1,1,1508,"Include"
"KL2012_e1","KL2012_e1_18","Block1",64,1,6,1418,"Include"
"KL2012_e1","KL2012_e1_18","Block1",65,1,6,625,"Include"
"KL2012_e1","KL2012_e1_18","Block1",66,0,1,1319,"Include"
"KL2012_e1","KL2012_e1_18","Block1",67,0,2,1117,"Include"
"KL2012_e1","KL2012_e1_18","Block1",68,0,6,2984,"Include"
"KL2012_e1","KL2012_e1_18","Block1",69,0,1,943,"Include"
"KL2012_e1","KL2012_e1_18","Block1",70,1,6,767,"Include"
"KL2012_e1","KL2012_e1_18","Block1",71,0,2,1277,"Include"
"KL2012_e1","KL2012_e1_18","Block1",72,0,1,2673,"Include"
"KL2012_e1","KL2012_e1_18","Block1",73,1,6,1649,"Include"
"KL2012_e1","KL2012_e1_18","Block1",74,1,6,1820,"Include"
"KL2012_e1","KL2012_e1_18","Block1",75,1,1,1112,"Include"
"KL2012_e1","KL2012_e1_18","Block1",76,0,3,2079,"Include"
"KL2012_e1","KL2012_e1_18","Block1",77,0,6,1739,"Include"
"KL2012_e1","KL2012_e1_18","Block1",78,1,6,813,"Include"
"KL2012_e1","KL2012_e1_18","Block1",79,1,6,1262,"Include"
"KL2012_e1","KL2012_e1_18","Block1",80,0,6,3314,"Include"
"KL2012_e1","KL2012_e1_18","Block1",81,0,2,1400,"Include"
"KL2012_e1","KL2012_e1_18","Block1",82,1,5,2274,"Include"
"KL2012_e1","KL2012_e1_18","Block1",83,0,2,1237,"Include"
"KL2012_e1","KL2012_e1_18","Block1",84,0,1,1447,"Include"
"KL2012_e1","KL2012_e1_18","Block1",85,0,1,2855,"Include"
"KL2012_e1","KL2012_e1_18","Block1",86,0,6,1069,"Include"
"KL2012_e1","KL2012_e1_18","Block1",87,1,6,1904,"Include"
"KL2012_e1","KL2012_e1_18","Block1",88,1,2,1364,"Include"
"KL2012_e1","KL2012_e1_18","Block1",89,0,6,1161,"Include"
"KL2012_e1","KL2012_e1_18","Block1",90,0,2,1705,"Include"
"KL2012_e1","KL2012_e1_18","Block1",91,0,6,2411,"Include"
"KL2012_e1","KL2012_e1_18","Block1",92,0,4,3113,"Include"
"KL2012_e1","KL2012_e1_18","Block1",93,1,6,1445,"Include"
"KL2012_e1","KL2012_e1_18","Block1",94,1,6,1034,"Include"
"KL2012_e1","KL2012_e1_18","Block1",95,1,6,872,"Include"
"KL2012_e1","KL2012_e1_18","Block1",96,1,6,1493,"Include"
"KL2012_e1","KL2012_e1_18","Block2",97,0,2,5974,"Include"
"KL2012_e1","KL2012_e1_18","Block2",98,0,3,3084,"Include"
"KL2012_e1","KL2012_e1_18","Block2",99,1,6,741,"Include"
"KL2012_e1","KL2012_e1_18","Block2",100,0,2,1414,"Include"
"KL2012_e1","KL2012_e1_18","Block2",101,1,6,796,"Include"
"KL2012_e1","KL2012_e1_18","Block2",102,0,1,1141,"Include"
"KL2012_e1","KL2012_e1_18","Block2",103,0,1,835,"Include"
"KL2012_e1","KL2012_e1_18","Block2",104,1,6,2069,"Include"
"KL2012_e1","KL2012_e1_18","Block2",105,0,1,823,"Include"
"KL2012_e1","KL2012_e1_18","Block2",106,0,1,1168,"Include"
"KL2012_e1","KL2012_e1_18","Block2",107,0,1,1628,"Include"
"KL2012_e1","KL2012_e1_18","Block2",108,1,6,853,"Include"
"KL2012_e1","KL2012_e1_18","Block2",109,0,2,2380,"Include"
"KL2012_e1","KL2012_e1_18","Block2",110,1,6,802,"Include"
"KL2012_e1","KL2012_e1_18","Block2",111,0,1,1081,"Include"
"KL2012_e1","KL2012_e1_18","Block2",112,0,1,792,"Include"
"KL2012_e1","KL2012_e1_18","Block2",113,0,2,1809,"Include"
"KL2012_e1","KL2012_e1_18","Block2",114,1,6,770,"Include"
"KL2012_e1","KL2012_e1_18","Block2",115,1,1,2003,"Include"
"KL2012_e1","KL2012_e1_18","Block2",116,1,6,639,"Include"
"KL2012_e1","KL2012_e1_18","Block2",117,1,6,597,"Include"
"KL2012_e1","KL2012_e1_18","Block2",118,0,1,1833,"Include"
"KL2012_e1","KL2012_e1_18","Block2",119,0,1,1915,"Include"
"KL2012_e1","KL2012_e1_18","Block2",120,0,1,820,"Include"
"KL2012_e1","KL2012_e1_18","Block2",121,1,6,615,"Include"
"KL2012_e1","KL2012_e1_18","Block2",122,0,1,839,"Include"
"KL2012_e1","KL2012_e1_18","Block2",123,0,1,785,"Include"
"KL2012_e1","KL2012_e1_18","Block2",124,1,6,1456,"Include"
"KL2012_e1","KL2012_e1_18","Block2",125,0,1,1652,"Include"
"KL2012_e1","KL2012_e1_18","Block2",126,1,6,766,"Include"
"KL2012_e1","KL2012_e1_18","Block2",127,1,6,921,"Include"
"KL2012_e1","KL2012_e1_18","Block2",128,0,1,2002,"Include"
"KL2012_e1","KL2012_e1_18","Block2",129,1,6,1172,"Include"
"KL2012_e1","KL2012_e1_18","Block2",130,0,1,902,"Include"
"KL2012_e1","KL2012_e1_18","Block2",131,1,6,2358,"Include"
"KL2012_e1","KL2012_e1_18","Block2",132,1,6,573,"Include"
"KL2012_e1","KL2012_e1_18","Block2",133,0,2,1297,"Include"
"KL2012_e1","KL2012_e1_18","Block2",134,1,6,706,"Include"
"KL2012_e1","KL2012_e1_18","Block2",135,0,1,760,"Include"
"KL2012_e1","KL2012_e1_18","Block2",136,1,6,593,"Include"
"KL2012_e1","KL2012_e1_18","Block2",137,0,1,1869,"Include"
"KL2012_e1","KL2012_e1_18","Block2",138,0,1,888,"Include"
"KL2012_e1","KL2012_e1_18","Block2",139,1,6,917,"Include"
"KL2012_e1","KL2012_e1_18","Block2",140,0,1,1216,"Include"
"KL2012_e1","KL2012_e1_18","Block2",141,0,1,3010,"Include"
"KL2012_e1","KL2012_e1_18","Block2",142,0,4,2773,"Include"
"KL2012_e1","KL2012_e1_18","Block2",143,0,2,1978,"Include"
"KL2012_e1","KL2012_e1_18","Block2",144,0,1,2711,"Include"
"KL2012_e1","KL2012_e1_18","Block2",145,0,2,1418,"Include"
"KL2012_e1","KL2012_e1_18","Block2",146,1,6,1791,"Include"
"KL2012_e1","KL2012_e1_18","Block2",147,1,6,760,"Include"
"KL2012_e1","KL2012_e1_18","Block2",148,0,1,3456,"Include"
"KL2012_e1","KL2012_e1_18","Block2",149,1,6,570,"Include"
"KL2012_e1","KL2012_e1_18","Block2",150,0,1,795,"Include"
"KL2012_e1","KL2012_e1_18","Block2",151,1,4,2871,"Include"
"KL2012_e1","KL2012_e1_18","Block2",152,1,6,1133,"Include"
"KL2012_e1","KL2012_e1_18","Block2",153,1,6,1020,"Include"
"KL2012_e1","KL2012_e1_18","Block2",154,1,6,1434,"Include"
"KL2012_e1","KL2012_e1_18","Block2",155,1,6,1189,"Include"
"KL2012_e1","KL2012_e1_18","Block2",156,1,6,1021,"Include"
"KL2012_e1","KL2012_e1_18","Block2",157,0,1,1012,"Include"
"KL2012_e1","KL2012_e1_18","Block2",158,0,1,896,"Include"
"KL2012_e1","KL2012_e1_18","Block2",159,1,6,653,"Include"
"KL2012_e1","KL2012_e1_18","Block2",160,1,6,1788,"Include"
"KL2012_e1","KL2012_e1_18","Block2",161,1,6,927,"Include"
"KL2012_e1","KL2012_e1_18","Block2",162,1,6,1787,"Include"
"KL2012_e1","KL2012_e1_18","Block2",163,0,1,1766,"Include"
"KL2012_e1","KL2012_e1_18","Block2",164,0,2,1469,"Include"
"KL2012_e1","KL2012_e1_18","Block2",165,0,1,1235,"Include"
"KL2012_e1","KL2012_e1_18","Block2",166,0,1,1103,"Include"
"KL2012_e1","KL2012_e1_18","Block2",167,1,6,975,"Include"
"KL2012_e1","KL2012_e1_18","Block2",168,1,6,905,"Include"
"KL2012_e1","KL2012_e1_18","Block2",169,1,6,1028,"Include"
"KL2012_e1","KL2012_e1_18","Block2",170,1,6,644,"Include"
"KL2012_e1","KL2012_e1_18","Block2",171,1,6,715,"Include"
"KL2012_e1","KL2012_e1_18","Block2",172,1,6,992,"Include"
"KL2012_e1","KL2012_e1_18","Block2",173,1,6,656,"Include"
"KL2012_e1","KL2012_e1_18","Block2",174,0,1,1982,"Include"
"KL2012_e1","KL2012_e1_18","Block2",175,0,1,1097,"Include"
"KL2012_e1","KL2012_e1_18","Block2",176,0,4,4376,"Include"
"KL2012_e1","KL2012_e1_18","Block2",177,0,6,585,"Include"
"KL2012_e1","KL2012_e1_18","Block2",178,1,6,619,"Include"
"KL2012_e1","KL2012_e1_18","Block2",179,1,6,839,"Include"
"KL2012_e1","KL2012_e1_18","Block2",180,0,1,1759,"Include"
