"exp","id","isold","rating","RT","excluding","trial","condition1"
"KL2012_e2","KL2012_e2_43",1,6,3162,"Include",1,"Block1"
"KL2012_e2","KL2012_e2_43",1,6,1976,"Include",2,"Block1"
"KL2012_e2","KL2012_e2_43",0,2,2284,"Include",3,"Block1"
"KL2012_e2","KL2012_e2_43",1,6,1633,"Include",4,"Block1"
"KL2012_e2","KL2012_e2_43",1,2,3148,"Include",5,"Block1"
"KL2012_e2","KL2012_e2_43",0,2,2622,"Include",6,"Block1"
"KL2012_e2","KL2012_e2_43",1,1,1563,"Include",7,"Block1"
"KL2012_e2","KL2012_e2_43",1,6,1148,"Include",8,"Block1"
"KL2012_e2","KL2012_e2_43",0,5,2815,"Include",9,"Block1"
"KL2012_e2","KL2012_e2_43",1,6,1509,"Include",10,"Block1"
"KL2012_e2","KL2012_e2_43",0,2,2714,"Include",11,"Block1"
"KL2012_e2","KL2012_e2_43",0,1,1251,"Include",12,"Block1"
"KL2012_e2","KL2012_e2_43",0,2,1235,"Include",13,"Block1"
"KL2012_e2","KL2012_e2_43",0,2,1481,"Include",14,"Block1"
"KL2012_e2","KL2012_e2_43",0,2,3194,"Include",15,"Block1"
"KL2012_e2","KL2012_e2_43",1,4,2679,"Include",16,"Block1"
"KL2012_e2","KL2012_e2_43",0,2,1507,"Include",17,"Block1"
"KL2012_e2","KL2012_e2_43",0,2,1139,"Include",18,"Block1"
"KL2012_e2","KL2012_e2_43",1,6,1688,"Include",19,"Block1"
"KL2012_e2","KL2012_e2_43",1,6,1199,"Include",20,"Block1"
"KL2012_e2","KL2012_e2_43",1,2,1847,"Include",21,"Block1"
"KL2012_e2","KL2012_e2_43",0,5,1250,"Include",22,"Block1"
"KL2012_e2","KL2012_e2_43",1,6,1389,"Include",23,"Block1"
"KL2012_e2","KL2012_e2_43",1,6,909,"Include",24,"Block1"
"KL2012_e2","KL2012_e2_43",1,6,962,"Include",25,"Block1"
"KL2012_e2","KL2012_e2_43",1,6,920,"Include",26,"Block1"
"KL2012_e2","KL2012_e2_43",1,6,995,"Include",27,"Block1"
"KL2012_e2","KL2012_e2_43",0,4,1836,"Include",28,"Block1"
"KL2012_e2","KL2012_e2_43",0,3,1385,"Include",29,"Block1"
"KL2012_e2","KL2012_e2_43",1,6,1799,"Include",30,"Block1"
"KL2012_e2","KL2012_e2_43",0,2,1188,"Include",31,"Block1"
"KL2012_e2","KL2012_e2_43",0,1,1267,"Include",32,"Block1"
"KL2012_e2","KL2012_e2_43",0,3,2260,"Include",33,"Block1"
"KL2012_e2","KL2012_e2_43",1,6,1524,"Include",34,"Block1"
"KL2012_e2","KL2012_e2_43",0,4,1629,"Include",35,"Block1"
"KL2012_e2","KL2012_e2_43",0,2,1099,"Include",36,"Block1"
"KL2012_e2","KL2012_e2_43",1,6,1159,"Include",37,"Block1"
"KL2012_e2","KL2012_e2_43",0,1,990,"Include",38,"Block1"
"KL2012_e2","KL2012_e2_43",0,2,1562,"Include",39,"Block1"
"KL2012_e2","KL2012_e2_43",0,2,913,"Include",40,"Block1"
"KL2012_e2","KL2012_e2_43",1,6,1665,"Include",41,"Block1"
"KL2012_e2","KL2012_e2_43",0,4,1555,"Include",42,"Block1"
"KL2012_e2","KL2012_e2_43",1,5,1783,"Include",43,"Block1"
"KL2012_e2","KL2012_e2_43",1,6,1347,"Include",44,"Block1"
"KL2012_e2","KL2012_e2_43",1,3,2365,"Include",45,"Block1"
"KL2012_e2","KL2012_e2_43",0,2,1866,"Include",46,"Block1"
"KL2012_e2","KL2012_e2_43",0,2,962,"Include",47,"Block1"
"KL2012_e2","KL2012_e2_43",1,6,1105,"Include",48,"Block1"
"KL2012_e2","KL2012_e2_43",0,1,1113,"Include",49,"Block1"
"KL2012_e2","KL2012_e2_43",1,6,1015,"Include",50,"Block1"
"KL2012_e2","KL2012_e2_43",1,6,2354,"Include",51,"Block1"
"KL2012_e2","KL2012_e2_43",1,3,1637,"Include",52,"Block1"
"KL2012_e2","KL2012_e2_43",1,4,2386,"Include",53,"Block1"
"KL2012_e2","KL2012_e2_43",1,4,1266,"Include",54,"Block1"
"KL2012_e2","KL2012_e2_43",0,3,1375,"Include",55,"Block1"
"KL2012_e2","KL2012_e2_43",1,5,1422,"Include",56,"Block1"
"KL2012_e2","KL2012_e2_43",0,2,1228,"Include",57,"Block1"
"KL2012_e2","KL2012_e2_43",1,2,1870,"Include",58,"Block1"
"KL2012_e2","KL2012_e2_43",1,5,1176,"Include",59,"Block1"
"KL2012_e2","KL2012_e2_43",1,6,996,"Include",60,"Block1"
"KL2012_e2","KL2012_e2_43",1,4,2184,"Include",61,"Block1"
"KL2012_e2","KL2012_e2_43",0,4,1622,"Include",62,"Block1"
"KL2012_e2","KL2012_e2_43",0,2,2300,"Include",63,"Block1"
"KL2012_e2","KL2012_e2_43",0,2,2172,"Include",64,"Block1"
"KL2012_e2","KL2012_e2_43",0,2,1050,"Include",65,"Block1"
"KL2012_e2","KL2012_e2_43",1,5,991,"Include",66,"Block1"
"KL2012_e2","KL2012_e2_43",1,5,6466,"Include",67,"Block1"
"KL2012_e2","KL2012_e2_43",0,2,2530,"Include",68,"Block1"
"KL2012_e2","KL2012_e2_43",0,2,980,"Include",69,"Block1"
"KL2012_e2","KL2012_e2_43",1,2,1351,"Include",70,"Block1"
"KL2012_e2","KL2012_e2_43",1,2,2131,"Include",71,"Block1"
"KL2012_e2","KL2012_e2_43",0,2,2182,"Include",72,"Block1"
"KL2012_e2","KL2012_e2_43",0,2,955,"Include",73,"Block1"
"KL2012_e2","KL2012_e2_43",0,2,944,"Include",74,"Block1"
"KL2012_e2","KL2012_e2_43",0,1,1183,"Include",75,"Block1"
"KL2012_e2","KL2012_e2_43",1,5,1442,"Include",76,"Block1"
"KL2012_e2","KL2012_e2_43",1,6,1007,"Include",77,"Block1"
"KL2012_e2","KL2012_e2_43",1,3,2998,"Include",78,"Block1"
"KL2012_e2","KL2012_e2_43",1,2,1433,"Include",79,"Block1"
"KL2012_e2","KL2012_e2_43",0,2,1127,"Include",80,"Block1"
"KL2012_e2","KL2012_e2_43",0,2,2147,"Include",81,"Block1"
"KL2012_e2","KL2012_e2_43",1,6,1365,"Include",82,"Block1"
"KL2012_e2","KL2012_e2_43",1,5,9728,"Include",83,"Block1"
"KL2012_e2","KL2012_e2_43",0,3,1522,"Include",84,"Block1"
"KL2012_e2","KL2012_e2_43",1,6,1775,"Include",85,"Block1"
"KL2012_e2","KL2012_e2_43",0,2,1245,"Include",86,"Block1"
"KL2012_e2","KL2012_e2_43",0,1,1503,"Include",87,"Block1"
"KL2012_e2","KL2012_e2_43",0,2,1019,"Include",88,"Block1"
"KL2012_e2","KL2012_e2_43",0,2,881,"Include",89,"Block1"
"KL2012_e2","KL2012_e2_43",1,2,2002,"Include",90,"Block1"
"KL2012_e2","KL2012_e2_43",1,2,790,"Include",91,"Block1"
"KL2012_e2","KL2012_e2_43",1,5,4206,"Include",92,"Block1"
"KL2012_e2","KL2012_e2_43",0,1,1250,"Include",93,"Block1"
"KL2012_e2","KL2012_e2_43",0,2,680,"Include",94,"Block1"
"KL2012_e2","KL2012_e2_43",0,2,968,"Include",95,"Block1"
"KL2012_e2","KL2012_e2_43",0,2,912,"Include",96,"Block1"
"KL2012_e2","KL2012_e2_44",1,1,3231,"Include",1,"Block1"
"KL2012_e2","KL2012_e2_44",0,2,2664,"Include",2,"Block1"
"KL2012_e2","KL2012_e2_44",0,1,2428,"Include",3,"Block1"
"KL2012_e2","KL2012_e2_44",1,6,2899,"Include",4,"Block1"
"KL2012_e2","KL2012_e2_44",0,3,3603,"Include",5,"Block1"
"KL2012_e2","KL2012_e2_44",0,2,3220,"Include",6,"Block1"
"KL2012_e2","KL2012_e2_44",0,1,1703,"Include",7,"Block1"
"KL2012_e2","KL2012_e2_44",0,3,3017,"Include",8,"Block1"
"KL2012_e2","KL2012_e2_44",0,5,2792,"Include",9,"Block1"
"KL2012_e2","KL2012_e2_44",0,2,3237,"Include",10,"Block1"
"KL2012_e2","KL2012_e2_44",0,2,3036,"Include",11,"Block1"
"KL2012_e2","KL2012_e2_44",1,6,2188,"Include",12,"Block1"
"KL2012_e2","KL2012_e2_44",0,2,2326,"Include",13,"Block1"
"KL2012_e2","KL2012_e2_44",1,6,2607,"Include",14,"Block1"
"KL2012_e2","KL2012_e2_44",0,5,2927,"Include",15,"Block1"
"KL2012_e2","KL2012_e2_44",0,2,2126,"Include",16,"Block1"
"KL2012_e2","KL2012_e2_44",0,3,3431,"Include",17,"Block1"
"KL2012_e2","KL2012_e2_44",1,2,2113,"Include",18,"Block1"
"KL2012_e2","KL2012_e2_44",0,3,4575,"Include",19,"Block1"
"KL2012_e2","KL2012_e2_44",1,5,3208,"Include",20,"Block1"
"KL2012_e2","KL2012_e2_44",0,1,1619,"Include",21,"Block1"
"KL2012_e2","KL2012_e2_44",0,4,5011,"Include",22,"Block1"
"KL2012_e2","KL2012_e2_44",1,4,3673,"Include",23,"Block1"
"KL2012_e2","KL2012_e2_44",0,2,2292,"Include",24,"Block1"
"KL2012_e2","KL2012_e2_44",0,4,3624,"Include",25,"Block1"
"KL2012_e2","KL2012_e2_44",1,6,3030,"Include",26,"Block1"
"KL2012_e2","KL2012_e2_44",1,4,4215,"Include",27,"Block1"
"KL2012_e2","KL2012_e2_44",1,6,1807,"Include",28,"Block1"
"KL2012_e2","KL2012_e2_44",1,5,3074,"Include",29,"Block1"
"KL2012_e2","KL2012_e2_44",0,5,2364,"Include",30,"Block1"
"KL2012_e2","KL2012_e2_44",0,5,3351,"Include",31,"Block1"
"KL2012_e2","KL2012_e2_44",0,2,2532,"Include",32,"Block1"
"KL2012_e2","KL2012_e2_44",0,2,2283,"Include",33,"Block1"
"KL2012_e2","KL2012_e2_44",1,6,1885,"Include",34,"Block1"
"KL2012_e2","KL2012_e2_44",0,4,2768,"Include",35,"Block1"
"KL2012_e2","KL2012_e2_44",0,4,3417,"Include",36,"Block1"
"KL2012_e2","KL2012_e2_44",0,3,3193,"Include",37,"Block1"
"KL2012_e2","KL2012_e2_44",1,6,1667,"Include",38,"Block1"
"KL2012_e2","KL2012_e2_44",1,4,2936,"Include",39,"Block1"
"KL2012_e2","KL2012_e2_44",0,5,2769,"Include",40,"Block1"
"KL2012_e2","KL2012_e2_44",1,6,1277,"Include",41,"Block1"
"KL2012_e2","KL2012_e2_44",0,6,1659,"Include",42,"Block1"
"KL2012_e2","KL2012_e2_44",0,4,3300,"Include",43,"Block1"
"KL2012_e2","KL2012_e2_44",0,3,4617,"Include",44,"Block1"
"KL2012_e2","KL2012_e2_44",1,5,2700,"Include",45,"Block1"
"KL2012_e2","KL2012_e2_44",0,4,1902,"Include",46,"Block1"
"KL2012_e2","KL2012_e2_44",1,6,1455,"Include",47,"Block1"
"KL2012_e2","KL2012_e2_44",1,4,3606,"Include",48,"Block1"
"KL2012_e2","KL2012_e2_44",1,6,1220,"Include",49,"Block1"
"KL2012_e2","KL2012_e2_44",1,6,894,"Include",50,"Block1"
"KL2012_e2","KL2012_e2_44",1,4,3427,"Include",51,"Block1"
"KL2012_e2","KL2012_e2_44",1,6,1640,"Include",52,"Block1"
"KL2012_e2","KL2012_e2_44",1,6,3154,"Include",53,"Block1"
"KL2012_e2","KL2012_e2_44",0,4,3554,"Include",54,"Block1"
"KL2012_e2","KL2012_e2_44",1,5,1926,"Include",55,"Block1"
"KL2012_e2","KL2012_e2_44",0,4,3602,"Include",56,"Block1"
"KL2012_e2","KL2012_e2_44",0,2,2530,"Include",57,"Block1"
"KL2012_e2","KL2012_e2_44",0,3,3322,"Include",58,"Block1"
"KL2012_e2","KL2012_e2_44",1,6,2234,"Include",59,"Block1"
"KL2012_e2","KL2012_e2_44",1,4,3941,"Include",60,"Block1"
"KL2012_e2","KL2012_e2_44",0,3,4622,"Include",61,"Block1"
"KL2012_e2","KL2012_e2_44",1,6,1652,"Include",62,"Block1"
"KL2012_e2","KL2012_e2_44",1,2,4289,"Include",63,"Block1"
"KL2012_e2","KL2012_e2_44",0,3,5187,"Include",64,"Block1"
"KL2012_e2","KL2012_e2_44",0,4,3027,"Include",65,"Block1"
"KL2012_e2","KL2012_e2_44",0,3,2745,"Include",66,"Block1"
"KL2012_e2","KL2012_e2_44",1,5,2698,"Include",67,"Block1"
"KL2012_e2","KL2012_e2_44",0,4,3126,"Include",68,"Block1"
"KL2012_e2","KL2012_e2_44",1,6,1741,"Include",69,"Block1"
"KL2012_e2","KL2012_e2_44",0,2,2715,"Include",70,"Block1"
"KL2012_e2","KL2012_e2_44",0,4,3043,"Include",71,"Block1"
"KL2012_e2","KL2012_e2_44",1,6,2343,"Include",72,"Block1"
"KL2012_e2","KL2012_e2_44",1,6,2206,"Include",73,"Block1"
"KL2012_e2","KL2012_e2_44",1,4,2149,"Include",74,"Block1"
"KL2012_e2","KL2012_e2_44",0,2,3036,"Include",75,"Block1"
"KL2012_e2","KL2012_e2_44",1,5,2613,"Include",76,"Block1"
"KL2012_e2","KL2012_e2_44",1,5,1859,"Include",77,"Block1"
"KL2012_e2","KL2012_e2_44",1,3,2941,"Include",78,"Block1"
"KL2012_e2","KL2012_e2_44",1,6,1582,"Include",79,"Block1"
"KL2012_e2","KL2012_e2_44",0,6,1742,"Include",80,"Block1"
"KL2012_e2","KL2012_e2_44",1,4,2719,"Include",81,"Block1"
"KL2012_e2","KL2012_e2_44",1,2,2772,"Include",82,"Block1"
"KL2012_e2","KL2012_e2_44",1,6,1514,"Include",83,"Block1"
"KL2012_e2","KL2012_e2_44",1,6,1833,"Include",84,"Block1"
"KL2012_e2","KL2012_e2_44",1,6,2892,"Include",85,"Block1"
"KL2012_e2","KL2012_e2_44",1,6,2664,"Include",86,"Block1"
"KL2012_e2","KL2012_e2_44",0,4,4327,"Include",87,"Block1"
"KL2012_e2","KL2012_e2_44",0,2,2499,"Include",88,"Block1"
"KL2012_e2","KL2012_e2_44",1,5,1741,"Include",89,"Block1"
"KL2012_e2","KL2012_e2_44",0,2,4339,"Include",90,"Block1"
"KL2012_e2","KL2012_e2_44",1,5,2666,"Include",91,"Block1"
"KL2012_e2","KL2012_e2_44",0,5,2446,"Include",92,"Block1"
"KL2012_e2","KL2012_e2_44",1,6,1255,"Include",93,"Block1"
"KL2012_e2","KL2012_e2_44",1,3,5170,"Include",94,"Block1"
"KL2012_e2","KL2012_e2_44",1,5,3827,"Include",95,"Block1"
"KL2012_e2","KL2012_e2_44",0,4,1832,"Include",96,"Block1"
"KL2012_e2","KL2012_e2_45",1,6,2611,"Include",1,"Block1"
"KL2012_e2","KL2012_e2_45",0,2,5849,"Include",2,"Block1"
"KL2012_e2","KL2012_e2_45",0,1,3905,"Include",3,"Block1"
"KL2012_e2","KL2012_e2_45",0,1,1788,"Include",4,"Block1"
"KL2012_e2","KL2012_e2_45",0,3,2506,"Include",5,"Block1"
"KL2012_e2","KL2012_e2_45",0,3,2933,"Include",6,"Block1"
"KL2012_e2","KL2012_e2_45",0,3,1896,"Include",7,"Block1"
"KL2012_e2","KL2012_e2_45",1,4,1895,"Include",8,"Block1"
"KL2012_e2","KL2012_e2_45",0,5,3046,"Include",9,"Block1"
"KL2012_e2","KL2012_e2_45",1,6,1361,"Include",10,"Block1"
"KL2012_e2","KL2012_e2_45",1,5,6301,"Include",11,"Block1"
"KL2012_e2","KL2012_e2_45",1,6,1491,"Include",12,"Block1"
"KL2012_e2","KL2012_e2_45",1,6,777,"Include",13,"Block1"
"KL2012_e2","KL2012_e2_45",0,4,3092,"Include",14,"Block1"
"KL2012_e2","KL2012_e2_45",0,2,1589,"Include",15,"Block1"
"KL2012_e2","KL2012_e2_45",1,2,2312,"Include",16,"Block1"
"KL2012_e2","KL2012_e2_45",0,2,1561,"Include",17,"Block1"
"KL2012_e2","KL2012_e2_45",1,2,2970,"Include",18,"Block1"
"KL2012_e2","KL2012_e2_45",0,1,4016,"Include",19,"Block1"
"KL2012_e2","KL2012_e2_45",1,6,1756,"Include",20,"Block1"
"KL2012_e2","KL2012_e2_45",1,3,3859,"Include",21,"Block1"
"KL2012_e2","KL2012_e2_45",1,6,3051,"Include",22,"Block1"
"KL2012_e2","KL2012_e2_45",0,2,2703,"Include",23,"Block1"
"KL2012_e2","KL2012_e2_45",0,5,2437,"Include",24,"Block1"
"KL2012_e2","KL2012_e2_45",0,4,3503,"Include",25,"Block1"
"KL2012_e2","KL2012_e2_45",1,6,1689,"Include",26,"Block1"
"KL2012_e2","KL2012_e2_45",0,5,3287,"Include",27,"Block1"
"KL2012_e2","KL2012_e2_45",1,4,3013,"Include",28,"Block1"
"KL2012_e2","KL2012_e2_45",1,4,2258,"Include",29,"Block1"
"KL2012_e2","KL2012_e2_45",0,5,1452,"Include",30,"Block1"
"KL2012_e2","KL2012_e2_45",0,5,4292,"Include",31,"Block1"
"KL2012_e2","KL2012_e2_45",0,3,1513,"Include",32,"Block1"
"KL2012_e2","KL2012_e2_45",0,2,5361,"Include",33,"Block1"
"KL2012_e2","KL2012_e2_45",0,3,6690,"Include",34,"Block1"
"KL2012_e2","KL2012_e2_45",0,5,2721,"Include",35,"Block1"
"KL2012_e2","KL2012_e2_45",1,5,1395,"Include",36,"Block1"
"KL2012_e2","KL2012_e2_45",1,6,2590,"Include",37,"Block1"
"KL2012_e2","KL2012_e2_45",0,5,4686,"Include",38,"Block1"
"KL2012_e2","KL2012_e2_45",1,4,6017,"Include",39,"Block1"
"KL2012_e2","KL2012_e2_45",1,5,3161,"Include",40,"Block1"
"KL2012_e2","KL2012_e2_45",1,2,1600,"Include",41,"Block1"
"KL2012_e2","KL2012_e2_45",0,3,3778,"Include",42,"Block1"
"KL2012_e2","KL2012_e2_45",1,3,3972,"Include",43,"Block1"
"KL2012_e2","KL2012_e2_45",1,5,2348,"Include",44,"Block1"
"KL2012_e2","KL2012_e2_45",0,4,2916,"Include",45,"Block1"
"KL2012_e2","KL2012_e2_45",1,5,3154,"Include",46,"Block1"
"KL2012_e2","KL2012_e2_45",0,4,6052,"Include",47,"Block1"
"KL2012_e2","KL2012_e2_45",0,5,5919,"Include",48,"Block1"
"KL2012_e2","KL2012_e2_45",0,2,2944,"Include",49,"Block1"
"KL2012_e2","KL2012_e2_45",1,6,2198,"Include",50,"Block1"
"KL2012_e2","KL2012_e2_45",0,5,3474,"Include",51,"Block1"
"KL2012_e2","KL2012_e2_45",1,5,2244,"Include",52,"Block1"
"KL2012_e2","KL2012_e2_45",0,2,3616,"Include",53,"Block1"
"KL2012_e2","KL2012_e2_45",0,2,5080,"Include",54,"Block1"
"KL2012_e2","KL2012_e2_45",1,4,4176,"Include",55,"Block1"
"KL2012_e2","KL2012_e2_45",0,5,4377,"Include",56,"Block1"
"KL2012_e2","KL2012_e2_45",0,3,3503,"Include",57,"Block1"
"KL2012_e2","KL2012_e2_45",0,4,5710,"Include",58,"Block1"
"KL2012_e2","KL2012_e2_45",0,4,3733,"Include",59,"Block1"
"KL2012_e2","KL2012_e2_45",0,5,3962,"Include",60,"Block1"
"KL2012_e2","KL2012_e2_45",0,3,4023,"Include",61,"Block1"
"KL2012_e2","KL2012_e2_45",1,3,1858,"Include",62,"Block1"
"KL2012_e2","KL2012_e2_45",1,5,2804,"Include",63,"Block1"
"KL2012_e2","KL2012_e2_45",0,5,3687,"Include",64,"Block1"
"KL2012_e2","KL2012_e2_45",1,4,2600,"Include",65,"Block1"
"KL2012_e2","KL2012_e2_45",0,1,3713,"Include",66,"Block1"
"KL2012_e2","KL2012_e2_45",0,4,6156,"Include",67,"Block1"
"KL2012_e2","KL2012_e2_45",0,2,3005,"Include",68,"Block1"
"KL2012_e2","KL2012_e2_45",1,2,4310,"Include",69,"Block1"
"KL2012_e2","KL2012_e2_45",0,3,6800,"Include",70,"Block1"
"KL2012_e2","KL2012_e2_45",0,4,3714,"Include",71,"Block1"
"KL2012_e2","KL2012_e2_45",0,4,3097,"Include",72,"Block1"
"KL2012_e2","KL2012_e2_45",0,5,5349,"Include",73,"Block1"
"KL2012_e2","KL2012_e2_45",1,6,1275,"Include",74,"Block1"
"KL2012_e2","KL2012_e2_45",0,4,4155,"Include",75,"Block1"
"KL2012_e2","KL2012_e2_45",1,5,3117,"Include",76,"Block1"
"KL2012_e2","KL2012_e2_45",1,5,1362,"Include",77,"Block1"
"KL2012_e2","KL2012_e2_45",1,5,1352,"Include",78,"Block1"
"KL2012_e2","KL2012_e2_45",1,4,4393,"Include",79,"Block1"
"KL2012_e2","KL2012_e2_45",0,4,5999,"Include",80,"Block1"
"KL2012_e2","KL2012_e2_45",1,2,5200,"Include",81,"Block1"
"KL2012_e2","KL2012_e2_45",1,4,4026,"Include",82,"Block1"
"KL2012_e2","KL2012_e2_45",1,4,1755,"Include",83,"Block1"
"KL2012_e2","KL2012_e2_45",1,5,2845,"Include",84,"Block1"
"KL2012_e2","KL2012_e2_45",1,4,3086,"Include",85,"Block1"
"KL2012_e2","KL2012_e2_45",1,2,2960,"Include",86,"Block1"
"KL2012_e2","KL2012_e2_45",1,6,5588,"Include",87,"Block1"
"KL2012_e2","KL2012_e2_45",1,6,2789,"Include",88,"Block1"
"KL2012_e2","KL2012_e2_45",1,4,3847,"Include",89,"Block1"
"KL2012_e2","KL2012_e2_45",1,2,3236,"Include",90,"Block1"
"KL2012_e2","KL2012_e2_45",0,2,1577,"Include",91,"Block1"
"KL2012_e2","KL2012_e2_45",0,2,3295,"Include",92,"Block1"
"KL2012_e2","KL2012_e2_45",1,5,2028,"Include",93,"Block1"
"KL2012_e2","KL2012_e2_45",1,4,4206,"Include",94,"Block1"
"KL2012_e2","KL2012_e2_45",1,4,6741,"Include",95,"Block1"
"KL2012_e2","KL2012_e2_45",1,5,1493,"Include",96,"Block1"
"KL2012_e2","KL2012_e2_46",0,4,6522,"Include",1,"Block1"
"KL2012_e2","KL2012_e2_46",1,6,5560,"Include",2,"Block1"
"KL2012_e2","KL2012_e2_46",1,5,3300,"Include",3,"Block1"
"KL2012_e2","KL2012_e2_46",0,3,3371,"Include",4,"Block1"
"KL2012_e2","KL2012_e2_46",0,3,4065,"Include",5,"Block1"
"KL2012_e2","KL2012_e2_46",0,4,2581,"Include",6,"Block1"
"KL2012_e2","KL2012_e2_46",1,6,4083,"Include",7,"Block1"
"KL2012_e2","KL2012_e2_46",0,1,1819,"Include",8,"Block1"
"KL2012_e2","KL2012_e2_46",0,1,1674,"Include",9,"Block1"
"KL2012_e2","KL2012_e2_46",0,2,2967,"Include",10,"Block1"
"KL2012_e2","KL2012_e2_46",1,3,1757,"Include",11,"Block1"
"KL2012_e2","KL2012_e2_46",0,3,1873,"Include",12,"Block1"
"KL2012_e2","KL2012_e2_46",0,1,3788,"Include",13,"Block1"
"KL2012_e2","KL2012_e2_46",0,5,4285,"Include",14,"Block1"
"KL2012_e2","KL2012_e2_46",0,5,2447,"Include",15,"Block1"
"KL2012_e2","KL2012_e2_46",1,6,1459,"Include",16,"Block1"
"KL2012_e2","KL2012_e2_46",1,6,941,"Include",17,"Block1"
"KL2012_e2","KL2012_e2_46",1,5,1425,"Include",18,"Block1"
"KL2012_e2","KL2012_e2_46",1,6,1017,"Include",19,"Block1"
"KL2012_e2","KL2012_e2_46",1,5,2734,"Include",20,"Block1"
"KL2012_e2","KL2012_e2_46",0,4,1902,"Include",21,"Block1"
"KL2012_e2","KL2012_e2_46",1,5,4534,"Include",22,"Block1"
"KL2012_e2","KL2012_e2_46",1,6,983,"Include",23,"Block1"
"KL2012_e2","KL2012_e2_46",0,4,4854,"Include",24,"Block1"
"KL2012_e2","KL2012_e2_46",0,4,1754,"Include",25,"Block1"
"KL2012_e2","KL2012_e2_46",1,4,1427,"Include",26,"Block1"
"KL2012_e2","KL2012_e2_46",1,3,3338,"Include",27,"Block1"
"KL2012_e2","KL2012_e2_46",1,4,2800,"Include",28,"Block1"
"KL2012_e2","KL2012_e2_46",0,2,3390,"Include",29,"Block1"
"KL2012_e2","KL2012_e2_46",1,6,2447,"Include",30,"Block1"
"KL2012_e2","KL2012_e2_46",0,3,3201,"Include",31,"Block1"
"KL2012_e2","KL2012_e2_46",0,3,5041,"Include",32,"Block1"
"KL2012_e2","KL2012_e2_46",1,6,1357,"Include",33,"Block1"
"KL2012_e2","KL2012_e2_46",0,3,2624,"Include",34,"Block1"
"KL2012_e2","KL2012_e2_46",0,3,1074,"Include",35,"Block1"
"KL2012_e2","KL2012_e2_46",0,2,1613,"Include",36,"Block1"
"KL2012_e2","KL2012_e2_46",1,5,2689,"Include",37,"Block1"
"KL2012_e2","KL2012_e2_46",0,4,5335,"Include",38,"Block1"
"KL2012_e2","KL2012_e2_46",0,3,1762,"Include",39,"Block1"
"KL2012_e2","KL2012_e2_46",1,4,1647,"Include",40,"Block1"
"KL2012_e2","KL2012_e2_46",0,3,2324,"Include",41,"Block1"
"KL2012_e2","KL2012_e2_46",1,3,5248,"Include",42,"Block1"
"KL2012_e2","KL2012_e2_46",0,2,1514,"Include",43,"Block1"
"KL2012_e2","KL2012_e2_46",1,6,3920,"Include",44,"Block1"
"KL2012_e2","KL2012_e2_46",1,6,1357,"Include",45,"Block1"
"KL2012_e2","KL2012_e2_46",1,4,2232,"Include",46,"Block1"
"KL2012_e2","KL2012_e2_46",0,2,2374,"Include",47,"Block1"
"KL2012_e2","KL2012_e2_46",1,3,2382,"Include",48,"Block1"
"KL2012_e2","KL2012_e2_46",0,2,2836,"Include",49,"Block1"
"KL2012_e2","KL2012_e2_46",0,2,1915,"Include",50,"Block1"
"KL2012_e2","KL2012_e2_46",0,3,2153,"Include",51,"Block1"
"KL2012_e2","KL2012_e2_46",0,3,2935,"Include",52,"Block1"
"KL2012_e2","KL2012_e2_46",0,4,3115,"Include",53,"Block1"
"KL2012_e2","KL2012_e2_46",1,5,2066,"Include",54,"Block1"
"KL2012_e2","KL2012_e2_46",1,4,3639,"Include",55,"Block1"
"KL2012_e2","KL2012_e2_46",0,4,1383,"Include",56,"Block1"
"KL2012_e2","KL2012_e2_46",1,6,4040,"Include",57,"Block1"
"KL2012_e2","KL2012_e2_46",1,6,1029,"Include",58,"Block1"
"KL2012_e2","KL2012_e2_46",1,6,2426,"Include",59,"Block1"
"KL2012_e2","KL2012_e2_46",1,6,2560,"Include",60,"Block1"
"KL2012_e2","KL2012_e2_46",0,3,2549,"Include",61,"Block1"
"KL2012_e2","KL2012_e2_46",0,4,2097,"Include",62,"Block1"
"KL2012_e2","KL2012_e2_46",0,3,3285,"Include",63,"Block1"
"KL2012_e2","KL2012_e2_46",1,4,6405,"Include",64,"Block1"
"KL2012_e2","KL2012_e2_46",1,6,2983,"Include",65,"Block1"
"KL2012_e2","KL2012_e2_46",0,3,3178,"Include",66,"Block1"
"KL2012_e2","KL2012_e2_46",0,2,3024,"Include",67,"Block1"
"KL2012_e2","KL2012_e2_46",1,5,2984,"Include",68,"Block1"
"KL2012_e2","KL2012_e2_46",0,3,2287,"Include",69,"Block1"
"KL2012_e2","KL2012_e2_46",1,4,2416,"Include",70,"Block1"
"KL2012_e2","KL2012_e2_46",1,4,1326,"Include",71,"Block1"
"KL2012_e2","KL2012_e2_46",1,6,2805,"Include",72,"Block1"
"KL2012_e2","KL2012_e2_46",1,4,1890,"Include",73,"Block1"
"KL2012_e2","KL2012_e2_46",1,3,5858,"Include",74,"Block1"
"KL2012_e2","KL2012_e2_46",0,3,2073,"Include",75,"Block1"
"KL2012_e2","KL2012_e2_46",1,5,5098,"Include",76,"Block1"
"KL2012_e2","KL2012_e2_46",0,3,2445,"Include",77,"Block1"
"KL2012_e2","KL2012_e2_46",1,4,4316,"Include",78,"Block1"
"KL2012_e2","KL2012_e2_46",0,2,3025,"Include",79,"Block1"
"KL2012_e2","KL2012_e2_46",1,4,2421,"Include",80,"Block1"
"KL2012_e2","KL2012_e2_46",0,3,6234,"Include",81,"Block1"
"KL2012_e2","KL2012_e2_46",0,4,1705,"Include",82,"Block1"
"KL2012_e2","KL2012_e2_46",1,6,4516,"Include",83,"Block1"
"KL2012_e2","KL2012_e2_46",1,2,2724,"Include",84,"Block1"
"KL2012_e2","KL2012_e2_46",0,4,2094,"Include",85,"Block1"
"KL2012_e2","KL2012_e2_46",1,5,8083,"Include",86,"Block1"
"KL2012_e2","KL2012_e2_46",0,4,2542,"Include",87,"Block1"
"KL2012_e2","KL2012_e2_46",1,3,2757,"Include",88,"Block1"
"KL2012_e2","KL2012_e2_46",0,3,3489,"Include",89,"Block1"
"KL2012_e2","KL2012_e2_46",1,6,1897,"Include",90,"Block1"
"KL2012_e2","KL2012_e2_46",0,4,2682,"Include",91,"Block1"
"KL2012_e2","KL2012_e2_46",1,3,6170,"Include",92,"Block1"
"KL2012_e2","KL2012_e2_46",1,5,3747,"Include",93,"Block1"
"KL2012_e2","KL2012_e2_46",0,4,3798,"Include",94,"Block1"
"KL2012_e2","KL2012_e2_46",1,4,1703,"Include",95,"Block1"
"KL2012_e2","KL2012_e2_46",0,3,3808,"Include",96,"Block1"
"KL2012_e2","KL2012_e2_1",1,5,9822,"Include",1,"Block1"
"KL2012_e2","KL2012_e2_1",1,6,1115,"Include",2,"Block1"
"KL2012_e2","KL2012_e2_1",1,3,2991,"Include",3,"Block1"
"KL2012_e2","KL2012_e2_1",0,2,1798,"Include",4,"Block1"
"KL2012_e2","KL2012_e2_1",1,6,1978,"Include",5,"Block1"
"KL2012_e2","KL2012_e2_1",1,4,2048,"Include",6,"Block1"
"KL2012_e2","KL2012_e2_1",0,4,1788,"Include",7,"Block1"
"KL2012_e2","KL2012_e2_1",1,3,2398,"Include",8,"Block1"
"KL2012_e2","KL2012_e2_1",0,2,1809,"Include",9,"Block1"
"KL2012_e2","KL2012_e2_1",0,2,1500,"Include",10,"Block1"
"KL2012_e2","KL2012_e2_1",1,4,1931,"Include",11,"Block1"
"KL2012_e2","KL2012_e2_1",0,3,2601,"Include",12,"Block1"
"KL2012_e2","KL2012_e2_1",0,4,2036,"Include",13,"Block1"
"KL2012_e2","KL2012_e2_1",1,6,1466,"Include",14,"Block1"
"KL2012_e2","KL2012_e2_1",0,5,2254,"Include",15,"Block1"
"KL2012_e2","KL2012_e2_1",0,4,2613,"Include",16,"Block1"
"KL2012_e2","KL2012_e2_1",0,5,1392,"Include",17,"Block1"
"KL2012_e2","KL2012_e2_1",1,4,2481,"Include",18,"Block1"
"KL2012_e2","KL2012_e2_1",0,3,1877,"Include",19,"Block1"
"KL2012_e2","KL2012_e2_1",0,4,2095,"Include",20,"Block1"
"KL2012_e2","KL2012_e2_1",0,2,1717,"Include",21,"Block1"
"KL2012_e2","KL2012_e2_1",1,5,1428,"Include",22,"Block1"
"KL2012_e2","KL2012_e2_1",1,5,2288,"Include",23,"Block1"
"KL2012_e2","KL2012_e2_1",1,5,1185,"Include",24,"Block1"
"KL2012_e2","KL2012_e2_1",0,4,1553,"Include",25,"Block1"
"KL2012_e2","KL2012_e2_1",1,4,1454,"Include",26,"Block1"
"KL2012_e2","KL2012_e2_1",1,5,1823,"Include",27,"Block1"
"KL2012_e2","KL2012_e2_1",1,5,960,"Include",28,"Block1"
"KL2012_e2","KL2012_e2_1",1,5,2501,"Include",29,"Block1"
"KL2012_e2","KL2012_e2_1",0,3,1301,"Include",30,"Block1"
"KL2012_e2","KL2012_e2_1",0,3,1378,"Include",31,"Block1"
"KL2012_e2","KL2012_e2_1",1,4,1622,"Include",32,"Block1"
"KL2012_e2","KL2012_e2_1",1,4,1990,"Include",33,"Block1"
"KL2012_e2","KL2012_e2_1",1,6,1743,"Include",34,"Block1"
"KL2012_e2","KL2012_e2_1",0,2,2024,"Include",35,"Block1"
"KL2012_e2","KL2012_e2_1",0,1,1767,"Include",36,"Block1"
"KL2012_e2","KL2012_e2_1",1,4,2266,"Include",37,"Block1"
"KL2012_e2","KL2012_e2_1",1,1,1467,"Include",38,"Block1"
"KL2012_e2","KL2012_e2_1",0,4,2377,"Include",39,"Block1"
"KL2012_e2","KL2012_e2_1",1,4,2114,"Include",40,"Block1"
"KL2012_e2","KL2012_e2_1",1,1,1783,"Include",41,"Block1"
"KL2012_e2","KL2012_e2_1",0,3,2078,"Include",42,"Block1"
"KL2012_e2","KL2012_e2_1",1,4,1211,"Include",43,"Block1"
"KL2012_e2","KL2012_e2_1",0,4,1197,"Include",44,"Block1"
"KL2012_e2","KL2012_e2_1",1,4,2894,"Include",45,"Block1"
"KL2012_e2","KL2012_e2_1",1,5,1407,"Include",46,"Block1"
"KL2012_e2","KL2012_e2_1",1,6,1056,"Include",47,"Block1"
"KL2012_e2","KL2012_e2_1",0,2,2344,"Include",48,"Block1"
"KL2012_e2","KL2012_e2_1",1,3,2639,"Include",49,"Block1"
"KL2012_e2","KL2012_e2_1",0,3,1452,"Include",50,"Block1"
"KL2012_e2","KL2012_e2_1",0,4,1919,"Include",51,"Block1"
"KL2012_e2","KL2012_e2_1",0,3,1831,"Include",52,"Block1"
"KL2012_e2","KL2012_e2_1",1,4,1260,"Include",53,"Block1"
"KL2012_e2","KL2012_e2_1",1,5,1910,"Include",54,"Block1"
"KL2012_e2","KL2012_e2_1",0,4,2719,"Include",55,"Block1"
"KL2012_e2","KL2012_e2_1",0,3,2173,"Include",56,"Block1"
"KL2012_e2","KL2012_e2_1",1,5,1650,"Include",57,"Block1"
"KL2012_e2","KL2012_e2_1",0,3,2365,"Include",58,"Block1"
"KL2012_e2","KL2012_e2_1",0,5,2376,"Include",59,"Block1"
"KL2012_e2","KL2012_e2_1",1,2,2478,"Include",60,"Block1"
"KL2012_e2","KL2012_e2_1",1,3,1548,"Include",61,"Block1"
"KL2012_e2","KL2012_e2_1",0,2,2059,"Include",62,"Block1"
"KL2012_e2","KL2012_e2_1",0,3,2502,"Include",63,"Block1"
"KL2012_e2","KL2012_e2_1",1,3,1378,"Include",64,"Block1"
"KL2012_e2","KL2012_e2_1",1,2,2111,"Include",65,"Block1"
"KL2012_e2","KL2012_e2_1",0,3,2683,"Include",66,"Block1"
"KL2012_e2","KL2012_e2_1",0,3,1975,"Include",67,"Block1"
"KL2012_e2","KL2012_e2_1",1,4,1905,"Include",68,"Block1"
"KL2012_e2","KL2012_e2_1",1,6,2383,"Include",69,"Block1"
"KL2012_e2","KL2012_e2_1",0,2,2509,"Include",70,"Block1"
"KL2012_e2","KL2012_e2_1",0,3,1553,"Include",71,"Block1"
"KL2012_e2","KL2012_e2_1",0,4,1241,"Include",72,"Block1"
"KL2012_e2","KL2012_e2_1",0,3,2177,"Include",73,"Block1"
"KL2012_e2","KL2012_e2_1",1,5,1588,"Include",74,"Block1"
"KL2012_e2","KL2012_e2_1",1,6,1195,"Include",75,"Block1"
"KL2012_e2","KL2012_e2_1",0,3,3436,"Include",76,"Block1"
"KL2012_e2","KL2012_e2_1",1,3,2494,"Include",77,"Block1"
"KL2012_e2","KL2012_e2_1",1,2,1864,"Include",78,"Block1"
"KL2012_e2","KL2012_e2_1",1,3,2403,"Include",79,"Block1"
"KL2012_e2","KL2012_e2_1",0,4,3403,"Include",80,"Block1"
"KL2012_e2","KL2012_e2_1",1,6,1707,"Include",81,"Block1"
"KL2012_e2","KL2012_e2_1",0,3,2249,"Include",82,"Block1"
"KL2012_e2","KL2012_e2_1",1,5,1548,"Include",83,"Block1"
"KL2012_e2","KL2012_e2_1",0,4,3490,"Include",84,"Block1"
"KL2012_e2","KL2012_e2_1",1,4,1733,"Include",85,"Block1"
"KL2012_e2","KL2012_e2_1",0,3,1921,"Include",86,"Block1"
"KL2012_e2","KL2012_e2_1",0,3,2893,"Include",87,"Block1"
"KL2012_e2","KL2012_e2_1",0,4,2249,"Include",88,"Block1"
"KL2012_e2","KL2012_e2_1",1,5,3007,"Include",89,"Block1"
"KL2012_e2","KL2012_e2_1",0,4,2111,"Include",90,"Block1"
"KL2012_e2","KL2012_e2_1",0,3,2010,"Include",91,"Block1"
"KL2012_e2","KL2012_e2_1",1,5,2108,"Include",92,"Block1"
"KL2012_e2","KL2012_e2_1",0,3,2404,"Include",93,"Block1"
"KL2012_e2","KL2012_e2_1",1,5,1479,"Include",94,"Block1"
"KL2012_e2","KL2012_e2_1",0,2,1942,"Include",95,"Block1"
"KL2012_e2","KL2012_e2_1",0,2,1973,"Include",96,"Block1"
"KL2012_e2","KL2012_e2_10",1,1,8374,"Include",1,"Block1"
"KL2012_e2","KL2012_e2_10",1,2,1988,"Include",2,"Block1"
"KL2012_e2","KL2012_e2_10",1,2,2113,"Include",3,"Block1"
"KL2012_e2","KL2012_e2_10",0,2,1613,"Include",4,"Block1"
"KL2012_e2","KL2012_e2_10",1,6,1962,"Include",5,"Block1"
"KL2012_e2","KL2012_e2_10",1,4,1507,"Include",6,"Block1"
"KL2012_e2","KL2012_e2_10",1,2,1826,"Include",7,"Block1"
"KL2012_e2","KL2012_e2_10",0,1,1896,"Include",8,"Block1"
"KL2012_e2","KL2012_e2_10",1,1,965,"Include",9,"Block1"
"KL2012_e2","KL2012_e2_10",1,6,2312,"Include",10,"Block1"
"KL2012_e2","KL2012_e2_10",1,3,1600,"Include",11,"Block1"
"KL2012_e2","KL2012_e2_10",0,1,1507,"Include",12,"Block1"
"KL2012_e2","KL2012_e2_10",1,2,1407,"Include",13,"Block1"
"KL2012_e2","KL2012_e2_10",1,2,1244,"Include",14,"Block1"
"KL2012_e2","KL2012_e2_10",1,2,1732,"Include",15,"Block1"
"KL2012_e2","KL2012_e2_10",0,2,1049,"Include",16,"Block1"
"KL2012_e2","KL2012_e2_10",0,3,1591,"Include",17,"Block1"
"KL2012_e2","KL2012_e2_10",1,1,1941,"Include",18,"Block1"
"KL2012_e2","KL2012_e2_10",0,2,940,"Include",19,"Block1"
"KL2012_e2","KL2012_e2_10",0,2,1467,"Include",20,"Block1"
"KL2012_e2","KL2012_e2_10",0,2,1134,"Include",21,"Block1"
"KL2012_e2","KL2012_e2_10",0,1,2029,"Include",22,"Block1"
"KL2012_e2","KL2012_e2_10",0,1,959,"Include",23,"Block1"
"KL2012_e2","KL2012_e2_10",1,1,1445,"Include",24,"Block1"
"KL2012_e2","KL2012_e2_10",0,1,1951,"Include",25,"Block1"
"KL2012_e2","KL2012_e2_10",0,3,2633,"Include",26,"Block1"
"KL2012_e2","KL2012_e2_10",1,4,2711,"Include",27,"Block1"
"KL2012_e2","KL2012_e2_10",1,6,1357,"Include",28,"Block1"
"KL2012_e2","KL2012_e2_10",0,4,1502,"Include",29,"Block1"
"KL2012_e2","KL2012_e2_10",0,3,1898,"Include",30,"Block1"
"KL2012_e2","KL2012_e2_10",0,2,2665,"Include",31,"Block1"
"KL2012_e2","KL2012_e2_10",1,4,2364,"Include",32,"Block1"
"KL2012_e2","KL2012_e2_10",1,4,1304,"Include",33,"Block1"
"KL2012_e2","KL2012_e2_10",1,2,1751,"Include",34,"Block1"
"KL2012_e2","KL2012_e2_10",1,3,1666,"Include",35,"Block1"
"KL2012_e2","KL2012_e2_10",0,1,1693,"Include",36,"Block1"
"KL2012_e2","KL2012_e2_10",1,1,3057,"Include",37,"Block1"
"KL2012_e2","KL2012_e2_10",1,2,1072,"Include",38,"Block1"
"KL2012_e2","KL2012_e2_10",1,5,1875,"Include",39,"Block1"
"KL2012_e2","KL2012_e2_10",1,2,1996,"Include",40,"Block1"
"KL2012_e2","KL2012_e2_10",0,2,1447,"Include",41,"Block1"
"KL2012_e2","KL2012_e2_10",0,2,1380,"Include",42,"Block1"
"KL2012_e2","KL2012_e2_10",1,3,2510,"Include",43,"Block1"
"KL2012_e2","KL2012_e2_10",1,5,2806,"Include",44,"Block1"
"KL2012_e2","KL2012_e2_10",1,6,1244,"Include",45,"Block1"
"KL2012_e2","KL2012_e2_10",1,3,2259,"Include",46,"Block1"
"KL2012_e2","KL2012_e2_10",1,2,1950,"Include",47,"Block1"
"KL2012_e2","KL2012_e2_10",0,2,1210,"Include",48,"Block1"
"KL2012_e2","KL2012_e2_10",0,3,8119,"Include",49,"Block1"
"KL2012_e2","KL2012_e2_10",0,3,1483,"Include",50,"Block1"
"KL2012_e2","KL2012_e2_10",0,5,3367,"Include",51,"Block1"
"KL2012_e2","KL2012_e2_10",1,2,1576,"Include",52,"Block1"
"KL2012_e2","KL2012_e2_10",1,2,3179,"Include",53,"Block1"
"KL2012_e2","KL2012_e2_10",0,4,3524,"Include",54,"Block1"
"KL2012_e2","KL2012_e2_10",1,6,993,"Include",55,"Block1"
"KL2012_e2","KL2012_e2_10",0,2,1423,"Include",56,"Block1"
"KL2012_e2","KL2012_e2_10",0,6,1229,"Include",57,"Block1"
"KL2012_e2","KL2012_e2_10",0,2,1842,"Include",58,"Block1"
"KL2012_e2","KL2012_e2_10",1,4,2909,"Include",59,"Block1"
"KL2012_e2","KL2012_e2_10",0,3,2354,"Include",60,"Block1"
"KL2012_e2","KL2012_e2_10",0,6,1010,"Include",61,"Block1"
"KL2012_e2","KL2012_e2_10",1,6,1056,"Include",62,"Block1"
"KL2012_e2","KL2012_e2_10",0,4,2728,"Include",63,"Block1"
"KL2012_e2","KL2012_e2_10",1,6,1031,"Include",64,"Block1"
"KL2012_e2","KL2012_e2_10",0,3,2073,"Include",65,"Block1"
"KL2012_e2","KL2012_e2_10",0,3,1383,"Include",66,"Block1"
"KL2012_e2","KL2012_e2_10",1,4,1701,"Include",67,"Block1"
"KL2012_e2","KL2012_e2_10",0,2,1441,"Include",68,"Block1"
"KL2012_e2","KL2012_e2_10",0,5,1788,"Include",69,"Block1"
"KL2012_e2","KL2012_e2_10",1,6,3604,"Include",70,"Block1"
"KL2012_e2","KL2012_e2_10",1,4,1603,"Include",71,"Block1"
"KL2012_e2","KL2012_e2_10",0,2,1961,"Include",72,"Block1"
"KL2012_e2","KL2012_e2_10",1,4,1760,"Include",73,"Block1"
"KL2012_e2","KL2012_e2_10",0,3,1886,"Include",74,"Block1"
"KL2012_e2","KL2012_e2_10",0,2,4847,"Include",75,"Block1"
"KL2012_e2","KL2012_e2_10",0,4,1778,"Include",76,"Block1"
"KL2012_e2","KL2012_e2_10",1,3,1316,"Include",77,"Block1"
"KL2012_e2","KL2012_e2_10",0,1,1858,"Include",78,"Block1"
"KL2012_e2","KL2012_e2_10",0,1,2224,"Include",79,"Block1"
"KL2012_e2","KL2012_e2_10",1,6,1193,"Include",80,"Block1"
"KL2012_e2","KL2012_e2_10",1,4,2674,"Include",81,"Block1"
"KL2012_e2","KL2012_e2_10",0,3,1714,"Include",82,"Block1"
"KL2012_e2","KL2012_e2_10",1,3,1903,"Include",83,"Block1"
"KL2012_e2","KL2012_e2_10",1,3,1967,"Include",84,"Block1"
"KL2012_e2","KL2012_e2_10",1,6,2386,"Include",85,"Block1"
"KL2012_e2","KL2012_e2_10",1,2,1963,"Include",86,"Block1"
"KL2012_e2","KL2012_e2_10",1,3,1973,"Include",87,"Block1"
"KL2012_e2","KL2012_e2_10",0,3,1473,"Include",88,"Block1"
"KL2012_e2","KL2012_e2_10",0,2,1588,"Include",89,"Block1"
"KL2012_e2","KL2012_e2_10",0,4,2053,"Include",90,"Block1"
"KL2012_e2","KL2012_e2_10",0,3,2061,"Include",91,"Block1"
"KL2012_e2","KL2012_e2_10",1,2,1717,"Include",92,"Block1"
"KL2012_e2","KL2012_e2_10",0,2,1472,"Include",93,"Block1"
"KL2012_e2","KL2012_e2_10",0,2,1073,"Include",94,"Block1"
"KL2012_e2","KL2012_e2_10",0,1,1429,"Include",95,"Block1"
"KL2012_e2","KL2012_e2_10",0,3,2996,"Include",96,"Block1"
"KL2012_e2","KL2012_e2_11",0,1,6427,"Include",1,"Block1"
"KL2012_e2","KL2012_e2_11",1,6,2111,"Include",2,"Block1"
"KL2012_e2","KL2012_e2_11",0,1,1464,"Include",3,"Block1"
"KL2012_e2","KL2012_e2_11",0,1,2127,"Include",4,"Block1"
"KL2012_e2","KL2012_e2_11",0,1,1116,"Include",5,"Block1"
"KL2012_e2","KL2012_e2_11",0,6,1407,"Include",6,"Block1"
"KL2012_e2","KL2012_e2_11",1,5,5444,"Include",7,"Block1"
"KL2012_e2","KL2012_e2_11",1,6,1301,"Include",8,"Block1"
"KL2012_e2","KL2012_e2_11",1,6,1017,"Include",9,"Block1"
"KL2012_e2","KL2012_e2_11",0,1,1159,"Include",10,"Block1"
"KL2012_e2","KL2012_e2_11",0,6,2283,"Include",11,"Block1"
"KL2012_e2","KL2012_e2_11",1,6,1251,"Include",12,"Block1"
"KL2012_e2","KL2012_e2_11",1,6,1273,"Include",13,"Block1"
"KL2012_e2","KL2012_e2_11",0,2,2936,"Include",14,"Block1"
"KL2012_e2","KL2012_e2_11",0,1,1423,"Include",15,"Block1"
"KL2012_e2","KL2012_e2_11",0,5,1917,"Include",16,"Block1"
"KL2012_e2","KL2012_e2_11",1,6,1605,"Include",17,"Block1"
"KL2012_e2","KL2012_e2_11",1,5,2174,"Include",18,"Block1"
"KL2012_e2","KL2012_e2_11",1,6,1317,"Include",19,"Block1"
"KL2012_e2","KL2012_e2_11",1,6,768,"Include",20,"Block1"
"KL2012_e2","KL2012_e2_11",1,6,889,"Include",21,"Block1"
"KL2012_e2","KL2012_e2_11",1,4,1540,"Include",22,"Block1"
"KL2012_e2","KL2012_e2_11",1,6,1322,"Include",23,"Block1"
"KL2012_e2","KL2012_e2_11",0,2,1434,"Include",24,"Block1"
"KL2012_e2","KL2012_e2_11",0,1,1197,"Include",25,"Block1"
"KL2012_e2","KL2012_e2_11",0,1,999,"Include",26,"Block1"
"KL2012_e2","KL2012_e2_11",0,5,1989,"Include",27,"Block1"
"KL2012_e2","KL2012_e2_11",1,6,1158,"Include",28,"Block1"
"KL2012_e2","KL2012_e2_11",1,6,787,"Include",29,"Block1"
"KL2012_e2","KL2012_e2_11",0,1,1075,"Include",30,"Block1"
"KL2012_e2","KL2012_e2_11",1,5,1484,"Include",31,"Block1"
"KL2012_e2","KL2012_e2_11",1,2,1451,"Include",32,"Block1"
"KL2012_e2","KL2012_e2_11",0,1,1064,"Include",33,"Block1"
"KL2012_e2","KL2012_e2_11",1,6,2709,"Include",34,"Block1"
"KL2012_e2","KL2012_e2_11",0,3,1822,"Include",35,"Block1"
"KL2012_e2","KL2012_e2_11",0,1,1423,"Include",36,"Block1"
"KL2012_e2","KL2012_e2_11",0,1,1010,"Include",37,"Block1"
"KL2012_e2","KL2012_e2_11",1,6,983,"Include",38,"Block1"
"KL2012_e2","KL2012_e2_11",0,1,980,"Include",39,"Block1"
"KL2012_e2","KL2012_e2_11",0,4,2131,"Include",40,"Block1"
"KL2012_e2","KL2012_e2_11",0,2,1490,"Include",41,"Block1"
"KL2012_e2","KL2012_e2_11",1,6,2231,"Include",42,"Block1"
"KL2012_e2","KL2012_e2_11",0,5,1436,"Include",43,"Block1"
"KL2012_e2","KL2012_e2_11",0,1,987,"Include",44,"Block1"
"KL2012_e2","KL2012_e2_11",1,5,1991,"Include",45,"Block1"
"KL2012_e2","KL2012_e2_11",0,1,1842,"Include",46,"Block1"
"KL2012_e2","KL2012_e2_11",1,6,1870,"Include",47,"Block1"
"KL2012_e2","KL2012_e2_11",1,6,1153,"Include",48,"Block1"
"KL2012_e2","KL2012_e2_11",1,6,1104,"Include",49,"Block1"
"KL2012_e2","KL2012_e2_11",1,5,1685,"Include",50,"Block1"
"KL2012_e2","KL2012_e2_11",0,1,1181,"Include",51,"Block1"
"KL2012_e2","KL2012_e2_11",1,6,966,"Include",52,"Block1"
"KL2012_e2","KL2012_e2_11",0,1,1497,"Include",53,"Block1"
"KL2012_e2","KL2012_e2_11",1,6,940,"Include",54,"Block1"
"KL2012_e2","KL2012_e2_11",0,1,1155,"Include",55,"Block1"
"KL2012_e2","KL2012_e2_11",0,1,871,"Include",56,"Block1"
"KL2012_e2","KL2012_e2_11",1,3,2144,"Include",57,"Block1"
"KL2012_e2","KL2012_e2_11",1,4,2857,"Include",58,"Block1"
"KL2012_e2","KL2012_e2_11",0,1,1406,"Include",59,"Block1"
"KL2012_e2","KL2012_e2_11",0,1,2245,"Include",60,"Block1"
"KL2012_e2","KL2012_e2_11",1,3,2133,"Include",61,"Block1"
"KL2012_e2","KL2012_e2_11",1,6,982,"Include",62,"Block1"
"KL2012_e2","KL2012_e2_11",1,6,812,"Include",63,"Block1"
"KL2012_e2","KL2012_e2_11",1,1,1120,"Include",64,"Block1"
"KL2012_e2","KL2012_e2_11",1,6,809,"Include",65,"Block1"
"KL2012_e2","KL2012_e2_11",0,1,1255,"Include",66,"Block1"
"KL2012_e2","KL2012_e2_11",1,5,1244,"Include",67,"Block1"
"KL2012_e2","KL2012_e2_11",1,2,1510,"Include",68,"Block1"
"KL2012_e2","KL2012_e2_11",1,2,973,"Include",69,"Block1"
"KL2012_e2","KL2012_e2_11",0,1,3226,"Include",70,"Block1"
"KL2012_e2","KL2012_e2_11",0,2,1039,"Include",71,"Block1"
"KL2012_e2","KL2012_e2_11",1,2,3365,"Include",72,"Block1"
"KL2012_e2","KL2012_e2_11",0,2,944,"Include",73,"Block1"
"KL2012_e2","KL2012_e2_11",1,6,1394,"Include",74,"Block1"
"KL2012_e2","KL2012_e2_11",0,2,1306,"Include",75,"Block1"
"KL2012_e2","KL2012_e2_11",1,2,1442,"Include",76,"Block1"
"KL2012_e2","KL2012_e2_11",0,1,1055,"Include",77,"Block1"
"KL2012_e2","KL2012_e2_11",1,6,3537,"Include",78,"Block1"
"KL2012_e2","KL2012_e2_11",0,5,1741,"Include",79,"Block1"
"KL2012_e2","KL2012_e2_11",0,3,1677,"Include",80,"Block1"
"KL2012_e2","KL2012_e2_11",0,2,1055,"Include",81,"Block1"
"KL2012_e2","KL2012_e2_11",1,6,1755,"Include",82,"Block1"
"KL2012_e2","KL2012_e2_11",0,2,922,"Include",83,"Block1"
"KL2012_e2","KL2012_e2_11",1,2,974,"Include",84,"Block1"
"KL2012_e2","KL2012_e2_11",1,6,861,"Include",85,"Block1"
"KL2012_e2","KL2012_e2_11",0,1,1014,"Include",86,"Block1"
"KL2012_e2","KL2012_e2_11",0,5,1640,"Include",87,"Block1"
"KL2012_e2","KL2012_e2_11",1,5,6074,"Include",88,"Block1"
"KL2012_e2","KL2012_e2_11",0,1,978,"Include",89,"Block1"
"KL2012_e2","KL2012_e2_11",0,2,1043,"Include",90,"Block1"
"KL2012_e2","KL2012_e2_11",1,6,11961,"Include",91,"Block1"
"KL2012_e2","KL2012_e2_11",0,1,2580,"Include",92,"Block1"
"KL2012_e2","KL2012_e2_11",1,5,2223,"Include",93,"Block1"
"KL2012_e2","KL2012_e2_11",0,1,2051,"Include",94,"Block1"
"KL2012_e2","KL2012_e2_11",0,1,1117,"Include",95,"Block1"
"KL2012_e2","KL2012_e2_11",1,6,1297,"Include",96,"Block1"
"KL2012_e2","KL2012_e2_12",0,3,11528,"Include",1,"Block1"
"KL2012_e2","KL2012_e2_12",1,6,2828,"Include",2,"Block1"
"KL2012_e2","KL2012_e2_12",1,6,1668,"Include",3,"Block1"
"KL2012_e2","KL2012_e2_12",1,6,1092,"Include",4,"Block1"
"KL2012_e2","KL2012_e2_12",1,4,2684,"Include",5,"Block1"
"KL2012_e2","KL2012_e2_12",0,4,1757,"Include",6,"Block1"
"KL2012_e2","KL2012_e2_12",1,2,2549,"Include",7,"Block1"
"KL2012_e2","KL2012_e2_12",0,5,1738,"Include",8,"Block1"
"KL2012_e2","KL2012_e2_12",1,6,1016,"Include",9,"Block1"
"KL2012_e2","KL2012_e2_12",1,6,1008,"Include",10,"Block1"
"KL2012_e2","KL2012_e2_12",1,6,914,"Include",11,"Block1"
"KL2012_e2","KL2012_e2_12",1,6,2988,"Include",12,"Block1"
"KL2012_e2","KL2012_e2_12",0,3,4789,"Include",13,"Block1"
"KL2012_e2","KL2012_e2_12",1,3,2559,"Include",14,"Block1"
"KL2012_e2","KL2012_e2_12",1,6,1218,"Include",15,"Block1"
"KL2012_e2","KL2012_e2_12",0,3,3170,"Include",16,"Block1"
"KL2012_e2","KL2012_e2_12",0,1,1640,"Include",17,"Block1"
"KL2012_e2","KL2012_e2_12",0,4,1923,"Include",18,"Block1"
"KL2012_e2","KL2012_e2_12",0,3,2132,"Include",19,"Block1"
"KL2012_e2","KL2012_e2_12",1,5,1683,"Include",20,"Block1"
"KL2012_e2","KL2012_e2_12",1,6,3082,"Include",21,"Block1"
"KL2012_e2","KL2012_e2_12",0,3,1582,"Include",22,"Block1"
"KL2012_e2","KL2012_e2_12",0,3,1786,"Include",23,"Block1"
"KL2012_e2","KL2012_e2_12",0,2,3487,"Include",24,"Block1"
"KL2012_e2","KL2012_e2_12",0,2,1412,"Include",25,"Block1"
"KL2012_e2","KL2012_e2_12",0,4,3010,"Include",26,"Block1"
"KL2012_e2","KL2012_e2_12",0,3,1728,"Include",27,"Block1"
"KL2012_e2","KL2012_e2_12",1,4,2204,"Include",28,"Block1"
"KL2012_e2","KL2012_e2_12",1,3,2170,"Include",29,"Block1"
"KL2012_e2","KL2012_e2_12",0,3,1580,"Include",30,"Block1"
"KL2012_e2","KL2012_e2_12",0,6,1981,"Include",31,"Block1"
"KL2012_e2","KL2012_e2_12",1,6,953,"Include",32,"Block1"
"KL2012_e2","KL2012_e2_12",1,4,1295,"Include",33,"Block1"
"KL2012_e2","KL2012_e2_12",1,3,4315,"Include",34,"Block1"
"KL2012_e2","KL2012_e2_12",0,4,3018,"Include",35,"Block1"
"KL2012_e2","KL2012_e2_12",1,2,2197,"Include",36,"Block1"
"KL2012_e2","KL2012_e2_12",0,2,3552,"Include",37,"Block1"
"KL2012_e2","KL2012_e2_12",1,6,1304,"Include",38,"Block1"
"KL2012_e2","KL2012_e2_12",0,4,1593,"Include",39,"Block1"
"KL2012_e2","KL2012_e2_12",0,2,3286,"Include",40,"Block1"
"KL2012_e2","KL2012_e2_12",1,5,3589,"Include",41,"Block1"
"KL2012_e2","KL2012_e2_12",0,3,1798,"Include",42,"Block1"
"KL2012_e2","KL2012_e2_12",1,6,1309,"Include",43,"Block1"
"KL2012_e2","KL2012_e2_12",1,6,1006,"Include",44,"Block1"
"KL2012_e2","KL2012_e2_12",1,6,792,"Include",45,"Block1"
"KL2012_e2","KL2012_e2_12",1,4,1337,"Include",46,"Block1"
"KL2012_e2","KL2012_e2_12",1,4,1474,"Include",47,"Block1"
"KL2012_e2","KL2012_e2_12",1,3,1124,"Include",48,"Block1"
"KL2012_e2","KL2012_e2_12",0,1,3454,"Include",49,"Block1"
"KL2012_e2","KL2012_e2_12",1,6,1511,"Include",50,"Block1"
"KL2012_e2","KL2012_e2_12",0,1,1427,"Include",51,"Block1"
"KL2012_e2","KL2012_e2_12",1,6,964,"Include",52,"Block1"
"KL2012_e2","KL2012_e2_12",1,6,878,"Include",53,"Block1"
"KL2012_e2","KL2012_e2_12",0,2,4478,"Include",54,"Block1"
"KL2012_e2","KL2012_e2_12",1,4,1734,"Include",55,"Block1"
"KL2012_e2","KL2012_e2_12",1,6,970,"Include",56,"Block1"
"KL2012_e2","KL2012_e2_12",0,4,2500,"Include",57,"Block1"
"KL2012_e2","KL2012_e2_12",1,4,1641,"Include",58,"Block1"
"KL2012_e2","KL2012_e2_12",1,6,1025,"Include",59,"Block1"
"KL2012_e2","KL2012_e2_12",0,1,1907,"Include",60,"Block1"
"KL2012_e2","KL2012_e2_12",0,3,1632,"Include",61,"Block1"
"KL2012_e2","KL2012_e2_12",0,2,4095,"Include",62,"Block1"
"KL2012_e2","KL2012_e2_12",1,2,1707,"Include",63,"Block1"
"KL2012_e2","KL2012_e2_12",0,4,2278,"Include",64,"Block1"
"KL2012_e2","KL2012_e2_12",1,6,890,"Include",65,"Block1"
"KL2012_e2","KL2012_e2_12",0,2,1876,"Include",66,"Block1"
"KL2012_e2","KL2012_e2_12",0,1,3069,"Include",67,"Block1"
"KL2012_e2","KL2012_e2_12",0,1,2203,"Include",68,"Block1"
"KL2012_e2","KL2012_e2_12",1,5,1571,"Include",69,"Block1"
"KL2012_e2","KL2012_e2_12",0,1,1783,"Include",70,"Block1"
"KL2012_e2","KL2012_e2_12",1,3,2121,"Include",71,"Block1"
"KL2012_e2","KL2012_e2_12",0,3,2996,"Include",72,"Block1"
"KL2012_e2","KL2012_e2_12",0,3,2186,"Include",73,"Block1"
"KL2012_e2","KL2012_e2_12",1,5,3194,"Include",74,"Block1"
"KL2012_e2","KL2012_e2_12",0,3,2847,"Include",75,"Block1"
"KL2012_e2","KL2012_e2_12",0,2,4188,"Include",76,"Block1"
"KL2012_e2","KL2012_e2_12",1,3,2579,"Include",77,"Block1"
"KL2012_e2","KL2012_e2_12",0,3,1035,"Include",78,"Block1"
"KL2012_e2","KL2012_e2_12",0,1,2055,"Include",79,"Block1"
"KL2012_e2","KL2012_e2_12",0,1,2223,"Include",80,"Block1"
"KL2012_e2","KL2012_e2_12",1,6,1299,"Include",81,"Block1"
"KL2012_e2","KL2012_e2_12",1,1,2583,"Include",82,"Block1"
"KL2012_e2","KL2012_e2_12",0,1,981,"Include",83,"Block1"
"KL2012_e2","KL2012_e2_12",0,1,1697,"Include",84,"Block1"
"KL2012_e2","KL2012_e2_12",0,1,776,"Include",85,"Block1"
"KL2012_e2","KL2012_e2_12",1,1,2302,"Include",86,"Block1"
"KL2012_e2","KL2012_e2_12",1,1,1454,"Include",87,"Block1"
"KL2012_e2","KL2012_e2_12",0,1,1511,"Include",88,"Block1"
"KL2012_e2","KL2012_e2_12",1,1,1848,"Include",89,"Block1"
"KL2012_e2","KL2012_e2_12",0,1,903,"Include",90,"Block1"
"KL2012_e2","KL2012_e2_12",0,1,1477,"Include",91,"Block1"
"KL2012_e2","KL2012_e2_12",0,1,1916,"Include",92,"Block1"
"KL2012_e2","KL2012_e2_12",0,1,1122,"Include",93,"Block1"
"KL2012_e2","KL2012_e2_12",1,6,1471,"Include",94,"Block1"
"KL2012_e2","KL2012_e2_12",1,6,965,"Include",95,"Block1"
"KL2012_e2","KL2012_e2_12",1,6,719,"Include",96,"Block1"
"KL2012_e2","KL2012_e2_13",0,3,7585,"Include",1,"Block1"
"KL2012_e2","KL2012_e2_13",1,3,2170,"Include",2,"Block1"
"KL2012_e2","KL2012_e2_13",1,5,1720,"Include",3,"Block1"
"KL2012_e2","KL2012_e2_13",0,4,4346,"Include",4,"Block1"
"KL2012_e2","KL2012_e2_13",0,3,1405,"Include",5,"Block1"
"KL2012_e2","KL2012_e2_13",1,6,1540,"Include",6,"Block1"
"KL2012_e2","KL2012_e2_13",1,6,1064,"Include",7,"Block1"
"KL2012_e2","KL2012_e2_13",0,4,2698,"Include",8,"Block1"
"KL2012_e2","KL2012_e2_13",1,4,2243,"Include",9,"Block1"
"KL2012_e2","KL2012_e2_13",0,3,1280,"Include",10,"Block1"
"KL2012_e2","KL2012_e2_13",1,3,963,"Include",11,"Block1"
"KL2012_e2","KL2012_e2_13",1,3,2455,"Include",12,"Block1"
"KL2012_e2","KL2012_e2_13",1,5,1262,"Include",13,"Block1"
"KL2012_e2","KL2012_e2_13",0,5,1655,"Include",14,"Block1"
"KL2012_e2","KL2012_e2_13",0,4,4121,"Include",15,"Block1"
"KL2012_e2","KL2012_e2_13",1,4,1997,"Include",16,"Block1"
"KL2012_e2","KL2012_e2_13",1,6,2506,"Include",17,"Block1"
"KL2012_e2","KL2012_e2_13",1,6,1084,"Include",18,"Block1"
"KL2012_e2","KL2012_e2_13",1,5,3927,"Include",19,"Block1"
"KL2012_e2","KL2012_e2_13",0,4,1243,"Include",20,"Block1"
"KL2012_e2","KL2012_e2_13",0,3,1683,"Include",21,"Block1"
"KL2012_e2","KL2012_e2_13",0,5,1799,"Include",22,"Block1"
"KL2012_e2","KL2012_e2_13",0,4,2625,"Include",23,"Block1"
"KL2012_e2","KL2012_e2_13",1,4,2986,"Include",24,"Block1"
"KL2012_e2","KL2012_e2_13",1,6,2196,"Include",25,"Block1"
"KL2012_e2","KL2012_e2_13",0,6,957,"Include",26,"Block1"
"KL2012_e2","KL2012_e2_13",1,4,1672,"Include",27,"Block1"
"KL2012_e2","KL2012_e2_13",0,4,1181,"Include",28,"Block1"
"KL2012_e2","KL2012_e2_13",1,3,3483,"Include",29,"Block1"
"KL2012_e2","KL2012_e2_13",0,3,1033,"Include",30,"Block1"
"KL2012_e2","KL2012_e2_13",1,3,4060,"Include",31,"Block1"
"KL2012_e2","KL2012_e2_13",0,2,1486,"Include",32,"Block1"
"KL2012_e2","KL2012_e2_13",1,5,2165,"Include",33,"Block1"
"KL2012_e2","KL2012_e2_13",1,3,1769,"Include",34,"Block1"
"KL2012_e2","KL2012_e2_13",1,6,1104,"Include",35,"Block1"
"KL2012_e2","KL2012_e2_13",0,6,1143,"Include",36,"Block1"
"KL2012_e2","KL2012_e2_13",1,6,1035,"Include",37,"Block1"
"KL2012_e2","KL2012_e2_13",0,3,1721,"Include",38,"Block1"
"KL2012_e2","KL2012_e2_13",1,5,1254,"Include",39,"Block1"
"KL2012_e2","KL2012_e2_13",1,6,906,"Include",40,"Block1"
"KL2012_e2","KL2012_e2_13",0,2,1643,"Include",41,"Block1"
"KL2012_e2","KL2012_e2_13",0,3,1913,"Include",42,"Block1"
"KL2012_e2","KL2012_e2_13",0,3,1362,"Include",43,"Block1"
"KL2012_e2","KL2012_e2_13",1,3,1861,"Include",44,"Block1"
"KL2012_e2","KL2012_e2_13",0,3,927,"Include",45,"Block1"
"KL2012_e2","KL2012_e2_13",1,5,1233,"Include",46,"Block1"
"KL2012_e2","KL2012_e2_13",0,4,1582,"Include",47,"Block1"
"KL2012_e2","KL2012_e2_13",0,3,1791,"Include",48,"Block1"
"KL2012_e2","KL2012_e2_13",1,3,2064,"Include",49,"Block1"
"KL2012_e2","KL2012_e2_13",0,4,1502,"Include",50,"Block1"
"KL2012_e2","KL2012_e2_13",0,4,5781,"Include",51,"Block1"
"KL2012_e2","KL2012_e2_13",1,5,1761,"Include",52,"Block1"
"KL2012_e2","KL2012_e2_13",1,6,1129,"Include",53,"Block1"
"KL2012_e2","KL2012_e2_13",1,5,1961,"Include",54,"Block1"
"KL2012_e2","KL2012_e2_13",0,4,1755,"Include",55,"Block1"
"KL2012_e2","KL2012_e2_13",0,3,3151,"Include",56,"Block1"
"KL2012_e2","KL2012_e2_13",1,4,3389,"Include",57,"Block1"
"KL2012_e2","KL2012_e2_13",0,4,2137,"Include",58,"Block1"
"KL2012_e2","KL2012_e2_13",1,3,1696,"Include",59,"Block1"
"KL2012_e2","KL2012_e2_13",0,2,1545,"Include",60,"Block1"
"KL2012_e2","KL2012_e2_13",1,2,2684,"Include",61,"Block1"
"KL2012_e2","KL2012_e2_13",0,1,1650,"Include",62,"Block1"
"KL2012_e2","KL2012_e2_13",1,6,2745,"Include",63,"Block1"
"KL2012_e2","KL2012_e2_13",0,3,2296,"Include",64,"Block1"
"KL2012_e2","KL2012_e2_13",1,3,1026,"Include",65,"Block1"
"KL2012_e2","KL2012_e2_13",0,2,3230,"Include",66,"Block1"
"KL2012_e2","KL2012_e2_13",0,3,1302,"Include",67,"Block1"
"KL2012_e2","KL2012_e2_13",1,3,3805,"Include",68,"Block1"
"KL2012_e2","KL2012_e2_13",0,1,1925,"Include",69,"Block1"
"KL2012_e2","KL2012_e2_13",0,5,1948,"Include",70,"Block1"
"KL2012_e2","KL2012_e2_13",1,6,1110,"Include",71,"Block1"
"KL2012_e2","KL2012_e2_13",0,1,1606,"Include",72,"Block1"
"KL2012_e2","KL2012_e2_13",0,1,1034,"Include",73,"Block1"
"KL2012_e2","KL2012_e2_13",1,6,1212,"Include",74,"Block1"
"KL2012_e2","KL2012_e2_13",0,4,2337,"Include",75,"Block1"
"KL2012_e2","KL2012_e2_13",1,6,1146,"Include",76,"Block1"
"KL2012_e2","KL2012_e2_13",0,4,2526,"Include",77,"Block1"
"KL2012_e2","KL2012_e2_13",0,2,1484,"Include",78,"Block1"
"KL2012_e2","KL2012_e2_13",1,6,1565,"Include",79,"Block1"
"KL2012_e2","KL2012_e2_13",0,4,1707,"Include",80,"Block1"
"KL2012_e2","KL2012_e2_13",0,4,2540,"Include",81,"Block1"
"KL2012_e2","KL2012_e2_13",1,3,1531,"Include",82,"Block1"
"KL2012_e2","KL2012_e2_13",0,4,2256,"Include",83,"Block1"
"KL2012_e2","KL2012_e2_13",1,6,1047,"Include",84,"Block1"
"KL2012_e2","KL2012_e2_13",0,6,906,"Include",85,"Block1"
"KL2012_e2","KL2012_e2_13",1,4,2117,"Include",86,"Block1"
"KL2012_e2","KL2012_e2_13",1,5,4256,"Include",87,"Block1"
"KL2012_e2","KL2012_e2_13",0,3,1619,"Include",88,"Block1"
"KL2012_e2","KL2012_e2_13",0,3,3022,"Include",89,"Block1"
"KL2012_e2","KL2012_e2_13",1,4,1913,"Include",90,"Block1"
"KL2012_e2","KL2012_e2_13",1,5,2328,"Include",91,"Block1"
"KL2012_e2","KL2012_e2_13",1,4,1900,"Include",92,"Block1"
"KL2012_e2","KL2012_e2_13",1,3,1985,"Include",93,"Block1"
"KL2012_e2","KL2012_e2_13",1,3,5787,"Include",94,"Block1"
"KL2012_e2","KL2012_e2_13",0,2,2671,"Include",95,"Block1"
"KL2012_e2","KL2012_e2_13",0,3,5432,"Include",96,"Block1"
"KL2012_e2","KL2012_e2_14",1,5,13132,"Include",1,"Block1"
"KL2012_e2","KL2012_e2_14",0,2,3389,"Include",2,"Block1"
"KL2012_e2","KL2012_e2_14",1,2,1994,"Include",3,"Block1"
"KL2012_e2","KL2012_e2_14",1,2,5216,"Include",4,"Block1"
"KL2012_e2","KL2012_e2_14",0,4,2118,"Include",5,"Block1"
"KL2012_e2","KL2012_e2_14",0,2,2583,"Include",6,"Block1"
"KL2012_e2","KL2012_e2_14",0,4,1787,"Include",7,"Block1"
"KL2012_e2","KL2012_e2_14",1,5,1046,"Include",8,"Block1"
"KL2012_e2","KL2012_e2_14",0,5,1808,"Include",9,"Block1"
"KL2012_e2","KL2012_e2_14",1,4,3079,"Include",10,"Block1"
"KL2012_e2","KL2012_e2_14",1,5,2131,"Include",11,"Block1"
"KL2012_e2","KL2012_e2_14",0,2,1628,"Include",12,"Block1"
"KL2012_e2","KL2012_e2_14",1,2,861,"Include",13,"Block1"
"KL2012_e2","KL2012_e2_14",0,2,1221,"Include",14,"Block1"
"KL2012_e2","KL2012_e2_14",0,3,2295,"Include",15,"Block1"
"KL2012_e2","KL2012_e2_14",1,5,1534,"Include",16,"Block1"
"KL2012_e2","KL2012_e2_14",1,6,1513,"Include",17,"Block1"
"KL2012_e2","KL2012_e2_14",1,2,2510,"Include",18,"Block1"
"KL2012_e2","KL2012_e2_14",1,2,1045,"Include",19,"Block1"
"KL2012_e2","KL2012_e2_14",1,5,2453,"Include",20,"Block1"
"KL2012_e2","KL2012_e2_14",0,2,2220,"Include",21,"Block1"
"KL2012_e2","KL2012_e2_14",1,4,2227,"Include",22,"Block1"
"KL2012_e2","KL2012_e2_14",0,4,4041,"Include",23,"Block1"
"KL2012_e2","KL2012_e2_14",0,2,1952,"Include",24,"Block1"
"KL2012_e2","KL2012_e2_14",0,5,2189,"Include",25,"Block1"
"KL2012_e2","KL2012_e2_14",1,5,2583,"Include",26,"Block1"
"KL2012_e2","KL2012_e2_14",1,3,3934,"Include",27,"Block1"
"KL2012_e2","KL2012_e2_14",0,3,1517,"Include",28,"Block1"
"KL2012_e2","KL2012_e2_14",1,5,1846,"Include",29,"Block1"
"KL2012_e2","KL2012_e2_14",0,2,2277,"Include",30,"Block1"
"KL2012_e2","KL2012_e2_14",0,5,2676,"Include",31,"Block1"
"KL2012_e2","KL2012_e2_14",1,6,1501,"Include",32,"Block1"
"KL2012_e2","KL2012_e2_14",0,2,1955,"Include",33,"Block1"
"KL2012_e2","KL2012_e2_14",1,6,2537,"Include",34,"Block1"
"KL2012_e2","KL2012_e2_14",1,6,1087,"Include",35,"Block1"
"KL2012_e2","KL2012_e2_14",1,4,2068,"Include",36,"Block1"
"KL2012_e2","KL2012_e2_14",0,2,1835,"Include",37,"Block1"
"KL2012_e2","KL2012_e2_14",1,3,2552,"Include",38,"Block1"
"KL2012_e2","KL2012_e2_14",0,3,1170,"Include",39,"Block1"
"KL2012_e2","KL2012_e2_14",0,4,2378,"Include",40,"Block1"
"KL2012_e2","KL2012_e2_14",0,4,1226,"Include",41,"Block1"
"KL2012_e2","KL2012_e2_14",0,2,1812,"Include",42,"Block1"
"KL2012_e2","KL2012_e2_14",0,2,1997,"Include",43,"Block1"
"KL2012_e2","KL2012_e2_14",1,2,965,"Include",44,"Block1"
"KL2012_e2","KL2012_e2_14",1,6,1330,"Include",45,"Block1"
"KL2012_e2","KL2012_e2_14",1,6,1016,"Include",46,"Block1"
"KL2012_e2","KL2012_e2_14",1,2,1379,"Include",47,"Block1"
"KL2012_e2","KL2012_e2_14",0,3,2041,"Include",48,"Block1"
"KL2012_e2","KL2012_e2_14",0,4,2789,"Include",49,"Block1"
"KL2012_e2","KL2012_e2_14",0,2,1396,"Include",50,"Block1"
"KL2012_e2","KL2012_e2_14",0,5,2235,"Include",51,"Block1"
"KL2012_e2","KL2012_e2_14",0,2,2098,"Include",52,"Block1"
"KL2012_e2","KL2012_e2_14",0,3,3493,"Include",53,"Block1"
"KL2012_e2","KL2012_e2_14",0,4,1641,"Include",54,"Block1"
"KL2012_e2","KL2012_e2_14",0,2,1561,"Include",55,"Block1"
"KL2012_e2","KL2012_e2_14",1,6,2418,"Include",56,"Block1"
"KL2012_e2","KL2012_e2_14",0,2,1302,"Include",57,"Block1"
"KL2012_e2","KL2012_e2_14",0,5,2399,"Include",58,"Block1"
"KL2012_e2","KL2012_e2_14",0,3,2062,"Include",59,"Block1"
"KL2012_e2","KL2012_e2_14",1,5,1244,"Include",60,"Block1"
"KL2012_e2","KL2012_e2_14",0,4,1985,"Include",61,"Block1"
"KL2012_e2","KL2012_e2_14",0,3,4037,"Include",62,"Block1"
"KL2012_e2","KL2012_e2_14",0,5,2401,"Include",63,"Block1"
"KL2012_e2","KL2012_e2_14",0,3,2446,"Include",64,"Block1"
"KL2012_e2","KL2012_e2_14",0,2,2726,"Include",65,"Block1"
"KL2012_e2","KL2012_e2_14",1,5,4643,"Include",66,"Block1"
"KL2012_e2","KL2012_e2_14",1,6,3042,"Include",67,"Block1"
"KL2012_e2","KL2012_e2_14",0,2,1716,"Include",68,"Block1"
"KL2012_e2","KL2012_e2_14",0,4,8347,"Include",69,"Block1"
"KL2012_e2","KL2012_e2_14",1,2,1295,"Include",70,"Block1"
"KL2012_e2","KL2012_e2_14",1,2,1998,"Include",71,"Block1"
"KL2012_e2","KL2012_e2_14",0,2,1264,"Include",72,"Block1"
"KL2012_e2","KL2012_e2_14",1,2,706,"Include",73,"Block1"
"KL2012_e2","KL2012_e2_14",1,4,1300,"Include",74,"Block1"
"KL2012_e2","KL2012_e2_14",1,2,1113,"Include",75,"Block1"
"KL2012_e2","KL2012_e2_14",1,4,1617,"Include",76,"Block1"
"KL2012_e2","KL2012_e2_14",1,5,3264,"Include",77,"Block1"
"KL2012_e2","KL2012_e2_14",1,3,1945,"Include",78,"Block1"
"KL2012_e2","KL2012_e2_14",1,3,1132,"Include",79,"Block1"
"KL2012_e2","KL2012_e2_14",0,2,2160,"Include",80,"Block1"
"KL2012_e2","KL2012_e2_14",1,2,858,"Include",81,"Block1"
"KL2012_e2","KL2012_e2_14",0,2,789,"Include",82,"Block1"
"KL2012_e2","KL2012_e2_14",0,4,2082,"Include",83,"Block1"
"KL2012_e2","KL2012_e2_14",1,2,1317,"Include",84,"Block1"
"KL2012_e2","KL2012_e2_14",1,5,3412,"Include",85,"Block1"
"KL2012_e2","KL2012_e2_14",1,4,1527,"Include",86,"Block1"
"KL2012_e2","KL2012_e2_14",1,3,2319,"Include",87,"Block1"
"KL2012_e2","KL2012_e2_14",0,2,1235,"Include",88,"Block1"
"KL2012_e2","KL2012_e2_14",1,5,1922,"Include",89,"Block1"
"KL2012_e2","KL2012_e2_14",1,4,1346,"Include",90,"Block1"
"KL2012_e2","KL2012_e2_14",0,2,1555,"Include",91,"Block1"
"KL2012_e2","KL2012_e2_14",1,3,4946,"Include",92,"Block1"
"KL2012_e2","KL2012_e2_14",0,2,2467,"Include",93,"Block1"
"KL2012_e2","KL2012_e2_14",1,3,2562,"Include",94,"Block1"
"KL2012_e2","KL2012_e2_14",1,3,3867,"Include",95,"Block1"
"KL2012_e2","KL2012_e2_14",0,2,2399,"Include",96,"Block1"
"KL2012_e2","KL2012_e2_15",1,6,2613,"Include",1,"Block1"
"KL2012_e2","KL2012_e2_15",0,1,1654,"Include",2,"Block1"
"KL2012_e2","KL2012_e2_15",1,4,3894,"Include",3,"Block1"
"KL2012_e2","KL2012_e2_15",1,6,2212,"Include",4,"Block1"
"KL2012_e2","KL2012_e2_15",0,1,1524,"Include",5,"Block1"
"KL2012_e2","KL2012_e2_15",1,6,1592,"Include",6,"Block1"
"KL2012_e2","KL2012_e2_15",1,6,1900,"Include",7,"Block1"
"KL2012_e2","KL2012_e2_15",0,4,3331,"Include",8,"Block1"
"KL2012_e2","KL2012_e2_15",1,1,1329,"Include",9,"Block1"
"KL2012_e2","KL2012_e2_15",0,5,2593,"Include",10,"Block1"
"KL2012_e2","KL2012_e2_15",1,6,1892,"Include",11,"Block1"
"KL2012_e2","KL2012_e2_15",0,1,1378,"Include",12,"Block1"
"KL2012_e2","KL2012_e2_15",0,3,2140,"Include",13,"Block1"
"KL2012_e2","KL2012_e2_15",0,2,2127,"Include",14,"Block1"
"KL2012_e2","KL2012_e2_15",0,3,2863,"Include",15,"Block1"
"KL2012_e2","KL2012_e2_15",1,6,1732,"Include",16,"Block1"
"KL2012_e2","KL2012_e2_15",0,5,2279,"Include",17,"Block1"
"KL2012_e2","KL2012_e2_15",0,1,1389,"Include",18,"Block1"
"KL2012_e2","KL2012_e2_15",1,6,1404,"Include",19,"Block1"
"KL2012_e2","KL2012_e2_15",0,1,1660,"Include",20,"Block1"
"KL2012_e2","KL2012_e2_15",1,3,2164,"Include",21,"Block1"
"KL2012_e2","KL2012_e2_15",1,5,3272,"Include",22,"Block1"
"KL2012_e2","KL2012_e2_15",1,6,1055,"Include",23,"Block1"
"KL2012_e2","KL2012_e2_15",0,1,1180,"Include",24,"Block1"
"KL2012_e2","KL2012_e2_15",0,1,4162,"Include",25,"Block1"
"KL2012_e2","KL2012_e2_15",1,6,1391,"Include",26,"Block1"
"KL2012_e2","KL2012_e2_15",0,2,4257,"Include",27,"Block1"
"KL2012_e2","KL2012_e2_15",0,1,2467,"Include",28,"Block1"
"KL2012_e2","KL2012_e2_15",0,1,1167,"Include",29,"Block1"
"KL2012_e2","KL2012_e2_15",0,3,2169,"Include",30,"Block1"
"KL2012_e2","KL2012_e2_15",0,5,3042,"Include",31,"Block1"
"KL2012_e2","KL2012_e2_15",0,4,2769,"Include",32,"Block1"
"KL2012_e2","KL2012_e2_15",1,6,1352,"Include",33,"Block1"
"KL2012_e2","KL2012_e2_15",0,6,828,"Include",34,"Block1"
"KL2012_e2","KL2012_e2_15",1,5,1503,"Include",35,"Block1"
"KL2012_e2","KL2012_e2_15",1,6,908,"Include",36,"Block1"
"KL2012_e2","KL2012_e2_15",1,3,3697,"Include",37,"Block1"
"KL2012_e2","KL2012_e2_15",0,2,2722,"Include",38,"Block1"
"KL2012_e2","KL2012_e2_15",1,3,5101,"Include",39,"Block1"
"KL2012_e2","KL2012_e2_15",1,4,2199,"Include",40,"Block1"
"KL2012_e2","KL2012_e2_15",1,4,2626,"Include",41,"Block1"
"KL2012_e2","KL2012_e2_15",0,2,3437,"Include",42,"Block1"
"KL2012_e2","KL2012_e2_15",0,2,4103,"Include",43,"Block1"
"KL2012_e2","KL2012_e2_15",1,6,2364,"Include",44,"Block1"
"KL2012_e2","KL2012_e2_15",1,5,1443,"Include",45,"Block1"
"KL2012_e2","KL2012_e2_15",1,6,824,"Include",46,"Block1"
"KL2012_e2","KL2012_e2_15",0,1,1720,"Include",47,"Block1"
"KL2012_e2","KL2012_e2_15",0,2,1437,"Include",48,"Block1"
"KL2012_e2","KL2012_e2_15",1,6,1333,"Include",49,"Block1"
"KL2012_e2","KL2012_e2_15",0,1,1519,"Include",50,"Block1"
"KL2012_e2","KL2012_e2_15",0,4,2704,"Include",51,"Block1"
"KL2012_e2","KL2012_e2_15",1,1,1102,"Include",52,"Block1"
"KL2012_e2","KL2012_e2_15",0,1,1427,"Include",53,"Block1"
"KL2012_e2","KL2012_e2_15",1,2,4844,"Include",54,"Block1"
"KL2012_e2","KL2012_e2_15",1,6,1155,"Include",55,"Block1"
"KL2012_e2","KL2012_e2_15",1,6,831,"Include",56,"Block1"
"KL2012_e2","KL2012_e2_15",0,1,1580,"Include",57,"Block1"
"KL2012_e2","KL2012_e2_15",0,1,1008,"Include",58,"Block1"
"KL2012_e2","KL2012_e2_15",0,1,942,"Include",59,"Block1"
"KL2012_e2","KL2012_e2_15",1,2,2331,"Include",60,"Block1"
"KL2012_e2","KL2012_e2_15",1,6,2056,"Include",61,"Block1"
"KL2012_e2","KL2012_e2_15",0,2,1830,"Include",62,"Block1"
"KL2012_e2","KL2012_e2_15",0,2,5206,"Include",63,"Block1"
"KL2012_e2","KL2012_e2_15",0,2,2442,"Include",64,"Block1"
"KL2012_e2","KL2012_e2_15",0,3,1639,"Include",65,"Block1"
"KL2012_e2","KL2012_e2_15",0,1,2757,"Include",66,"Block1"
"KL2012_e2","KL2012_e2_15",1,6,1218,"Include",67,"Block1"
"KL2012_e2","KL2012_e2_15",1,2,3471,"Include",68,"Block1"
"KL2012_e2","KL2012_e2_15",1,5,2180,"Include",69,"Block1"
"KL2012_e2","KL2012_e2_15",0,4,2631,"Include",70,"Block1"
"KL2012_e2","KL2012_e2_15",0,3,1455,"Include",71,"Block1"
"KL2012_e2","KL2012_e2_15",1,4,1916,"Include",72,"Block1"
"KL2012_e2","KL2012_e2_15",1,3,8780,"Include",73,"Block1"
"KL2012_e2","KL2012_e2_15",1,6,2691,"Include",74,"Block1"
"KL2012_e2","KL2012_e2_15",0,4,2623,"Include",75,"Block1"
"KL2012_e2","KL2012_e2_15",1,6,1110,"Include",76,"Block1"
"KL2012_e2","KL2012_e2_15",0,3,2242,"Include",77,"Block1"
"KL2012_e2","KL2012_e2_15",1,6,2660,"Include",78,"Block1"
"KL2012_e2","KL2012_e2_15",0,1,1269,"Include",79,"Block1"
"KL2012_e2","KL2012_e2_15",1,5,2126,"Include",80,"Block1"
"KL2012_e2","KL2012_e2_15",1,6,913,"Include",81,"Block1"
"KL2012_e2","KL2012_e2_15",0,2,1747,"Include",82,"Block1"
"KL2012_e2","KL2012_e2_15",0,1,1463,"Include",83,"Block1"
"KL2012_e2","KL2012_e2_15",0,2,1480,"Include",84,"Block1"
"KL2012_e2","KL2012_e2_15",1,6,1457,"Include",85,"Block1"
"KL2012_e2","KL2012_e2_15",1,5,2613,"Include",86,"Block1"
"KL2012_e2","KL2012_e2_15",0,3,3612,"Include",87,"Block1"
"KL2012_e2","KL2012_e2_15",1,5,1771,"Include",88,"Block1"
"KL2012_e2","KL2012_e2_15",1,4,1546,"Include",89,"Block1"
"KL2012_e2","KL2012_e2_15",1,3,1478,"Include",90,"Block1"
"KL2012_e2","KL2012_e2_15",0,5,2510,"Include",91,"Block1"
"KL2012_e2","KL2012_e2_15",1,5,3519,"Include",92,"Block1"
"KL2012_e2","KL2012_e2_15",0,1,1776,"Include",93,"Block1"
"KL2012_e2","KL2012_e2_15",1,6,1225,"Include",94,"Block1"
"KL2012_e2","KL2012_e2_15",1,3,2956,"Include",95,"Block1"
"KL2012_e2","KL2012_e2_15",0,2,4421,"Include",96,"Block1"
"KL2012_e2","KL2012_e2_16",1,5,16247,"Include",1,"Block1"
"KL2012_e2","KL2012_e2_16",0,5,4574,"Include",2,"Block1"
"KL2012_e2","KL2012_e2_16",1,5,1822,"Include",3,"Block1"
"KL2012_e2","KL2012_e2_16",1,5,3317,"Include",4,"Block1"
"KL2012_e2","KL2012_e2_16",0,2,4604,"Include",5,"Block1"
"KL2012_e2","KL2012_e2_16",1,4,6461,"Include",6,"Block1"
"KL2012_e2","KL2012_e2_16",1,5,7384,"Include",7,"Block1"
"KL2012_e2","KL2012_e2_16",0,5,6302,"Include",8,"Block1"
"KL2012_e2","KL2012_e2_16",1,6,2381,"Include",9,"Block1"
"KL2012_e2","KL2012_e2_16",0,5,6075,"Include",10,"Block1"
"KL2012_e2","KL2012_e2_16",0,3,6549,"Include",11,"Block1"
"KL2012_e2","KL2012_e2_16",0,2,3904,"Include",12,"Block1"
"KL2012_e2","KL2012_e2_16",0,5,2208,"Include",13,"Block1"
"KL2012_e2","KL2012_e2_16",0,6,5036,"Include",14,"Block1"
"KL2012_e2","KL2012_e2_16",0,2,4173,"Include",15,"Block1"
"KL2012_e2","KL2012_e2_16",0,2,1754,"Include",16,"Block1"
"KL2012_e2","KL2012_e2_16",1,5,5746,"Include",17,"Block1"
"KL2012_e2","KL2012_e2_16",0,2,1846,"Include",18,"Block1"
"KL2012_e2","KL2012_e2_16",1,5,2195,"Include",19,"Block1"
"KL2012_e2","KL2012_e2_16",1,2,4727,"Include",20,"Block1"
"KL2012_e2","KL2012_e2_16",1,2,1604,"Include",21,"Block1"
"KL2012_e2","KL2012_e2_16",1,6,2000,"Include",22,"Block1"
"KL2012_e2","KL2012_e2_16",1,5,3603,"Include",23,"Block1"
"KL2012_e2","KL2012_e2_16",1,6,1145,"Include",24,"Block1"
"KL2012_e2","KL2012_e2_16",1,6,3594,"Include",25,"Block1"
"KL2012_e2","KL2012_e2_16",1,5,6846,"Include",26,"Block1"
"KL2012_e2","KL2012_e2_16",1,2,1319,"Include",27,"Block1"
"KL2012_e2","KL2012_e2_16",0,2,2696,"Include",28,"Block1"
"KL2012_e2","KL2012_e2_16",1,1,3566,"Include",29,"Block1"
"KL2012_e2","KL2012_e2_16",0,4,5901,"Include",30,"Block1"
"KL2012_e2","KL2012_e2_16",0,2,2681,"Include",31,"Block1"
"KL2012_e2","KL2012_e2_16",1,2,1430,"Include",32,"Block1"
"KL2012_e2","KL2012_e2_16",1,2,1375,"Include",33,"Block1"
"KL2012_e2","KL2012_e2_16",0,2,1296,"Include",34,"Block1"
"KL2012_e2","KL2012_e2_16",0,2,1173,"Include",35,"Block1"
"KL2012_e2","KL2012_e2_16",0,2,1511,"Include",36,"Block1"
"KL2012_e2","KL2012_e2_16",1,2,4829,"Include",37,"Block1"
"KL2012_e2","KL2012_e2_16",1,2,1705,"Include",38,"Block1"
"KL2012_e2","KL2012_e2_16",0,2,1230,"Include",39,"Block1"
"KL2012_e2","KL2012_e2_16",1,3,6859,"Include",40,"Block1"
"KL2012_e2","KL2012_e2_16",1,5,3324,"Include",41,"Block1"
"KL2012_e2","KL2012_e2_16",0,2,1391,"Include",42,"Block1"
"KL2012_e2","KL2012_e2_16",1,3,2362,"Include",43,"Block1"
"KL2012_e2","KL2012_e2_16",1,4,6665,"Include",44,"Block1"
"KL2012_e2","KL2012_e2_16",0,2,2634,"Include",45,"Block1"
"KL2012_e2","KL2012_e2_16",1,3,3188,"Include",46,"Block1"
"KL2012_e2","KL2012_e2_16",0,2,1735,"Include",47,"Block1"
"KL2012_e2","KL2012_e2_16",1,5,3299,"Include",48,"Block1"
"KL2012_e2","KL2012_e2_16",1,3,4193,"Include",49,"Block1"
"KL2012_e2","KL2012_e2_16",0,4,9067,"Include",50,"Block1"
"KL2012_e2","KL2012_e2_16",0,3,4357,"Include",51,"Block1"
"KL2012_e2","KL2012_e2_16",0,4,3607,"Include",52,"Block1"
"KL2012_e2","KL2012_e2_16",0,3,3677,"Include",53,"Block1"
"KL2012_e2","KL2012_e2_16",1,3,3354,"Include",54,"Block1"
"KL2012_e2","KL2012_e2_16",1,5,1633,"Include",55,"Block1"
"KL2012_e2","KL2012_e2_16",0,2,3035,"Include",56,"Block1"
"KL2012_e2","KL2012_e2_16",1,3,2716,"Include",57,"Block1"
"KL2012_e2","KL2012_e2_16",1,3,3324,"Include",58,"Block1"
"KL2012_e2","KL2012_e2_16",0,3,3195,"Include",59,"Block1"
"KL2012_e2","KL2012_e2_16",0,3,5191,"Include",60,"Block1"
"KL2012_e2","KL2012_e2_16",0,3,3309,"Include",61,"Block1"
"KL2012_e2","KL2012_e2_16",1,3,2631,"Include",62,"Block1"
"KL2012_e2","KL2012_e2_16",0,2,4364,"Include",63,"Block1"
"KL2012_e2","KL2012_e2_16",1,5,3792,"Include",64,"Block1"
"KL2012_e2","KL2012_e2_16",1,6,5987,"Include",65,"Block1"
"KL2012_e2","KL2012_e2_16",0,3,4514,"Include",66,"Block1"
"KL2012_e2","KL2012_e2_16",1,5,4001,"Include",67,"Block1"
"KL2012_e2","KL2012_e2_16",0,3,1972,"Include",68,"Block1"
"KL2012_e2","KL2012_e2_16",1,5,1317,"Include",69,"Block1"
"KL2012_e2","KL2012_e2_16",0,3,3916,"Include",70,"Block1"
"KL2012_e2","KL2012_e2_16",1,2,4091,"Include",71,"Block1"
"KL2012_e2","KL2012_e2_16",0,4,2524,"Include",72,"Block1"
"KL2012_e2","KL2012_e2_16",1,4,3391,"Include",73,"Block1"
"KL2012_e2","KL2012_e2_16",0,2,4812,"Include",74,"Block1"
"KL2012_e2","KL2012_e2_16",1,3,3745,"Include",75,"Block1"
"KL2012_e2","KL2012_e2_16",0,3,1993,"Include",76,"Block1"
"KL2012_e2","KL2012_e2_16",1,5,2787,"Include",77,"Block1"
"KL2012_e2","KL2012_e2_16",1,2,2744,"Include",78,"Block1"
"KL2012_e2","KL2012_e2_16",0,3,3363,"Include",79,"Block1"
"KL2012_e2","KL2012_e2_16",0,3,3040,"Include",80,"Block1"
"KL2012_e2","KL2012_e2_16",1,3,3415,"Include",81,"Block1"
"KL2012_e2","KL2012_e2_16",0,2,1661,"Include",82,"Block1"
"KL2012_e2","KL2012_e2_16",0,4,2513,"Include",83,"Block1"
"KL2012_e2","KL2012_e2_16",0,4,1973,"Include",84,"Block1"
"KL2012_e2","KL2012_e2_16",0,3,1570,"Include",85,"Block1"
"KL2012_e2","KL2012_e2_16",0,3,2470,"Include",86,"Block1"
"KL2012_e2","KL2012_e2_16",0,3,2966,"Include",87,"Block1"
"KL2012_e2","KL2012_e2_16",0,3,1740,"Include",88,"Block1"
"KL2012_e2","KL2012_e2_16",1,5,2793,"Include",89,"Block1"
"KL2012_e2","KL2012_e2_16",0,3,3528,"Include",90,"Block1"
"KL2012_e2","KL2012_e2_16",1,4,2952,"Include",91,"Block1"
"KL2012_e2","KL2012_e2_16",1,4,2379,"Include",92,"Block1"
"KL2012_e2","KL2012_e2_16",1,5,1354,"Include",93,"Block1"
"KL2012_e2","KL2012_e2_16",0,3,7361,"Include",94,"Block1"
"KL2012_e2","KL2012_e2_16",1,4,1927,"Include",95,"Block1"
"KL2012_e2","KL2012_e2_16",0,2,1729,"Include",96,"Block1"
"KL2012_e2","KL2012_e2_17",1,2,3512,"Include",1,"Block1"
"KL2012_e2","KL2012_e2_17",1,6,1390,"Include",2,"Block1"
"KL2012_e2","KL2012_e2_17",0,3,2346,"Include",3,"Block1"
"KL2012_e2","KL2012_e2_17",1,6,1455,"Include",4,"Block1"
"KL2012_e2","KL2012_e2_17",0,1,1487,"Include",5,"Block1"
"KL2012_e2","KL2012_e2_17",1,6,1061,"Include",6,"Block1"
"KL2012_e2","KL2012_e2_17",1,6,862,"Include",7,"Block1"
"KL2012_e2","KL2012_e2_17",0,5,2001,"Include",8,"Block1"
"KL2012_e2","KL2012_e2_17",0,3,2412,"Include",9,"Block1"
"KL2012_e2","KL2012_e2_17",1,2,2863,"Include",10,"Block1"
"KL2012_e2","KL2012_e2_17",0,2,1834,"Include",11,"Block1"
"KL2012_e2","KL2012_e2_17",0,1,1874,"Include",12,"Block1"
"KL2012_e2","KL2012_e2_17",0,5,2272,"Include",13,"Block1"
"KL2012_e2","KL2012_e2_17",1,3,2496,"Include",14,"Block1"
"KL2012_e2","KL2012_e2_17",1,5,1484,"Include",15,"Block1"
"KL2012_e2","KL2012_e2_17",0,4,2894,"Include",16,"Block1"
"KL2012_e2","KL2012_e2_17",1,6,1951,"Include",17,"Block1"
"KL2012_e2","KL2012_e2_17",0,5,2329,"Include",18,"Block1"
"KL2012_e2","KL2012_e2_17",1,3,3522,"Include",19,"Block1"
"KL2012_e2","KL2012_e2_17",1,5,1379,"Include",20,"Block1"
"KL2012_e2","KL2012_e2_17",1,6,1060,"Include",21,"Block1"
"KL2012_e2","KL2012_e2_17",1,6,2445,"Include",22,"Block1"
"KL2012_e2","KL2012_e2_17",1,6,1447,"Include",23,"Block1"
"KL2012_e2","KL2012_e2_17",0,5,1659,"Include",24,"Block1"
"KL2012_e2","KL2012_e2_17",0,3,2251,"Include",25,"Block1"
"KL2012_e2","KL2012_e2_17",1,5,1609,"Include",26,"Block1"
"KL2012_e2","KL2012_e2_17",0,5,2132,"Include",27,"Block1"
"KL2012_e2","KL2012_e2_17",0,3,1490,"Include",28,"Block1"
"KL2012_e2","KL2012_e2_17",0,1,3158,"Include",29,"Block1"
"KL2012_e2","KL2012_e2_17",1,6,3528,"Include",30,"Block1"
"KL2012_e2","KL2012_e2_17",0,5,6060,"Include",31,"Block1"
"KL2012_e2","KL2012_e2_17",1,6,2713,"Include",32,"Block1"
"KL2012_e2","KL2012_e2_17",1,6,868,"Include",33,"Block1"
"KL2012_e2","KL2012_e2_17",1,3,2767,"Include",34,"Block1"
"KL2012_e2","KL2012_e2_17",1,6,1962,"Include",35,"Block1"
"KL2012_e2","KL2012_e2_17",1,6,1192,"Include",36,"Block1"
"KL2012_e2","KL2012_e2_17",1,5,4224,"Include",37,"Block1"
"KL2012_e2","KL2012_e2_17",0,6,1258,"Include",38,"Block1"
"KL2012_e2","KL2012_e2_17",1,6,989,"Include",39,"Block1"
"KL2012_e2","KL2012_e2_17",0,6,2545,"Include",40,"Block1"
"KL2012_e2","KL2012_e2_17",0,1,2044,"Include",41,"Block1"
"KL2012_e2","KL2012_e2_17",1,6,3292,"Include",42,"Block1"
"KL2012_e2","KL2012_e2_17",0,3,3023,"Include",43,"Block1"
"KL2012_e2","KL2012_e2_17",1,6,1329,"Include",44,"Block1"
"KL2012_e2","KL2012_e2_17",1,4,3705,"Include",45,"Block1"
"KL2012_e2","KL2012_e2_17",0,1,1482,"Include",46,"Block1"
"KL2012_e2","KL2012_e2_17",1,2,1683,"Include",47,"Block1"
"KL2012_e2","KL2012_e2_17",1,3,2269,"Include",48,"Block1"
"KL2012_e2","KL2012_e2_17",0,2,5205,"Include",49,"Block1"
"KL2012_e2","KL2012_e2_17",0,5,4201,"Include",50,"Block1"
"KL2012_e2","KL2012_e2_17",1,6,1109,"Include",51,"Block1"
"KL2012_e2","KL2012_e2_17",0,3,3288,"Include",52,"Block1"
"KL2012_e2","KL2012_e2_17",1,6,1463,"Include",53,"Block1"
"KL2012_e2","KL2012_e2_17",0,5,2645,"Include",54,"Block1"
"KL2012_e2","KL2012_e2_17",1,6,1217,"Include",55,"Block1"
"KL2012_e2","KL2012_e2_17",1,2,3039,"Include",56,"Block1"
"KL2012_e2","KL2012_e2_17",1,6,2529,"Include",57,"Block1"
"KL2012_e2","KL2012_e2_17",0,1,1816,"Include",58,"Block1"
"KL2012_e2","KL2012_e2_17",1,6,1091,"Include",59,"Block1"
"KL2012_e2","KL2012_e2_17",1,6,3217,"Include",60,"Block1"
"KL2012_e2","KL2012_e2_17",0,4,3060,"Include",61,"Block1"
"KL2012_e2","KL2012_e2_17",0,1,1422,"Include",62,"Block1"
"KL2012_e2","KL2012_e2_17",0,1,1741,"Include",63,"Block1"
"KL2012_e2","KL2012_e2_17",1,6,1341,"Include",64,"Block1"
"KL2012_e2","KL2012_e2_17",0,6,1304,"Include",65,"Block1"
"KL2012_e2","KL2012_e2_17",0,6,1400,"Include",66,"Block1"
"KL2012_e2","KL2012_e2_17",1,6,1455,"Include",67,"Block1"
"KL2012_e2","KL2012_e2_17",0,2,1620,"Include",68,"Block1"
"KL2012_e2","KL2012_e2_17",0,1,1676,"Include",69,"Block1"
"KL2012_e2","KL2012_e2_17",0,5,1363,"Include",70,"Block1"
"KL2012_e2","KL2012_e2_17",1,6,1398,"Include",71,"Block1"
"KL2012_e2","KL2012_e2_17",1,6,1154,"Include",72,"Block1"
"KL2012_e2","KL2012_e2_17",0,6,1108,"Include",73,"Block1"
"KL2012_e2","KL2012_e2_17",0,1,1532,"Include",74,"Block1"
"KL2012_e2","KL2012_e2_17",0,5,1845,"Include",75,"Block1"
"KL2012_e2","KL2012_e2_17",0,3,2125,"Include",76,"Block1"
"KL2012_e2","KL2012_e2_17",0,4,1266,"Include",77,"Block1"
"KL2012_e2","KL2012_e2_17",1,6,5125,"Include",78,"Block1"
"KL2012_e2","KL2012_e2_17",0,5,3184,"Include",79,"Block1"
"KL2012_e2","KL2012_e2_17",0,2,1441,"Include",80,"Block1"
"KL2012_e2","KL2012_e2_17",0,1,1280,"Include",81,"Block1"
"KL2012_e2","KL2012_e2_17",1,5,1731,"Include",82,"Block1"
"KL2012_e2","KL2012_e2_17",0,6,971,"Include",83,"Block1"
"KL2012_e2","KL2012_e2_17",0,6,1202,"Include",84,"Block1"
"KL2012_e2","KL2012_e2_17",1,6,1214,"Include",85,"Block1"
"KL2012_e2","KL2012_e2_17",0,4,2158,"Include",86,"Block1"
"KL2012_e2","KL2012_e2_17",1,4,3348,"Include",87,"Block1"
"KL2012_e2","KL2012_e2_17",0,4,2698,"Include",88,"Block1"
"KL2012_e2","KL2012_e2_17",1,3,1287,"Include",89,"Block1"
"KL2012_e2","KL2012_e2_17",1,4,1936,"Include",90,"Block1"
"KL2012_e2","KL2012_e2_17",0,4,1465,"Include",91,"Block1"
"KL2012_e2","KL2012_e2_17",0,2,2129,"Include",92,"Block1"
"KL2012_e2","KL2012_e2_17",0,3,3435,"Include",93,"Block1"
"KL2012_e2","KL2012_e2_17",1,2,3150,"Include",94,"Block1"
"KL2012_e2","KL2012_e2_17",1,6,1393,"Include",95,"Block1"
"KL2012_e2","KL2012_e2_17",1,6,2591,"Include",96,"Block1"
"KL2012_e2","KL2012_e2_18",1,6,2601,"Include",1,"Block1"
"KL2012_e2","KL2012_e2_18",1,4,2230,"Include",2,"Block1"
"KL2012_e2","KL2012_e2_18",1,6,1691,"Include",3,"Block1"
"KL2012_e2","KL2012_e2_18",0,3,2958,"Include",4,"Block1"
"KL2012_e2","KL2012_e2_18",0,3,1886,"Include",5,"Block1"
"KL2012_e2","KL2012_e2_18",1,6,1246,"Include",6,"Block1"
"KL2012_e2","KL2012_e2_18",1,6,1324,"Include",7,"Block1"
"KL2012_e2","KL2012_e2_18",1,6,965,"Include",8,"Block1"
"KL2012_e2","KL2012_e2_18",1,6,882,"Include",9,"Block1"
"KL2012_e2","KL2012_e2_18",1,6,999,"Include",10,"Block1"
"KL2012_e2","KL2012_e2_18",1,6,818,"Include",11,"Block1"
"KL2012_e2","KL2012_e2_18",0,2,1654,"Include",12,"Block1"
"KL2012_e2","KL2012_e2_18",0,2,1438,"Include",13,"Block1"
"KL2012_e2","KL2012_e2_18",1,6,1077,"Include",14,"Block1"
"KL2012_e2","KL2012_e2_18",1,6,1077,"Include",15,"Block1"
"KL2012_e2","KL2012_e2_18",1,6,1006,"Include",16,"Block1"
"KL2012_e2","KL2012_e2_18",1,6,1369,"Include",17,"Block1"
"KL2012_e2","KL2012_e2_18",0,2,1803,"Include",18,"Block1"
"KL2012_e2","KL2012_e2_18",0,2,1563,"Include",19,"Block1"
"KL2012_e2","KL2012_e2_18",0,3,2720,"Include",20,"Block1"
"KL2012_e2","KL2012_e2_18",0,3,1517,"Include",21,"Block1"
"KL2012_e2","KL2012_e2_18",1,5,1762,"Include",22,"Block1"
"KL2012_e2","KL2012_e2_18",0,3,1753,"Include",23,"Block1"
"KL2012_e2","KL2012_e2_18",0,4,1485,"Include",24,"Block1"
"KL2012_e2","KL2012_e2_18",0,2,2800,"Include",25,"Block1"
"KL2012_e2","KL2012_e2_18",1,6,1309,"Include",26,"Block1"
"KL2012_e2","KL2012_e2_18",1,6,872,"Include",27,"Block1"
"KL2012_e2","KL2012_e2_18",0,3,1888,"Include",28,"Block1"
"KL2012_e2","KL2012_e2_18",0,5,1632,"Include",29,"Block1"
"KL2012_e2","KL2012_e2_18",1,6,1012,"Include",30,"Block1"
"KL2012_e2","KL2012_e2_18",0,4,1778,"Include",31,"Block1"
"KL2012_e2","KL2012_e2_18",0,5,2063,"Include",32,"Block1"
"KL2012_e2","KL2012_e2_18",0,2,1451,"Include",33,"Block1"
"KL2012_e2","KL2012_e2_18",0,2,1301,"Include",34,"Block1"
"KL2012_e2","KL2012_e2_18",0,5,2528,"Include",35,"Block1"
"KL2012_e2","KL2012_e2_18",0,2,1545,"Include",36,"Block1"
"KL2012_e2","KL2012_e2_18",0,5,1924,"Include",37,"Block1"
"KL2012_e2","KL2012_e2_18",1,6,851,"Include",38,"Block1"
"KL2012_e2","KL2012_e2_18",1,6,1154,"Include",39,"Block1"
"KL2012_e2","KL2012_e2_18",1,5,1364,"Include",40,"Block1"
"KL2012_e2","KL2012_e2_18",0,3,1705,"Include",41,"Block1"
"KL2012_e2","KL2012_e2_18",0,2,1459,"Include",42,"Block1"
"KL2012_e2","KL2012_e2_18",1,6,1481,"Include",43,"Block1"
"KL2012_e2","KL2012_e2_18",1,6,1194,"Include",44,"Block1"
"KL2012_e2","KL2012_e2_18",0,2,1691,"Include",45,"Block1"
"KL2012_e2","KL2012_e2_18",0,3,1531,"Include",46,"Block1"
"KL2012_e2","KL2012_e2_18",1,3,1508,"Include",47,"Block1"
"KL2012_e2","KL2012_e2_18",1,5,1545,"Include",48,"Block1"
"KL2012_e2","KL2012_e2_18",1,5,2175,"Include",49,"Block1"
"KL2012_e2","KL2012_e2_18",0,3,1319,"Include",50,"Block1"
"KL2012_e2","KL2012_e2_18",0,2,1144,"Include",51,"Block1"
"KL2012_e2","KL2012_e2_18",1,6,885,"Include",52,"Block1"
"KL2012_e2","KL2012_e2_18",1,6,3858,"Include",53,"Block1"
"KL2012_e2","KL2012_e2_18",0,2,1957,"Include",54,"Block1"
"KL2012_e2","KL2012_e2_18",1,4,2450,"Include",55,"Block1"
"KL2012_e2","KL2012_e2_18",0,3,2324,"Include",56,"Block1"
"KL2012_e2","KL2012_e2_18",0,5,2227,"Include",57,"Block1"
"KL2012_e2","KL2012_e2_18",1,6,1673,"Include",58,"Block1"
"KL2012_e2","KL2012_e2_18",1,6,1487,"Include",59,"Block1"
"KL2012_e2","KL2012_e2_18",0,2,2284,"Include",60,"Block1"
"KL2012_e2","KL2012_e2_18",0,2,1858,"Include",61,"Block1"
"KL2012_e2","KL2012_e2_18",0,3,1560,"Include",62,"Block1"
"KL2012_e2","KL2012_e2_18",1,6,957,"Include",63,"Block1"
"KL2012_e2","KL2012_e2_18",1,6,811,"Include",64,"Block1"
"KL2012_e2","KL2012_e2_18",1,4,1509,"Include",65,"Block1"
"KL2012_e2","KL2012_e2_18",0,3,2605,"Include",66,"Block1"
"KL2012_e2","KL2012_e2_18",0,2,1117,"Include",67,"Block1"
"KL2012_e2","KL2012_e2_18",1,6,1740,"Include",68,"Block1"
"KL2012_e2","KL2012_e2_18",0,2,1524,"Include",69,"Block1"
"KL2012_e2","KL2012_e2_18",1,4,3047,"Include",70,"Block1"
"KL2012_e2","KL2012_e2_18",1,5,1874,"Include",71,"Block1"
"KL2012_e2","KL2012_e2_18",0,2,3098,"Include",72,"Block1"
"KL2012_e2","KL2012_e2_18",1,6,955,"Include",73,"Block1"
"KL2012_e2","KL2012_e2_18",1,5,1415,"Include",74,"Block1"
"KL2012_e2","KL2012_e2_18",0,3,1625,"Include",75,"Block1"
"KL2012_e2","KL2012_e2_18",0,2,1416,"Include",76,"Block1"
"KL2012_e2","KL2012_e2_18",0,2,1443,"Include",77,"Block1"
"KL2012_e2","KL2012_e2_18",0,2,1655,"Include",78,"Block1"
"KL2012_e2","KL2012_e2_18",0,3,1523,"Include",79,"Block1"
"KL2012_e2","KL2012_e2_18",1,6,1432,"Include",80,"Block1"
"KL2012_e2","KL2012_e2_18",1,6,945,"Include",81,"Block1"
"KL2012_e2","KL2012_e2_18",1,4,1568,"Include",82,"Block1"
"KL2012_e2","KL2012_e2_18",0,2,1380,"Include",83,"Block1"
"KL2012_e2","KL2012_e2_18",1,2,2262,"Include",84,"Block1"
"KL2012_e2","KL2012_e2_18",0,3,1317,"Include",85,"Block1"
"KL2012_e2","KL2012_e2_18",0,2,1865,"Include",86,"Block1"
"KL2012_e2","KL2012_e2_18",0,3,1521,"Include",87,"Block1"
"KL2012_e2","KL2012_e2_18",1,6,1057,"Include",88,"Block1"
"KL2012_e2","KL2012_e2_18",1,4,1528,"Include",89,"Block1"
"KL2012_e2","KL2012_e2_18",1,6,1868,"Include",90,"Block1"
"KL2012_e2","KL2012_e2_18",1,6,1282,"Include",91,"Block1"
"KL2012_e2","KL2012_e2_18",0,5,2266,"Include",92,"Block1"
"KL2012_e2","KL2012_e2_18",0,3,2160,"Include",93,"Block1"
"KL2012_e2","KL2012_e2_18",0,3,1108,"Include",94,"Block1"
"KL2012_e2","KL2012_e2_18",1,4,1400,"Include",95,"Block1"
"KL2012_e2","KL2012_e2_18",1,6,1058,"Include",96,"Block1"
"KL2012_e2","KL2012_e2_19",0,3,8055,"Include",1,"Block1"
"KL2012_e2","KL2012_e2_19",0,4,8566,"Include",2,"Block1"
"KL2012_e2","KL2012_e2_19",1,5,2728,"Include",3,"Block1"
"KL2012_e2","KL2012_e2_19",1,5,2321,"Include",4,"Block1"
"KL2012_e2","KL2012_e2_19",1,6,1630,"Include",5,"Block1"
"KL2012_e2","KL2012_e2_19",0,4,2415,"Include",6,"Block1"
"KL2012_e2","KL2012_e2_19",0,3,5595,"Include",7,"Block1"
"KL2012_e2","KL2012_e2_19",0,4,3034,"Include",8,"Block1"
"KL2012_e2","KL2012_e2_19",0,5,1702,"Include",9,"Block1"
"KL2012_e2","KL2012_e2_19",1,6,1572,"Include",10,"Block1"
"KL2012_e2","KL2012_e2_19",1,6,1182,"Include",11,"Block1"
"KL2012_e2","KL2012_e2_19",0,1,4079,"Include",12,"Block1"
"KL2012_e2","KL2012_e2_19",1,5,2543,"Include",13,"Block1"
"KL2012_e2","KL2012_e2_19",0,2,3072,"Include",14,"Block1"
"KL2012_e2","KL2012_e2_19",1,6,1486,"Include",15,"Block1"
"KL2012_e2","KL2012_e2_19",1,5,1902,"Include",16,"Block1"
"KL2012_e2","KL2012_e2_19",0,2,2694,"Include",17,"Block1"
"KL2012_e2","KL2012_e2_19",0,2,3972,"Include",18,"Block1"
"KL2012_e2","KL2012_e2_19",0,1,2690,"Include",19,"Block1"
"KL2012_e2","KL2012_e2_19",0,4,3010,"Include",20,"Block1"
"KL2012_e2","KL2012_e2_19",0,5,1587,"Include",21,"Block1"
"KL2012_e2","KL2012_e2_19",1,6,1755,"Include",22,"Block1"
"KL2012_e2","KL2012_e2_19",1,5,2570,"Include",23,"Block1"
"KL2012_e2","KL2012_e2_19",1,6,2903,"Include",24,"Block1"
"KL2012_e2","KL2012_e2_19",0,2,2256,"Include",25,"Block1"
"KL2012_e2","KL2012_e2_19",0,1,1904,"Include",26,"Block1"
"KL2012_e2","KL2012_e2_19",1,6,1235,"Include",27,"Block1"
"KL2012_e2","KL2012_e2_19",1,6,1103,"Include",28,"Block1"
"KL2012_e2","KL2012_e2_19",0,1,3247,"Include",29,"Block1"
"KL2012_e2","KL2012_e2_19",0,2,2573,"Include",30,"Block1"
"KL2012_e2","KL2012_e2_19",0,2,3078,"Include",31,"Block1"
"KL2012_e2","KL2012_e2_19",1,2,2270,"Include",32,"Block1"
"KL2012_e2","KL2012_e2_19",1,2,1710,"Include",33,"Block1"
"KL2012_e2","KL2012_e2_19",1,4,7570,"Include",34,"Block1"
"KL2012_e2","KL2012_e2_19",0,1,1687,"Include",35,"Block1"
"KL2012_e2","KL2012_e2_19",0,2,2697,"Include",36,"Block1"
"KL2012_e2","KL2012_e2_19",0,3,4717,"Include",37,"Block1"
"KL2012_e2","KL2012_e2_19",1,5,2463,"Include",38,"Block1"
"KL2012_e2","KL2012_e2_19",0,2,1995,"Include",39,"Block1"
"KL2012_e2","KL2012_e2_19",1,6,1529,"Include",40,"Block1"
"KL2012_e2","KL2012_e2_19",0,4,2794,"Include",41,"Block1"
"KL2012_e2","KL2012_e2_19",0,3,2991,"Include",42,"Block1"
"KL2012_e2","KL2012_e2_19",0,3,3237,"Include",43,"Block1"
"KL2012_e2","KL2012_e2_19",0,3,4790,"Include",44,"Block1"
"KL2012_e2","KL2012_e2_19",0,2,3582,"Include",45,"Block1"
"KL2012_e2","KL2012_e2_19",1,3,1850,"Include",46,"Block1"
"KL2012_e2","KL2012_e2_19",1,6,2835,"Include",47,"Block1"
"KL2012_e2","KL2012_e2_19",1,5,2137,"Include",48,"Block1"
"KL2012_e2","KL2012_e2_19",1,2,2479,"Include",49,"Block1"
"KL2012_e2","KL2012_e2_19",1,6,1778,"Include",50,"Block1"
"KL2012_e2","KL2012_e2_19",0,2,5569,"Include",51,"Block1"
"KL2012_e2","KL2012_e2_19",1,6,1297,"Include",52,"Block1"
"KL2012_e2","KL2012_e2_19",0,3,4403,"Include",53,"Block1"
"KL2012_e2","KL2012_e2_19",1,5,1977,"Include",54,"Block1"
"KL2012_e2","KL2012_e2_19",0,2,3835,"Include",55,"Block1"
"KL2012_e2","KL2012_e2_19",1,6,2088,"Include",56,"Block1"
"KL2012_e2","KL2012_e2_19",0,3,3932,"Include",57,"Block1"
"KL2012_e2","KL2012_e2_19",1,4,4876,"Include",58,"Block1"
"KL2012_e2","KL2012_e2_19",1,6,1540,"Include",59,"Block1"
"KL2012_e2","KL2012_e2_19",0,4,2245,"Include",60,"Block1"
"KL2012_e2","KL2012_e2_19",1,5,5443,"Include",61,"Block1"
"KL2012_e2","KL2012_e2_19",1,4,2338,"Include",62,"Block1"
"KL2012_e2","KL2012_e2_19",1,5,1661,"Include",63,"Block1"
"KL2012_e2","KL2012_e2_19",0,5,1843,"Include",64,"Block1"
"KL2012_e2","KL2012_e2_19",0,5,3541,"Include",65,"Block1"
"KL2012_e2","KL2012_e2_19",1,5,1774,"Include",66,"Block1"
"KL2012_e2","KL2012_e2_19",0,4,2100,"Include",67,"Block1"
"KL2012_e2","KL2012_e2_19",0,4,2123,"Include",68,"Block1"
"KL2012_e2","KL2012_e2_19",0,4,5865,"Include",69,"Block1"
"KL2012_e2","KL2012_e2_19",1,3,1805,"Include",70,"Block1"
"KL2012_e2","KL2012_e2_19",0,3,2260,"Include",71,"Block1"
"KL2012_e2","KL2012_e2_19",1,5,4264,"Include",72,"Block1"
"KL2012_e2","KL2012_e2_19",1,5,1611,"Include",73,"Block1"
"KL2012_e2","KL2012_e2_19",1,4,2313,"Include",74,"Block1"
"KL2012_e2","KL2012_e2_19",0,2,4720,"Include",75,"Block1"
"KL2012_e2","KL2012_e2_19",1,6,1317,"Include",76,"Block1"
"KL2012_e2","KL2012_e2_19",0,4,1755,"Include",77,"Block1"
"KL2012_e2","KL2012_e2_19",1,5,3495,"Include",78,"Block1"
"KL2012_e2","KL2012_e2_19",1,6,1441,"Include",79,"Block1"
"KL2012_e2","KL2012_e2_19",0,4,2728,"Include",80,"Block1"
"KL2012_e2","KL2012_e2_19",0,3,3525,"Include",81,"Block1"
"KL2012_e2","KL2012_e2_19",1,4,3191,"Include",82,"Block1"
"KL2012_e2","KL2012_e2_19",0,5,4068,"Include",83,"Block1"
"KL2012_e2","KL2012_e2_19",0,2,2121,"Include",84,"Block1"
"KL2012_e2","KL2012_e2_19",0,4,4667,"Include",85,"Block1"
"KL2012_e2","KL2012_e2_19",1,5,1640,"Include",86,"Block1"
"KL2012_e2","KL2012_e2_19",1,6,1289,"Include",87,"Block1"
"KL2012_e2","KL2012_e2_19",1,6,990,"Include",88,"Block1"
"KL2012_e2","KL2012_e2_19",1,6,1043,"Include",89,"Block1"
"KL2012_e2","KL2012_e2_19",1,6,915,"Include",90,"Block1"
"KL2012_e2","KL2012_e2_19",1,6,1126,"Include",91,"Block1"
"KL2012_e2","KL2012_e2_19",1,5,5212,"Include",92,"Block1"
"KL2012_e2","KL2012_e2_19",0,5,3589,"Include",93,"Block1"
"KL2012_e2","KL2012_e2_19",0,4,3757,"Include",94,"Block1"
"KL2012_e2","KL2012_e2_19",1,6,1935,"Include",95,"Block1"
"KL2012_e2","KL2012_e2_19",0,4,4243,"Include",96,"Block1"
"KL2012_e2","KL2012_e2_2",0,6,4221,"Include",1,"Block1"
"KL2012_e2","KL2012_e2_2",1,2,3849,"Include",2,"Block1"
"KL2012_e2","KL2012_e2_2",1,6,2093,"Include",3,"Block1"
"KL2012_e2","KL2012_e2_2",0,6,3684,"Include",4,"Block1"
"KL2012_e2","KL2012_e2_2",0,2,1985,"Include",5,"Block1"
"KL2012_e2","KL2012_e2_2",1,4,4568,"Include",6,"Block1"
"KL2012_e2","KL2012_e2_2",0,2,2529,"Include",7,"Block1"
"KL2012_e2","KL2012_e2_2",1,6,1803,"Include",8,"Block1"
"KL2012_e2","KL2012_e2_2",1,5,2902,"Include",9,"Block1"
"KL2012_e2","KL2012_e2_2",1,1,4210,"Include",10,"Block1"
"KL2012_e2","KL2012_e2_2",1,4,4985,"Include",11,"Block1"
"KL2012_e2","KL2012_e2_2",1,5,12100,"Include",12,"Block1"
"KL2012_e2","KL2012_e2_2",1,4,2993,"Include",13,"Block1"
"KL2012_e2","KL2012_e2_2",1,4,2221,"Include",14,"Block1"
"KL2012_e2","KL2012_e2_2",1,5,5497,"Include",15,"Block1"
"KL2012_e2","KL2012_e2_2",1,3,3065,"Include",16,"Block1"
"KL2012_e2","KL2012_e2_2",0,2,4064,"Include",17,"Block1"
"KL2012_e2","KL2012_e2_2",0,2,2920,"Include",18,"Block1"
"KL2012_e2","KL2012_e2_2",0,3,2270,"Include",19,"Block1"
"KL2012_e2","KL2012_e2_2",0,3,2630,"Include",20,"Block1"
"KL2012_e2","KL2012_e2_2",0,3,1727,"Include",21,"Block1"
"KL2012_e2","KL2012_e2_2",1,3,3941,"Include",22,"Block1"
"KL2012_e2","KL2012_e2_2",0,3,3391,"Include",23,"Block1"
"KL2012_e2","KL2012_e2_2",0,3,5044,"Include",24,"Block1"
"KL2012_e2","KL2012_e2_2",1,4,6144,"Include",25,"Block1"
"KL2012_e2","KL2012_e2_2",0,3,4345,"Include",26,"Block1"
"KL2012_e2","KL2012_e2_2",0,2,1676,"Include",27,"Block1"
"KL2012_e2","KL2012_e2_2",0,3,7814,"Include",28,"Block1"
"KL2012_e2","KL2012_e2_2",1,4,6607,"Include",29,"Block1"
"KL2012_e2","KL2012_e2_2",0,2,2098,"Include",30,"Block1"
"KL2012_e2","KL2012_e2_2",0,4,1782,"Include",31,"Block1"
"KL2012_e2","KL2012_e2_2",1,4,4007,"Include",32,"Block1"
"KL2012_e2","KL2012_e2_2",0,3,5863,"Include",33,"Block1"
"KL2012_e2","KL2012_e2_2",1,3,2242,"Include",34,"Block1"
"KL2012_e2","KL2012_e2_2",0,2,2165,"Include",35,"Block1"
"KL2012_e2","KL2012_e2_2",1,4,8260,"Include",36,"Block1"
"KL2012_e2","KL2012_e2_2",1,3,3118,"Include",37,"Block1"
"KL2012_e2","KL2012_e2_2",0,4,1398,"Include",38,"Block1"
"KL2012_e2","KL2012_e2_2",1,6,5789,"Include",39,"Block1"
"KL2012_e2","KL2012_e2_2",1,4,3703,"Include",40,"Block1"
"KL2012_e2","KL2012_e2_2",1,3,2845,"Include",41,"Block1"
"KL2012_e2","KL2012_e2_2",0,3,2528,"Include",42,"Block1"
"KL2012_e2","KL2012_e2_2",1,4,3837,"Include",43,"Block1"
"KL2012_e2","KL2012_e2_2",1,3,3503,"Include",44,"Block1"
"KL2012_e2","KL2012_e2_2",1,4,4142,"Include",45,"Block1"
"KL2012_e2","KL2012_e2_2",0,4,5529,"Include",46,"Block1"
"KL2012_e2","KL2012_e2_2",1,4,5998,"Include",47,"Block1"
"KL2012_e2","KL2012_e2_2",1,5,4728,"Include",48,"Block1"
"KL2012_e2","KL2012_e2_2",1,6,1547,"Include",49,"Block1"
"KL2012_e2","KL2012_e2_2",0,4,1503,"Include",50,"Block1"
"KL2012_e2","KL2012_e2_2",0,3,2585,"Include",51,"Block1"
"KL2012_e2","KL2012_e2_2",0,3,1256,"Include",52,"Block1"
"KL2012_e2","KL2012_e2_2",0,2,2906,"Include",53,"Block1"
"KL2012_e2","KL2012_e2_2",0,3,2732,"Include",54,"Block1"
"KL2012_e2","KL2012_e2_2",1,3,3746,"Include",55,"Block1"
"KL2012_e2","KL2012_e2_2",1,3,1979,"Include",56,"Block1"
"KL2012_e2","KL2012_e2_2",0,2,10028,"Include",57,"Block1"
"KL2012_e2","KL2012_e2_2",0,2,1883,"Include",58,"Block1"
"KL2012_e2","KL2012_e2_2",1,4,1951,"Include",59,"Block1"
"KL2012_e2","KL2012_e2_2",0,4,5705,"Include",60,"Block1"
"KL2012_e2","KL2012_e2_2",0,2,3701,"Include",61,"Block1"
"KL2012_e2","KL2012_e2_2",1,6,2200,"Include",62,"Block1"
"KL2012_e2","KL2012_e2_2",1,6,1648,"Include",63,"Block1"
"KL2012_e2","KL2012_e2_2",1,5,6864,"Include",64,"Block1"
"KL2012_e2","KL2012_e2_2",0,2,3608,"Include",65,"Block1"
"KL2012_e2","KL2012_e2_2",0,4,6821,"Include",66,"Block1"
"KL2012_e2","KL2012_e2_2",0,3,4632,"Include",67,"Block1"
"KL2012_e2","KL2012_e2_2",0,2,4170,"Include",68,"Block1"
"KL2012_e2","KL2012_e2_2",0,2,3168,"Include",69,"Block1"
"KL2012_e2","KL2012_e2_2",1,5,3626,"Include",70,"Block1"
"KL2012_e2","KL2012_e2_2",1,5,1671,"Include",71,"Block1"
"KL2012_e2","KL2012_e2_2",0,5,2197,"Include",72,"Block1"
"KL2012_e2","KL2012_e2_2",0,5,2627,"Include",73,"Block1"
"KL2012_e2","KL2012_e2_2",0,2,2878,"Include",74,"Block1"
"KL2012_e2","KL2012_e2_2",1,2,1672,"Include",75,"Block1"
"KL2012_e2","KL2012_e2_2",0,3,3252,"Include",76,"Block1"
"KL2012_e2","KL2012_e2_2",1,4,6388,"Include",77,"Block1"
"KL2012_e2","KL2012_e2_2",1,2,6382,"Include",78,"Block1"
"KL2012_e2","KL2012_e2_2",1,4,3499,"Include",79,"Block1"
"KL2012_e2","KL2012_e2_2",1,4,1407,"Include",80,"Block1"
"KL2012_e2","KL2012_e2_2",1,5,1499,"Include",81,"Block1"
"KL2012_e2","KL2012_e2_2",0,3,4669,"Include",82,"Block1"
"KL2012_e2","KL2012_e2_2",0,5,2241,"Include",83,"Block1"
"KL2012_e2","KL2012_e2_2",0,2,4541,"Include",84,"Block1"
"KL2012_e2","KL2012_e2_2",0,4,9230,"Include",85,"Block1"
"KL2012_e2","KL2012_e2_2",1,4,1597,"Include",86,"Block1"
"KL2012_e2","KL2012_e2_2",1,4,5840,"Include",87,"Block1"
"KL2012_e2","KL2012_e2_2",0,5,6309,"Include",88,"Block1"
"KL2012_e2","KL2012_e2_2",1,5,3517,"Include",89,"Block1"
"KL2012_e2","KL2012_e2_2",0,2,2973,"Include",90,"Block1"
"KL2012_e2","KL2012_e2_2",1,5,3296,"Include",91,"Block1"
"KL2012_e2","KL2012_e2_2",1,5,3880,"Include",92,"Block1"
"KL2012_e2","KL2012_e2_2",0,4,5496,"Include",93,"Block1"
"KL2012_e2","KL2012_e2_2",0,4,11547,"Include",94,"Block1"
"KL2012_e2","KL2012_e2_2",0,3,1024,"Include",95,"Block1"
"KL2012_e2","KL2012_e2_2",1,4,3418,"Include",96,"Block1"
"KL2012_e2","KL2012_e2_20",1,6,2811,"Include",1,"Block1"
"KL2012_e2","KL2012_e2_20",1,6,932,"Include",2,"Block1"
"KL2012_e2","KL2012_e2_20",0,2,5096,"Include",3,"Block1"
"KL2012_e2","KL2012_e2_20",1,6,1608,"Include",4,"Block1"
"KL2012_e2","KL2012_e2_20",0,2,3716,"Include",5,"Block1"
"KL2012_e2","KL2012_e2_20",1,6,2759,"Include",6,"Block1"
"KL2012_e2","KL2012_e2_20",0,1,2460,"Include",7,"Block1"
"KL2012_e2","KL2012_e2_20",0,2,3163,"Include",8,"Block1"
"KL2012_e2","KL2012_e2_20",1,6,1110,"Include",9,"Block1"
"KL2012_e2","KL2012_e2_20",0,3,2839,"Include",10,"Block1"
"KL2012_e2","KL2012_e2_20",1,6,978,"Include",11,"Block1"
"KL2012_e2","KL2012_e2_20",0,3,2678,"Include",12,"Block1"
"KL2012_e2","KL2012_e2_20",0,3,1630,"Include",13,"Block1"
"KL2012_e2","KL2012_e2_20",0,3,981,"Include",14,"Block1"
"KL2012_e2","KL2012_e2_20",0,2,2207,"Include",15,"Block1"
"KL2012_e2","KL2012_e2_20",1,6,5126,"Include",16,"Block1"
"KL2012_e2","KL2012_e2_20",1,6,619,"Include",17,"Block1"
"KL2012_e2","KL2012_e2_20",0,3,2149,"Include",18,"Block1"
"KL2012_e2","KL2012_e2_20",0,4,2672,"Include",19,"Block1"
"KL2012_e2","KL2012_e2_20",1,6,1206,"Include",20,"Block1"
"KL2012_e2","KL2012_e2_20",1,6,2314,"Include",21,"Block1"
"KL2012_e2","KL2012_e2_20",0,2,2480,"Include",22,"Block1"
"KL2012_e2","KL2012_e2_20",0,2,1364,"Include",23,"Block1"
"KL2012_e2","KL2012_e2_20",0,1,1522,"Include",24,"Block1"
"KL2012_e2","KL2012_e2_20",0,5,5863,"Include",25,"Block1"
"KL2012_e2","KL2012_e2_20",1,6,1890,"Include",26,"Block1"
"KL2012_e2","KL2012_e2_20",1,3,3173,"Include",27,"Block1"
"KL2012_e2","KL2012_e2_20",0,2,4020,"Include",28,"Block1"
"KL2012_e2","KL2012_e2_20",0,2,1522,"Include",29,"Block1"
"KL2012_e2","KL2012_e2_20",1,6,1293,"Include",30,"Block1"
"KL2012_e2","KL2012_e2_20",1,6,947,"Include",31,"Block1"
"KL2012_e2","KL2012_e2_20",1,4,3518,"Include",32,"Block1"
"KL2012_e2","KL2012_e2_20",1,5,8974,"Include",33,"Block1"
"KL2012_e2","KL2012_e2_20",1,6,747,"Include",34,"Block1"
"KL2012_e2","KL2012_e2_20",1,6,642,"Include",35,"Block1"
"KL2012_e2","KL2012_e2_20",1,2,3465,"Include",36,"Block1"
"KL2012_e2","KL2012_e2_20",0,3,1897,"Include",37,"Block1"
"KL2012_e2","KL2012_e2_20",1,6,997,"Include",38,"Block1"
"KL2012_e2","KL2012_e2_20",1,6,586,"Include",39,"Block1"
"KL2012_e2","KL2012_e2_20",0,3,1472,"Include",40,"Block1"
"KL2012_e2","KL2012_e2_20",0,2,1654,"Include",41,"Block1"
"KL2012_e2","KL2012_e2_20",1,4,4733,"Include",42,"Block1"
"KL2012_e2","KL2012_e2_20",1,4,2957,"Include",43,"Block1"
"KL2012_e2","KL2012_e2_20",1,5,1274,"Include",44,"Block1"
"KL2012_e2","KL2012_e2_20",0,5,3533,"Include",45,"Block1"
"KL2012_e2","KL2012_e2_20",1,6,832,"Include",46,"Block1"
"KL2012_e2","KL2012_e2_20",1,5,3300,"Include",47,"Block1"
"KL2012_e2","KL2012_e2_20",0,5,1494,"Include",48,"Block1"
"KL2012_e2","KL2012_e2_20",0,4,3208,"Include",49,"Block1"
"KL2012_e2","KL2012_e2_20",1,5,1861,"Include",50,"Block1"
"KL2012_e2","KL2012_e2_20",0,3,4363,"Include",51,"Block1"
"KL2012_e2","KL2012_e2_20",0,4,1433,"Include",52,"Block1"
"KL2012_e2","KL2012_e2_20",1,3,6096,"Include",53,"Block1"
"KL2012_e2","KL2012_e2_20",1,3,1249,"Include",54,"Block1"
"KL2012_e2","KL2012_e2_20",1,4,5579,"Include",55,"Block1"
"KL2012_e2","KL2012_e2_20",1,6,807,"Include",56,"Block1"
"KL2012_e2","KL2012_e2_20",1,6,965,"Include",57,"Block1"
"KL2012_e2","KL2012_e2_20",0,4,3921,"Include",58,"Block1"
"KL2012_e2","KL2012_e2_20",0,4,2100,"Include",59,"Block1"
"KL2012_e2","KL2012_e2_20",1,3,6521,"Include",60,"Block1"
"KL2012_e2","KL2012_e2_20",1,3,4240,"Include",61,"Block1"
"KL2012_e2","KL2012_e2_20",0,3,5157,"Include",62,"Block1"
"KL2012_e2","KL2012_e2_20",0,3,1840,"Include",63,"Block1"
"KL2012_e2","KL2012_e2_20",0,2,2045,"Include",64,"Block1"
"KL2012_e2","KL2012_e2_20",0,2,1801,"Include",65,"Block1"
"KL2012_e2","KL2012_e2_20",1,6,1865,"Include",66,"Block1"
"KL2012_e2","KL2012_e2_20",1,4,2286,"Include",67,"Block1"
"KL2012_e2","KL2012_e2_20",1,3,1593,"Include",68,"Block1"
"KL2012_e2","KL2012_e2_20",0,4,3363,"Include",69,"Block1"
"KL2012_e2","KL2012_e2_20",0,2,4548,"Include",70,"Block1"
"KL2012_e2","KL2012_e2_20",0,2,1286,"Include",71,"Block1"
"KL2012_e2","KL2012_e2_20",0,3,1360,"Include",72,"Block1"
"KL2012_e2","KL2012_e2_20",0,3,4431,"Include",73,"Block1"
"KL2012_e2","KL2012_e2_20",1,6,1560,"Include",74,"Block1"
"KL2012_e2","KL2012_e2_20",0,5,2896,"Include",75,"Block1"
"KL2012_e2","KL2012_e2_20",1,4,1216,"Include",76,"Block1"
"KL2012_e2","KL2012_e2_20",0,2,1388,"Include",77,"Block1"
"KL2012_e2","KL2012_e2_20",1,6,2409,"Include",78,"Block1"
"KL2012_e2","KL2012_e2_20",0,1,1628,"Include",79,"Block1"
"KL2012_e2","KL2012_e2_20",0,1,1347,"Include",80,"Block1"
"KL2012_e2","KL2012_e2_20",1,3,3079,"Include",81,"Block1"
"KL2012_e2","KL2012_e2_20",1,6,5076,"Include",82,"Block1"
"KL2012_e2","KL2012_e2_20",0,3,1550,"Include",83,"Block1"
"KL2012_e2","KL2012_e2_20",0,3,1297,"Include",84,"Block1"
"KL2012_e2","KL2012_e2_20",1,6,2291,"Include",85,"Block1"
"KL2012_e2","KL2012_e2_20",0,3,2530,"Include",86,"Block1"
"KL2012_e2","KL2012_e2_20",0,3,4388,"Include",87,"Block1"
"KL2012_e2","KL2012_e2_20",1,6,2309,"Include",88,"Block1"
"KL2012_e2","KL2012_e2_20",0,3,1940,"Include",89,"Block1"
"KL2012_e2","KL2012_e2_20",1,3,1453,"Include",90,"Block1"
"KL2012_e2","KL2012_e2_20",0,3,5166,"Include",91,"Block1"
"KL2012_e2","KL2012_e2_20",0,2,1500,"Include",92,"Block1"
"KL2012_e2","KL2012_e2_20",1,3,1280,"Include",93,"Block1"
"KL2012_e2","KL2012_e2_20",1,3,8984,"Include",94,"Block1"
"KL2012_e2","KL2012_e2_20",1,6,2212,"Include",95,"Block1"
"KL2012_e2","KL2012_e2_20",0,3,1427,"Include",96,"Block1"
"KL2012_e2","KL2012_e2_21",0,1,2942,"Include",1,"Block1"
"KL2012_e2","KL2012_e2_21",0,1,4922,"Include",2,"Block1"
"KL2012_e2","KL2012_e2_21",1,1,929,"Include",3,"Block1"
"KL2012_e2","KL2012_e2_21",0,1,1375,"Include",4,"Block1"
"KL2012_e2","KL2012_e2_21",0,1,646,"Include",5,"Block1"
"KL2012_e2","KL2012_e2_21",1,6,3505,"Include",6,"Block1"
"KL2012_e2","KL2012_e2_21",1,1,1367,"Include",7,"Block1"
"KL2012_e2","KL2012_e2_21",1,1,692,"Include",8,"Block1"
"KL2012_e2","KL2012_e2_21",0,1,599,"Include",9,"Block1"
"KL2012_e2","KL2012_e2_21",0,1,719,"Include",10,"Block1"
"KL2012_e2","KL2012_e2_21",0,1,745,"Include",11,"Block1"
"KL2012_e2","KL2012_e2_21",1,2,2943,"Include",12,"Block1"
"KL2012_e2","KL2012_e2_21",0,1,813,"Include",13,"Block1"
"KL2012_e2","KL2012_e2_21",0,3,2923,"Include",14,"Block1"
"KL2012_e2","KL2012_e2_21",0,1,1076,"Include",15,"Block1"
"KL2012_e2","KL2012_e2_21",1,1,1498,"Include",16,"Block1"
"KL2012_e2","KL2012_e2_21",0,6,1606,"Include",17,"Block1"
"KL2012_e2","KL2012_e2_21",1,3,1924,"Include",18,"Block1"
"KL2012_e2","KL2012_e2_21",0,1,1240,"Include",19,"Block1"
"KL2012_e2","KL2012_e2_21",0,4,1820,"Include",20,"Block1"
"KL2012_e2","KL2012_e2_21",1,5,1626,"Include",21,"Block1"
"KL2012_e2","KL2012_e2_21",1,1,1503,"Include",22,"Block1"
"KL2012_e2","KL2012_e2_21",1,4,1569,"Include",23,"Block1"
"KL2012_e2","KL2012_e2_21",1,4,1719,"Include",24,"Block1"
"KL2012_e2","KL2012_e2_21",0,1,1134,"Include",25,"Block1"
"KL2012_e2","KL2012_e2_21",1,1,1042,"Include",26,"Block1"
"KL2012_e2","KL2012_e2_21",1,1,1006,"Include",27,"Block1"
"KL2012_e2","KL2012_e2_21",0,3,1774,"Include",28,"Block1"
"KL2012_e2","KL2012_e2_21",1,2,1343,"Include",29,"Block1"
"KL2012_e2","KL2012_e2_21",1,2,1504,"Include",30,"Block1"
"KL2012_e2","KL2012_e2_21",1,6,1372,"Include",31,"Block1"
"KL2012_e2","KL2012_e2_21",0,1,1923,"Include",32,"Block1"
"KL2012_e2","KL2012_e2_21",1,6,1126,"Include",33,"Block1"
"KL2012_e2","KL2012_e2_21",0,4,1242,"Include",34,"Block1"
"KL2012_e2","KL2012_e2_21",0,1,1135,"Include",35,"Block1"
"KL2012_e2","KL2012_e2_21",0,1,913,"Include",36,"Block1"
"KL2012_e2","KL2012_e2_21",0,4,1391,"Include",37,"Block1"
"KL2012_e2","KL2012_e2_21",1,4,1863,"Include",38,"Block1"
"KL2012_e2","KL2012_e2_21",1,6,1138,"Include",39,"Block1"
"KL2012_e2","KL2012_e2_21",1,1,1480,"Include",40,"Block1"
"KL2012_e2","KL2012_e2_21",0,1,959,"Include",41,"Block1"
"KL2012_e2","KL2012_e2_21",1,3,1654,"Include",42,"Block1"
"KL2012_e2","KL2012_e2_21",0,1,859,"Include",43,"Block1"
"KL2012_e2","KL2012_e2_21",0,2,1059,"Include",44,"Block1"
"KL2012_e2","KL2012_e2_21",0,4,1740,"Include",45,"Block1"
"KL2012_e2","KL2012_e2_21",0,1,1733,"Include",46,"Block1"
"KL2012_e2","KL2012_e2_21",1,4,3147,"Include",47,"Block1"
"KL2012_e2","KL2012_e2_21",1,1,1043,"Include",48,"Block1"
"KL2012_e2","KL2012_e2_21",1,6,1480,"Include",49,"Block1"
"KL2012_e2","KL2012_e2_21",1,3,1920,"Include",50,"Block1"
"KL2012_e2","KL2012_e2_21",0,1,1195,"Include",51,"Block1"
"KL2012_e2","KL2012_e2_21",0,1,684,"Include",52,"Block1"
"KL2012_e2","KL2012_e2_21",1,3,1377,"Include",53,"Block1"
"KL2012_e2","KL2012_e2_21",1,1,607,"Include",54,"Block1"
"KL2012_e2","KL2012_e2_21",0,1,597,"Include",55,"Block1"
"KL2012_e2","KL2012_e2_21",1,3,1919,"Include",56,"Block1"
"KL2012_e2","KL2012_e2_21",1,3,1210,"Include",57,"Block1"
"KL2012_e2","KL2012_e2_21",0,1,801,"Include",58,"Block1"
"KL2012_e2","KL2012_e2_21",1,1,887,"Include",59,"Block1"
"KL2012_e2","KL2012_e2_21",0,1,690,"Include",60,"Block1"
"KL2012_e2","KL2012_e2_21",1,1,685,"Include",61,"Block1"
"KL2012_e2","KL2012_e2_21",1,1,665,"Include",62,"Block1"
"KL2012_e2","KL2012_e2_21",0,1,1126,"Include",63,"Block1"
"KL2012_e2","KL2012_e2_21",0,4,1229,"Include",64,"Block1"
"KL2012_e2","KL2012_e2_21",1,1,1347,"Include",65,"Block1"
"KL2012_e2","KL2012_e2_21",1,4,1302,"Include",66,"Block1"
"KL2012_e2","KL2012_e2_21",1,3,2497,"Include",67,"Block1"
"KL2012_e2","KL2012_e2_21",1,3,1173,"Include",68,"Block1"
"KL2012_e2","KL2012_e2_21",0,4,1447,"Include",69,"Block1"
"KL2012_e2","KL2012_e2_21",1,5,1518,"Include",70,"Block1"
"KL2012_e2","KL2012_e2_21",0,1,967,"Include",71,"Block1"
"KL2012_e2","KL2012_e2_21",0,1,759,"Include",72,"Block1"
"KL2012_e2","KL2012_e2_21",0,1,687,"Include",73,"Block1"
"KL2012_e2","KL2012_e2_21",1,1,1163,"Include",74,"Block1"
"KL2012_e2","KL2012_e2_21",1,6,1023,"Include",75,"Block1"
"KL2012_e2","KL2012_e2_21",0,4,1379,"Include",76,"Block1"
"KL2012_e2","KL2012_e2_21",1,6,1838,"Include",77,"Block1"
"KL2012_e2","KL2012_e2_21",0,1,2352,"Include",78,"Block1"
"KL2012_e2","KL2012_e2_21",0,1,618,"Include",79,"Block1"
"KL2012_e2","KL2012_e2_21",0,1,1092,"Include",80,"Block1"
"KL2012_e2","KL2012_e2_21",0,1,651,"Include",81,"Block1"
"KL2012_e2","KL2012_e2_21",0,1,815,"Include",82,"Block1"
"KL2012_e2","KL2012_e2_21",1,1,819,"Include",83,"Block1"
"KL2012_e2","KL2012_e2_21",0,2,1069,"Include",84,"Block1"
"KL2012_e2","KL2012_e2_21",1,3,1615,"Include",85,"Block1"
"KL2012_e2","KL2012_e2_21",1,1,1789,"Include",86,"Block1"
"KL2012_e2","KL2012_e2_21",1,6,3090,"Include",87,"Block1"
"KL2012_e2","KL2012_e2_21",1,6,695,"Include",88,"Block1"
"KL2012_e2","KL2012_e2_21",0,1,937,"Include",89,"Block1"
"KL2012_e2","KL2012_e2_21",1,1,902,"Include",90,"Block1"
"KL2012_e2","KL2012_e2_21",0,1,1410,"Include",91,"Block1"
"KL2012_e2","KL2012_e2_21",1,4,1473,"Include",92,"Block1"
"KL2012_e2","KL2012_e2_21",0,1,1248,"Include",93,"Block1"
"KL2012_e2","KL2012_e2_21",1,1,893,"Include",94,"Block1"
"KL2012_e2","KL2012_e2_21",0,1,2895,"Include",95,"Block1"
"KL2012_e2","KL2012_e2_21",0,1,859,"Include",96,"Block1"
"KL2012_e2","KL2012_e2_22",1,4,7352,"Include",1,"Block1"
"KL2012_e2","KL2012_e2_22",0,2,2802,"Include",2,"Block1"
"KL2012_e2","KL2012_e2_22",0,2,2004,"Include",3,"Block1"
