"exp","id","block","trial","isold","condition1","condition2","rating","RT","excluding"
"KL2012_e3","KL2012_e3_10",1,1,0,"Paintings-Paintings","Block1",2,6373,"Include"
"KL2012_e3","KL2012_e3_10",1,2,1,"Paintings-Paintings","Block1",6,2874,"Include"
"KL2012_e3","KL2012_e3_10",1,3,0,"Paintings-Paintings","Block1",1,2430,"Include"
"KL2012_e3","KL2012_e3_10",1,4,0,"Paintings-Paintings","Block1",1,2820,"Include"
"KL2012_e3","KL2012_e3_10",1,5,1,"Paintings-Paintings","Block1",6,2955,"Include"
"KL2012_e3","KL2012_e3_10",1,6,0,"Paintings-Paintings","Block1",2,5624,"Include"
"KL2012_e3","KL2012_e3_10",1,7,0,"Paintings-Paintings","Block1",1,4679,"Include"
"KL2012_e3","KL2012_e3_10",1,8,0,"Paintings-Paintings","Block1",1,7918,"Include"
"KL2012_e3","KL2012_e3_10",1,9,1,"Paintings-Paintings","Block1",4,6389,"Include"
"KL2012_e3","KL2012_e3_10",1,10,1,"Paintings-Paintings","Block1",3,6586,"Include"
"KL2012_e3","KL2012_e3_10",1,11,1,"Paintings-Paintings","Block1",3,6119,"Include"
"KL2012_e3","KL2012_e3_10",1,12,0,"Paintings-Paintings","Block1",1,4946,"Include"
"KL2012_e3","KL2012_e3_10",1,13,0,"Paintings-Paintings","Block1",1,3503,"Include"
"KL2012_e3","KL2012_e3_10",1,14,1,"Paintings-Paintings","Block1",3,11082,"Include"
"KL2012_e3","KL2012_e3_10",1,15,0,"Paintings-Paintings","Block1",1,4329,"Include"
"KL2012_e3","KL2012_e3_10",1,16,0,"Paintings-Paintings","Block1",1,2688,"Include"
"KL2012_e3","KL2012_e3_10",1,17,0,"Paintings-Paintings","Block1",1,2183,"Include"
"KL2012_e3","KL2012_e3_10",1,18,0,"Paintings-Paintings","Block1",1,3175,"Include"
"KL2012_e3","KL2012_e3_10",1,19,1,"Paintings-Paintings","Block1",3,10367,"Include"
"KL2012_e3","KL2012_e3_10",1,20,0,"Paintings-Paintings","Block1",1,8017,"Include"
"KL2012_e3","KL2012_e3_10",1,21,1,"Paintings-Paintings","Block1",1,3348,"Include"
"KL2012_e3","KL2012_e3_10",1,22,0,"Paintings-Paintings","Block1",1,3988,"Include"
"KL2012_e3","KL2012_e3_10",1,23,1,"Paintings-Paintings","Block1",6,2667,"Include"
"KL2012_e3","KL2012_e3_10",1,24,1,"Paintings-Paintings","Block1",5,4313,"Include"
"KL2012_e3","KL2012_e3_10",1,25,1,"Paintings-Paintings","Block1",6,4435,"Include"
"KL2012_e3","KL2012_e3_10",1,26,1,"Paintings-Paintings","Block1",6,2120,"Include"
"KL2012_e3","KL2012_e3_10",1,27,1,"Paintings-Paintings","Block1",4,6828,"Include"
"KL2012_e3","KL2012_e3_10",1,28,0,"Paintings-Paintings","Block1",1,5966,"Include"
"KL2012_e3","KL2012_e3_10",1,29,0,"Paintings-Paintings","Block1",2,5637,"Include"
"KL2012_e3","KL2012_e3_10",1,30,1,"Paintings-Paintings","Block1",1,3353,"Include"
"KL2012_e3","KL2012_e3_10",1,31,1,"Paintings-Paintings","Block1",6,4555,"Include"
"KL2012_e3","KL2012_e3_10",1,32,0,"Paintings-Paintings","Block1",1,3786,"Include"
"KL2012_e3","KL2012_e3_10",1,33,0,"Paintings-Paintings","Block1",1,4938,"Include"
"KL2012_e3","KL2012_e3_10",1,34,1,"Paintings-Paintings","Block1",6,5003,"Include"
"KL2012_e3","KL2012_e3_10",1,35,1,"Paintings-Paintings","Block1",4,8104,"Include"
"KL2012_e3","KL2012_e3_10",1,36,0,"Paintings-Paintings","Block1",6,3575,"Include"
"KL2012_e3","KL2012_e3_10",1,37,1,"Paintings-Paintings","Block1",6,2431,"Include"
"KL2012_e3","KL2012_e3_10",1,38,0,"Paintings-Paintings","Block1",4,12982,"Include"
"KL2012_e3","KL2012_e3_10",1,39,0,"Paintings-Paintings","Block1",6,4733,"Include"
"KL2012_e3","KL2012_e3_10",1,40,1,"Paintings-Paintings","Block1",6,1606,"Include"
"KL2012_e3","KL2012_e3_10",1,41,1,"Paintings-Paintings","Block1",2,5791,"Include"
"KL2012_e3","KL2012_e3_10",1,42,1,"Paintings-Paintings","Block1",3,8636,"Include"
"KL2012_e3","KL2012_e3_10",1,43,0,"Paintings-Paintings","Block1",1,4405,"Include"
"KL2012_e3","KL2012_e3_10",1,44,0,"Paintings-Paintings","Block1",1,8490,"Include"
"KL2012_e3","KL2012_e3_10",1,45,0,"Paintings-Paintings","Block1",1,3578,"Include"
"KL2012_e3","KL2012_e3_10",1,46,0,"Paintings-Paintings","Block1",1,3521,"Include"
"KL2012_e3","KL2012_e3_10",1,47,1,"Paintings-Paintings","Block1",1,3626,"Include"
"KL2012_e3","KL2012_e3_10",1,48,0,"Paintings-Paintings","Block1",6,1840,"Include"
"KL2012_e3","KL2012_e3_10",1,49,1,"Paintings-Paintings","Block1",4,6287,"Include"
"KL2012_e3","KL2012_e3_10",1,50,1,"Paintings-Paintings","Block1",6,2185,"Include"
"KL2012_e3","KL2012_e3_10",1,51,1,"Paintings-Paintings","Block1",6,1082,"Include"
"KL2012_e3","KL2012_e3_10",1,52,0,"Paintings-Paintings","Block1",2,4585,"Include"
"KL2012_e3","KL2012_e3_10",1,53,0,"Paintings-Paintings","Block1",1,3368,"Include"
"KL2012_e3","KL2012_e3_10",1,54,1,"Paintings-Paintings","Block1",2,5849,"Include"
"KL2012_e3","KL2012_e3_10",1,55,0,"Paintings-Paintings","Block1",1,6451,"Include"
"KL2012_e3","KL2012_e3_10",1,56,0,"Paintings-Paintings","Block1",2,4902,"Include"
"KL2012_e3","KL2012_e3_10",1,57,0,"Paintings-Paintings","Block1",1,3960,"Include"
"KL2012_e3","KL2012_e3_10",1,58,1,"Paintings-Paintings","Block1",4,4689,"Include"
"KL2012_e3","KL2012_e3_10",1,59,0,"Paintings-Paintings","Block1",1,1754,"Include"
"KL2012_e3","KL2012_e3_10",1,60,1,"Paintings-Paintings","Block1",6,6013,"Include"
"KL2012_e3","KL2012_e3_10",1,61,1,"Paintings-Paintings","Block1",4,4337,"Include"
"KL2012_e3","KL2012_e3_10",1,62,1,"Paintings-Paintings","Block1",6,4490,"Include"
"KL2012_e3","KL2012_e3_10",1,63,1,"Paintings-Paintings","Block1",6,1516,"Include"
"KL2012_e3","KL2012_e3_10",1,64,0,"Paintings-Paintings","Block1",5,4441,"Include"
"KL2012_e3","KL2012_e3_10",1,65,0,"Paintings-Paintings","Block1",5,8893,"Include"
"KL2012_e3","KL2012_e3_10",1,66,0,"Paintings-Paintings","Block1",1,2891,"Include"
"KL2012_e3","KL2012_e3_10",1,67,1,"Paintings-Paintings","Block1",4,13567,"Include"
"KL2012_e3","KL2012_e3_10",1,68,0,"Paintings-Paintings","Block1",4,9278,"Include"
"KL2012_e3","KL2012_e3_10",1,69,1,"Paintings-Paintings","Block1",1,2237,"Include"
"KL2012_e3","KL2012_e3_10",1,70,0,"Paintings-Paintings","Block1",1,1866,"Include"
"KL2012_e3","KL2012_e3_10",1,71,1,"Paintings-Paintings","Block1",6,4522,"Include"
"KL2012_e3","KL2012_e3_10",1,72,1,"Paintings-Paintings","Block1",2,5483,"Include"
"KL2012_e3","KL2012_e3_10",1,73,1,"Paintings-Paintings","Block1",2,9396,"Include"
"KL2012_e3","KL2012_e3_10",1,74,1,"Paintings-Paintings","Block1",2,12622,"Include"
"KL2012_e3","KL2012_e3_10",1,75,0,"Paintings-Paintings","Block1",2,10404,"Include"
"KL2012_e3","KL2012_e3_10",1,76,0,"Paintings-Paintings","Block1",1,5572,"Include"
"KL2012_e3","KL2012_e3_10",1,77,0,"Paintings-Paintings","Block1",1,6634,"Include"
"KL2012_e3","KL2012_e3_10",1,78,1,"Paintings-Paintings","Block1",2,9013,"Include"
"KL2012_e3","KL2012_e3_10",1,79,1,"Paintings-Paintings","Block1",1,3342,"Include"
"KL2012_e3","KL2012_e3_10",1,80,0,"Paintings-Paintings","Block1",3,7215,"Include"
"KL2012_e3","KL2012_e3_10",1,81,0,"Paintings-Paintings","Block1",1,7298,"Include"
"KL2012_e3","KL2012_e3_10",1,82,1,"Paintings-Paintings","Block1",1,4609,"Include"
"KL2012_e3","KL2012_e3_10",1,83,0,"Paintings-Paintings","Block1",1,2606,"Include"
"KL2012_e3","KL2012_e3_10",1,84,0,"Paintings-Paintings","Block1",2,4861,"Include"
"KL2012_e3","KL2012_e3_10",1,85,0,"Paintings-Paintings","Block1",2,10369,"Include"
"KL2012_e3","KL2012_e3_10",1,86,1,"Paintings-Paintings","Block1",4,6643,"Include"
"KL2012_e3","KL2012_e3_10",1,87,1,"Paintings-Paintings","Block1",4,3870,"Include"
"KL2012_e3","KL2012_e3_10",1,88,0,"Paintings-Paintings","Block1",1,1786,"Include"
"KL2012_e3","KL2012_e3_10",1,89,0,"Paintings-Paintings","Block1",1,5834,"Include"
"KL2012_e3","KL2012_e3_10",1,90,1,"Paintings-Paintings","Block1",2,4054,"Include"
"KL2012_e3","KL2012_e3_10",1,91,1,"Paintings-Paintings","Block1",6,1547,"Include"
"KL2012_e3","KL2012_e3_10",1,92,1,"Paintings-Paintings","Block1",4,6486,"Include"
"KL2012_e3","KL2012_e3_10",1,93,1,"Paintings-Paintings","Block1",4,4343,"Include"
"KL2012_e3","KL2012_e3_10",1,94,1,"Paintings-Paintings","Block1",6,1872,"Include"
"KL2012_e3","KL2012_e3_10",1,95,0,"Paintings-Paintings","Block1",5,6973,"Include"
"KL2012_e3","KL2012_e3_10",1,96,1,"Paintings-Paintings","Block1",4,6330,"Include"
"KL2012_e3","KL2012_e3_10",2,97,0,"Paintings-Paintings","Block2",6,3226,"Include"
"KL2012_e3","KL2012_e3_10",2,98,1,"Paintings-Paintings","Block2",6,2865,"Include"
"KL2012_e3","KL2012_e3_10",2,99,0,"Paintings-Paintings","Block2",1,2597,"Include"
"KL2012_e3","KL2012_e3_10",2,100,1,"Paintings-Paintings","Block2",6,1446,"Include"
"KL2012_e3","KL2012_e3_10",2,101,0,"Paintings-Paintings","Block2",1,1829,"Include"
"KL2012_e3","KL2012_e3_10",2,102,1,"Paintings-Paintings","Block2",6,2293,"Include"
"KL2012_e3","KL2012_e3_10",2,103,1,"Paintings-Paintings","Block2",6,1074,"Include"
"KL2012_e3","KL2012_e3_10",2,104,0,"Paintings-Paintings","Block2",1,1632,"Include"
"KL2012_e3","KL2012_e3_10",2,105,0,"Paintings-Paintings","Block2",1,1591,"Include"
"KL2012_e3","KL2012_e3_10",2,106,0,"Paintings-Paintings","Block2",1,1472,"Include"
"KL2012_e3","KL2012_e3_10",2,107,0,"Paintings-Paintings","Block2",2,1949,"Include"
"KL2012_e3","KL2012_e3_10",2,108,1,"Paintings-Paintings","Block2",6,1304,"Include"
"KL2012_e3","KL2012_e3_10",2,109,1,"Paintings-Paintings","Block2",6,1437,"Include"
"KL2012_e3","KL2012_e3_10",2,110,1,"Paintings-Paintings","Block2",2,2557,"Include"
"KL2012_e3","KL2012_e3_10",2,111,0,"Paintings-Paintings","Block2",1,1917,"Include"
"KL2012_e3","KL2012_e3_10",2,112,0,"Paintings-Paintings","Block2",1,1385,"Include"
"KL2012_e3","KL2012_e3_10",2,113,1,"Paintings-Paintings","Block2",6,1690,"Include"
"KL2012_e3","KL2012_e3_10",2,114,0,"Paintings-Paintings","Block2",1,1823,"Include"
"KL2012_e3","KL2012_e3_10",2,115,0,"Paintings-Paintings","Block2",1,1534,"Include"
"KL2012_e3","KL2012_e3_10",2,116,1,"Paintings-Paintings","Block2",6,1194,"Include"
"KL2012_e3","KL2012_e3_10",2,117,1,"Paintings-Paintings","Block2",6,1379,"Include"
"KL2012_e3","KL2012_e3_10",2,118,0,"Paintings-Paintings","Block2",1,2357,"Include"
"KL2012_e3","KL2012_e3_10",2,119,0,"Paintings-Paintings","Block2",1,3566,"Include"
"KL2012_e3","KL2012_e3_10",2,120,1,"Paintings-Paintings","Block2",1,3623,"Include"
"KL2012_e3","KL2012_e3_10",2,121,1,"Paintings-Paintings","Block2",6,1597,"Include"
"KL2012_e3","KL2012_e3_10",2,122,1,"Paintings-Paintings","Block2",6,2582,"Include"
"KL2012_e3","KL2012_e3_10",2,123,0,"Paintings-Paintings","Block2",2,4423,"Include"
"KL2012_e3","KL2012_e3_10",2,124,0,"Paintings-Paintings","Block2",1,1307,"Include"
"KL2012_e3","KL2012_e3_10",2,125,1,"Paintings-Paintings","Block2",6,1248,"Include"
"KL2012_e3","KL2012_e3_10",2,126,1,"Paintings-Paintings","Block2",1,1640,"Include"
"KL2012_e3","KL2012_e3_10",2,127,0,"Paintings-Paintings","Block2",1,782,"Include"
"KL2012_e3","KL2012_e3_10",2,128,1,"Paintings-Paintings","Block2",6,2778,"Include"
"KL2012_e3","KL2012_e3_10",2,129,0,"Paintings-Paintings","Block2",1,1331,"Include"
"KL2012_e3","KL2012_e3_10",2,130,1,"Paintings-Paintings","Block2",2,1383,"Include"
"KL2012_e3","KL2012_e3_10",2,131,1,"Paintings-Paintings","Block2",4,3385,"Include"
"KL2012_e3","KL2012_e3_10",2,132,0,"Paintings-Paintings","Block2",5,13529,"Include"
"KL2012_e3","KL2012_e3_10",2,133,1,"Paintings-Paintings","Block2",1,1226,"Include"
"KL2012_e3","KL2012_e3_10",2,134,1,"Paintings-Paintings","Block2",6,1555,"Include"
"KL2012_e3","KL2012_e3_10",2,135,1,"Paintings-Paintings","Block2",1,1292,"Include"
"KL2012_e3","KL2012_e3_10",2,136,1,"Paintings-Paintings","Block2",6,1570,"Include"
"KL2012_e3","KL2012_e3_10",2,137,0,"Paintings-Paintings","Block2",1,2347,"Include"
"KL2012_e3","KL2012_e3_10",2,138,1,"Paintings-Paintings","Block2",6,966,"Include"
"KL2012_e3","KL2012_e3_10",2,139,0,"Paintings-Paintings","Block2",1,2184,"Include"
"KL2012_e3","KL2012_e3_10",2,140,0,"Paintings-Paintings","Block2",1,1897,"Include"
"KL2012_e3","KL2012_e3_10",2,141,0,"Paintings-Paintings","Block2",1,1318,"Include"
"KL2012_e3","KL2012_e3_10",2,142,0,"Paintings-Paintings","Block2",3,3610,"Include"
"KL2012_e3","KL2012_e3_10",2,143,1,"Paintings-Paintings","Block2",6,1137,"Include"
"KL2012_e3","KL2012_e3_10",2,144,0,"Paintings-Paintings","Block2",2,1900,"Include"
"KL2012_e3","KL2012_e3_10",2,145,0,"Paintings-Paintings","Block2",2,3273,"Include"
"KL2012_e3","KL2012_e3_10",2,146,0,"Paintings-Paintings","Block2",2,2572,"Include"
"KL2012_e3","KL2012_e3_10",2,147,0,"Paintings-Paintings","Block2",2,4701,"Include"
"KL2012_e3","KL2012_e3_10",2,148,0,"Paintings-Paintings","Block2",2,2582,"Include"
"KL2012_e3","KL2012_e3_10",2,149,0,"Paintings-Paintings","Block2",1,2968,"Include"
"KL2012_e3","KL2012_e3_10",2,150,0,"Paintings-Paintings","Block2",4,2794,"Include"
"KL2012_e3","KL2012_e3_10",2,151,0,"Paintings-Paintings","Block2",2,2241,"Include"
"KL2012_e3","KL2012_e3_10",2,152,1,"Paintings-Paintings","Block2",6,1680,"Include"
"KL2012_e3","KL2012_e3_10",2,153,1,"Paintings-Paintings","Block2",6,1286,"Include"
"KL2012_e3","KL2012_e3_10",2,154,0,"Paintings-Paintings","Block2",2,2427,"Include"
"KL2012_e3","KL2012_e3_10",2,155,0,"Paintings-Paintings","Block2",1,2401,"Include"
"KL2012_e3","KL2012_e3_10",2,156,1,"Paintings-Paintings","Block2",3,7434,"Include"
"KL2012_e3","KL2012_e3_10",2,157,1,"Paintings-Paintings","Block2",4,4676,"Include"
"KL2012_e3","KL2012_e3_10",2,158,0,"Paintings-Paintings","Block2",1,1902,"Include"
"KL2012_e3","KL2012_e3_10",2,159,1,"Paintings-Paintings","Block2",6,1547,"Include"
"KL2012_e3","KL2012_e3_10",2,160,1,"Paintings-Paintings","Block2",6,2917,"Include"
"KL2012_e3","KL2012_e3_10",2,161,0,"Paintings-Paintings","Block2",1,808,"Include"
"KL2012_e3","KL2012_e3_10",2,162,1,"Paintings-Paintings","Block2",6,2433,"Include"
"KL2012_e3","KL2012_e3_10",2,163,1,"Paintings-Paintings","Block2",6,1529,"Include"
"KL2012_e3","KL2012_e3_10",2,164,1,"Paintings-Paintings","Block2",6,1301,"Include"
"KL2012_e3","KL2012_e3_10",2,165,0,"Paintings-Paintings","Block2",1,2394,"Include"
"KL2012_e3","KL2012_e3_10",2,166,1,"Paintings-Paintings","Block2",6,1539,"Include"
"KL2012_e3","KL2012_e3_10",2,167,1,"Paintings-Paintings","Block2",6,2206,"Include"
"KL2012_e3","KL2012_e3_10",2,168,0,"Paintings-Paintings","Block2",5,4590,"Include"
"KL2012_e3","KL2012_e3_10",2,169,0,"Paintings-Paintings","Block2",4,2172,"Include"
"KL2012_e3","KL2012_e3_10",2,170,0,"Paintings-Paintings","Block2",2,2126,"Include"
"KL2012_e3","KL2012_e3_10",2,171,0,"Paintings-Paintings","Block2",1,3856,"Include"
"KL2012_e3","KL2012_e3_10",2,172,0,"Paintings-Paintings","Block2",2,1516,"Include"
"KL2012_e3","KL2012_e3_10",2,173,1,"Paintings-Paintings","Block2",6,1625,"Include"
"KL2012_e3","KL2012_e3_10",2,174,1,"Paintings-Paintings","Block2",3,3169,"Include"
"KL2012_e3","KL2012_e3_10",2,175,1,"Paintings-Paintings","Block2",6,2282,"Include"
"KL2012_e3","KL2012_e3_10",2,176,0,"Paintings-Paintings","Block2",1,2567,"Include"
"KL2012_e3","KL2012_e3_10",2,177,1,"Paintings-Paintings","Block2",3,3688,"Include"
"KL2012_e3","KL2012_e3_10",2,178,0,"Paintings-Paintings","Block2",1,1771,"Include"
"KL2012_e3","KL2012_e3_10",2,179,0,"Paintings-Paintings","Block2",4,7053,"Include"
"KL2012_e3","KL2012_e3_10",2,180,0,"Paintings-Paintings","Block2",1,2854,"Include"
"KL2012_e3","KL2012_e3_10",2,181,1,"Paintings-Paintings","Block2",1,6988,"Include"
"KL2012_e3","KL2012_e3_10",2,182,1,"Paintings-Paintings","Block2",6,2904,"Include"
"KL2012_e3","KL2012_e3_10",2,183,1,"Paintings-Paintings","Block2",6,1564,"Include"
"KL2012_e3","KL2012_e3_10",2,184,1,"Paintings-Paintings","Block2",2,2086,"Include"
"KL2012_e3","KL2012_e3_10",2,185,0,"Paintings-Paintings","Block2",1,2522,"Include"
"KL2012_e3","KL2012_e3_10",2,186,1,"Paintings-Paintings","Block2",6,1694,"Include"
"KL2012_e3","KL2012_e3_10",2,187,1,"Paintings-Paintings","Block2",6,2164,"Include"
"KL2012_e3","KL2012_e3_10",2,188,0,"Paintings-Paintings","Block2",1,2405,"Include"
"KL2012_e3","KL2012_e3_10",2,189,0,"Paintings-Paintings","Block2",2,5388,"Include"
"KL2012_e3","KL2012_e3_10",2,190,1,"Paintings-Paintings","Block2",3,5850,"Include"
"KL2012_e3","KL2012_e3_10",2,191,1,"Paintings-Paintings","Block2",6,2197,"Include"
"KL2012_e3","KL2012_e3_10",2,192,1,"Paintings-Paintings","Block2",6,1798,"Include"
"KL2012_e3","KL2012_e3_101",1,1,0,"Paintings-Paintings","Block1",2,4525,"Include"
"KL2012_e3","KL2012_e3_101",1,2,0,"Paintings-Paintings","Block1",2,3439,"Include"
"KL2012_e3","KL2012_e3_101",1,3,1,"Paintings-Paintings","Block1",6,2780,"Include"
"KL2012_e3","KL2012_e3_101",1,4,1,"Paintings-Paintings","Block1",6,1621,"Include"
"KL2012_e3","KL2012_e3_101",1,5,1,"Paintings-Paintings","Block1",6,989,"Include"
"KL2012_e3","KL2012_e3_101",1,6,0,"Paintings-Paintings","Block1",1,2847,"Include"
"KL2012_e3","KL2012_e3_101",1,7,1,"Paintings-Paintings","Block1",5,3685,"Include"
"KL2012_e3","KL2012_e3_101",1,8,1,"Paintings-Paintings","Block1",3,2937,"Include"
"KL2012_e3","KL2012_e3_101",1,9,0,"Paintings-Paintings","Block1",2,1739,"Include"
"KL2012_e3","KL2012_e3_101",1,10,1,"Paintings-Paintings","Block1",4,3518,"Include"
"KL2012_e3","KL2012_e3_101",1,11,0,"Paintings-Paintings","Block1",3,2953,"Include"
"KL2012_e3","KL2012_e3_101",1,12,0,"Paintings-Paintings","Block1",2,2410,"Include"
"KL2012_e3","KL2012_e3_101",1,13,0,"Paintings-Paintings","Block1",2,1378,"Include"
"KL2012_e3","KL2012_e3_101",1,14,0,"Paintings-Paintings","Block1",1,1572,"Include"
"KL2012_e3","KL2012_e3_101",1,15,1,"Paintings-Paintings","Block1",5,2430,"Include"
"KL2012_e3","KL2012_e3_101",1,16,0,"Paintings-Paintings","Block1",3,2598,"Include"
"KL2012_e3","KL2012_e3_101",1,17,1,"Paintings-Paintings","Block1",6,2710,"Include"
"KL2012_e3","KL2012_e3_101",1,18,1,"Paintings-Paintings","Block1",6,1490,"Include"
"KL2012_e3","KL2012_e3_101",1,19,1,"Paintings-Paintings","Block1",3,4062,"Include"
"KL2012_e3","KL2012_e3_101",1,20,0,"Paintings-Paintings","Block1",3,2194,"Include"
"KL2012_e3","KL2012_e3_101",1,21,0,"Paintings-Paintings","Block1",3,1971,"Include"
"KL2012_e3","KL2012_e3_101",1,22,0,"Paintings-Paintings","Block1",1,1533,"Include"
"KL2012_e3","KL2012_e3_101",1,23,0,"Paintings-Paintings","Block1",2,1769,"Include"
"KL2012_e3","KL2012_e3_101",1,24,1,"Paintings-Paintings","Block1",5,2091,"Include"
"KL2012_e3","KL2012_e3_101",1,25,0,"Paintings-Paintings","Block1",4,2191,"Include"
"KL2012_e3","KL2012_e3_101",1,26,0,"Paintings-Paintings","Block1",4,2896,"Include"
"KL2012_e3","KL2012_e3_101",1,27,1,"Paintings-Paintings","Block1",3,1876,"Include"
"KL2012_e3","KL2012_e3_101",1,28,1,"Paintings-Paintings","Block1",3,3442,"Include"
"KL2012_e3","KL2012_e3_101",1,29,1,"Paintings-Paintings","Block1",6,2160,"Include"
"KL2012_e3","KL2012_e3_101",1,30,1,"Paintings-Paintings","Block1",3,2034,"Include"
"KL2012_e3","KL2012_e3_101",1,31,0,"Paintings-Paintings","Block1",2,1977,"Include"
"KL2012_e3","KL2012_e3_101",1,32,1,"Paintings-Paintings","Block1",2,1827,"Include"
"KL2012_e3","KL2012_e3_101",1,33,1,"Paintings-Paintings","Block1",6,1795,"Include"
"KL2012_e3","KL2012_e3_101",1,34,1,"Paintings-Paintings","Block1",1,1412,"Include"
"KL2012_e3","KL2012_e3_101",1,35,0,"Paintings-Paintings","Block1",2,2997,"Include"
"KL2012_e3","KL2012_e3_101",1,36,0,"Paintings-Paintings","Block1",1,1269,"Include"
"KL2012_e3","KL2012_e3_101",1,37,0,"Paintings-Paintings","Block1",1,2443,"Include"
"KL2012_e3","KL2012_e3_101",1,38,0,"Paintings-Paintings","Block1",1,1889,"Include"
"KL2012_e3","KL2012_e3_101",1,39,1,"Paintings-Paintings","Block1",2,1742,"Include"
"KL2012_e3","KL2012_e3_101",1,40,0,"Paintings-Paintings","Block1",2,2642,"Include"
"KL2012_e3","KL2012_e3_101",1,41,0,"Paintings-Paintings","Block1",2,2256,"Include"
"KL2012_e3","KL2012_e3_101",1,42,1,"Paintings-Paintings","Block1",5,2734,"Include"
"KL2012_e3","KL2012_e3_101",1,43,1,"Paintings-Paintings","Block1",3,2313,"Include"
"KL2012_e3","KL2012_e3_101",1,44,1,"Paintings-Paintings","Block1",6,1781,"Include"
"KL2012_e3","KL2012_e3_101",1,45,1,"Paintings-Paintings","Block1",6,1447,"Include"
"KL2012_e3","KL2012_e3_101",1,46,0,"Paintings-Paintings","Block1",2,2886,"Include"
"KL2012_e3","KL2012_e3_101",1,47,0,"Paintings-Paintings","Block1",3,1723,"Include"
"KL2012_e3","KL2012_e3_101",1,48,0,"Paintings-Paintings","Block1",3,3631,"Include"
"KL2012_e3","KL2012_e3_101",1,49,0,"Paintings-Paintings","Block1",3,2325,"Include"
"KL2012_e3","KL2012_e3_101",1,50,0,"Paintings-Paintings","Block1",2,1824,"Include"
"KL2012_e3","KL2012_e3_101",1,51,1,"Paintings-Paintings","Block1",6,2128,"Include"
"KL2012_e3","KL2012_e3_101",1,52,0,"Paintings-Paintings","Block1",2,2803,"Include"
"KL2012_e3","KL2012_e3_101",1,53,1,"Paintings-Paintings","Block1",1,1035,"Include"
"KL2012_e3","KL2012_e3_101",1,54,1,"Paintings-Paintings","Block1",1,1067,"Include"
"KL2012_e3","KL2012_e3_101",1,55,0,"Paintings-Paintings","Block1",1,1177,"Include"
"KL2012_e3","KL2012_e3_101",1,56,0,"Paintings-Paintings","Block1",1,1668,"Include"
"KL2012_e3","KL2012_e3_101",1,57,1,"Paintings-Paintings","Block1",4,4074,"Include"
"KL2012_e3","KL2012_e3_101",1,58,1,"Paintings-Paintings","Block1",6,1582,"Include"
"KL2012_e3","KL2012_e3_101",1,59,1,"Paintings-Paintings","Block1",2,6408,"Include"
"KL2012_e3","KL2012_e3_101",1,60,0,"Paintings-Paintings","Block1",1,2204,"Include"
"KL2012_e3","KL2012_e3_101",1,61,0,"Paintings-Paintings","Block1",2,1548,"Include"
"KL2012_e3","KL2012_e3_101",1,62,0,"Paintings-Paintings","Block1",3,3511,"Include"
"KL2012_e3","KL2012_e3_101",1,63,0,"Paintings-Paintings","Block1",1,1314,"Include"
"KL2012_e3","KL2012_e3_101",1,64,1,"Paintings-Paintings","Block1",3,3911,"Include"
"KL2012_e3","KL2012_e3_101",1,65,1,"Paintings-Paintings","Block1",3,2402,"Include"
"KL2012_e3","KL2012_e3_101",1,66,1,"Paintings-Paintings","Block1",6,2234,"Include"
"KL2012_e3","KL2012_e3_101",1,67,0,"Paintings-Paintings","Block1",1,1642,"Include"
"KL2012_e3","KL2012_e3_101",1,68,1,"Paintings-Paintings","Block1",6,2321,"Include"
"KL2012_e3","KL2012_e3_101",1,69,0,"Paintings-Paintings","Block1",2,2172,"Include"
"KL2012_e3","KL2012_e3_101",1,70,0,"Paintings-Paintings","Block1",6,1742,"Include"
"KL2012_e3","KL2012_e3_101",1,71,0,"Paintings-Paintings","Block1",2,4609,"Include"
"KL2012_e3","KL2012_e3_101",1,72,0,"Paintings-Paintings","Block1",2,1823,"Include"
"KL2012_e3","KL2012_e3_101",1,73,1,"Paintings-Paintings","Block1",3,1710,"Include"
"KL2012_e3","KL2012_e3_101",1,74,0,"Paintings-Paintings","Block1",2,2899,"Include"
"KL2012_e3","KL2012_e3_101",1,75,0,"Paintings-Paintings","Block1",2,1031,"Include"
"KL2012_e3","KL2012_e3_101",1,76,0,"Paintings-Paintings","Block1",3,1735,"Include"
"KL2012_e3","KL2012_e3_101",1,77,1,"Paintings-Paintings","Block1",6,1691,"Include"
"KL2012_e3","KL2012_e3_101",1,78,1,"Paintings-Paintings","Block1",3,1680,"Include"
"KL2012_e3","KL2012_e3_101",1,79,0,"Paintings-Paintings","Block1",2,1350,"Include"
"KL2012_e3","KL2012_e3_101",1,80,1,"Paintings-Paintings","Block1",2,1449,"Include"
"KL2012_e3","KL2012_e3_101",1,81,1,"Paintings-Paintings","Block1",2,1113,"Include"
"KL2012_e3","KL2012_e3_101",1,82,1,"Paintings-Paintings","Block1",6,1686,"Include"
"KL2012_e3","KL2012_e3_101",1,83,1,"Paintings-Paintings","Block1",3,3819,"Include"
"KL2012_e3","KL2012_e3_101",1,84,1,"Paintings-Paintings","Block1",2,2554,"Include"
"KL2012_e3","KL2012_e3_101",1,85,1,"Paintings-Paintings","Block1",6,1691,"Include"
"KL2012_e3","KL2012_e3_101",1,86,0,"Paintings-Paintings","Block1",2,2689,"Include"
"KL2012_e3","KL2012_e3_101",1,87,1,"Paintings-Paintings","Block1",6,3980,"Include"
"KL2012_e3","KL2012_e3_101",1,88,0,"Paintings-Paintings","Block1",2,1412,"Include"
"KL2012_e3","KL2012_e3_101",1,89,0,"Paintings-Paintings","Block1",2,1204,"Include"
"KL2012_e3","KL2012_e3_101",1,90,0,"Paintings-Paintings","Block1",3,2877,"Include"
"KL2012_e3","KL2012_e3_101",1,91,1,"Paintings-Paintings","Block1",6,3154,"Include"
"KL2012_e3","KL2012_e3_101",1,92,1,"Paintings-Paintings","Block1",5,2843,"Include"
"KL2012_e3","KL2012_e3_101",1,93,1,"Paintings-Paintings","Block1",6,1442,"Include"
"KL2012_e3","KL2012_e3_101",1,94,1,"Paintings-Paintings","Block1",6,1793,"Include"
"KL2012_e3","KL2012_e3_101",1,95,1,"Paintings-Paintings","Block1",5,4114,"Include"
"KL2012_e3","KL2012_e3_101",1,96,0,"Paintings-Paintings","Block1",2,2084,"Include"
"KL2012_e3","KL2012_e3_101",2,97,1,"Paintings-Paintings","Block2",6,2543,"Include"
"KL2012_e3","KL2012_e3_101",2,98,1,"Paintings-Paintings","Block2",4,4417,"Include"
"KL2012_e3","KL2012_e3_101",2,99,1,"Paintings-Paintings","Block2",6,1623,"Include"
"KL2012_e3","KL2012_e3_101",2,100,0,"Paintings-Paintings","Block2",1,3423,"Include"
"KL2012_e3","KL2012_e3_101",2,101,0,"Paintings-Paintings","Block2",3,2254,"Include"
"KL2012_e3","KL2012_e3_101",2,102,1,"Paintings-Paintings","Block2",3,3308,"Include"
"KL2012_e3","KL2012_e3_101",2,103,1,"Paintings-Paintings","Block2",6,1759,"Include"
"KL2012_e3","KL2012_e3_101",2,104,1,"Paintings-Paintings","Block2",6,705,"Include"
"KL2012_e3","KL2012_e3_101",2,105,0,"Paintings-Paintings","Block2",3,2959,"Include"
"KL2012_e3","KL2012_e3_101",2,106,0,"Paintings-Paintings","Block2",1,1840,"Include"
"KL2012_e3","KL2012_e3_101",2,107,1,"Paintings-Paintings","Block2",6,3103,"Include"
"KL2012_e3","KL2012_e3_101",2,108,0,"Paintings-Paintings","Block2",2,2074,"Include"
"KL2012_e3","KL2012_e3_101",2,109,1,"Paintings-Paintings","Block2",6,1664,"Include"
"KL2012_e3","KL2012_e3_101",2,110,0,"Paintings-Paintings","Block2",1,1574,"Include"
"KL2012_e3","KL2012_e3_101",2,111,0,"Paintings-Paintings","Block2",1,4032,"Include"
"KL2012_e3","KL2012_e3_101",2,112,1,"Paintings-Paintings","Block2",4,2486,"Include"
"KL2012_e3","KL2012_e3_101",2,113,1,"Paintings-Paintings","Block2",6,1435,"Include"
"KL2012_e3","KL2012_e3_101",2,114,1,"Paintings-Paintings","Block2",6,1035,"Include"
"KL2012_e3","KL2012_e3_101",2,115,0,"Paintings-Paintings","Block2",4,2715,"Include"
"KL2012_e3","KL2012_e3_101",2,116,1,"Paintings-Paintings","Block2",6,1318,"Include"
"KL2012_e3","KL2012_e3_101",2,117,1,"Paintings-Paintings","Block2",6,698,"Include"
"KL2012_e3","KL2012_e3_101",2,118,1,"Paintings-Paintings","Block2",6,697,"Include"
"KL2012_e3","KL2012_e3_101",2,119,0,"Paintings-Paintings","Block2",5,1911,"Include"
"KL2012_e3","KL2012_e3_101",2,120,0,"Paintings-Paintings","Block2",1,1299,"Include"
"KL2012_e3","KL2012_e3_101",2,121,0,"Paintings-Paintings","Block2",2,1241,"Include"
"KL2012_e3","KL2012_e3_101",2,122,1,"Paintings-Paintings","Block2",2,1872,"Include"
"KL2012_e3","KL2012_e3_101",2,123,0,"Paintings-Paintings","Block2",5,3438,"Include"
"KL2012_e3","KL2012_e3_101",2,124,1,"Paintings-Paintings","Block2",6,1020,"Include"
"KL2012_e3","KL2012_e3_101",2,125,0,"Paintings-Paintings","Block2",3,2332,"Include"
"KL2012_e3","KL2012_e3_101",2,126,1,"Paintings-Paintings","Block2",6,1223,"Include"
"KL2012_e3","KL2012_e3_101",2,127,0,"Paintings-Paintings","Block2",1,1616,"Include"
"KL2012_e3","KL2012_e3_101",2,128,1,"Paintings-Paintings","Block2",6,1096,"Include"
"KL2012_e3","KL2012_e3_101",2,129,0,"Paintings-Paintings","Block2",6,758,"Include"
"KL2012_e3","KL2012_e3_101",2,130,0,"Paintings-Paintings","Block2",2,1489,"Include"
"KL2012_e3","KL2012_e3_101",2,131,1,"Paintings-Paintings","Block2",2,2078,"Include"
"KL2012_e3","KL2012_e3_101",2,132,0,"Paintings-Paintings","Block2",4,2324,"Include"
"KL2012_e3","KL2012_e3_101",2,133,1,"Paintings-Paintings","Block2",4,1567,"Include"
"KL2012_e3","KL2012_e3_101",2,134,1,"Paintings-Paintings","Block2",6,1722,"Include"
"KL2012_e3","KL2012_e3_101",2,135,0,"Paintings-Paintings","Block2",3,2781,"Include"
"KL2012_e3","KL2012_e3_101",2,136,1,"Paintings-Paintings","Block2",6,1206,"Include"
"KL2012_e3","KL2012_e3_101",2,137,0,"Paintings-Paintings","Block2",3,1711,"Include"
"KL2012_e3","KL2012_e3_101",2,138,0,"Paintings-Paintings","Block2",2,1828,"Include"
"KL2012_e3","KL2012_e3_101",2,139,0,"Paintings-Paintings","Block2",1,1396,"Include"
"KL2012_e3","KL2012_e3_101",2,140,0,"Paintings-Paintings","Block2",2,821,"Include"
"KL2012_e3","KL2012_e3_101",2,141,1,"Paintings-Paintings","Block2",4,2846,"Include"
"KL2012_e3","KL2012_e3_101",2,142,0,"Paintings-Paintings","Block2",2,2196,"Include"
"KL2012_e3","KL2012_e3_101",2,143,1,"Paintings-Paintings","Block2",6,3445,"Include"
"KL2012_e3","KL2012_e3_101",2,144,1,"Paintings-Paintings","Block2",3,1794,"Include"
"KL2012_e3","KL2012_e3_101",2,145,1,"Paintings-Paintings","Block2",6,1811,"Include"
"KL2012_e3","KL2012_e3_101",2,146,1,"Paintings-Paintings","Block2",6,708,"Include"
"KL2012_e3","KL2012_e3_101",2,147,0,"Paintings-Paintings","Block2",2,3473,"Include"
"KL2012_e3","KL2012_e3_101",2,148,1,"Paintings-Paintings","Block2",6,3261,"Include"
"KL2012_e3","KL2012_e3_101",2,149,0,"Paintings-Paintings","Block2",2,1571,"Include"
"KL2012_e3","KL2012_e3_101",2,150,1,"Paintings-Paintings","Block2",6,1341,"Include"
"KL2012_e3","KL2012_e3_101",2,151,1,"Paintings-Paintings","Block2",6,688,"Include"
"KL2012_e3","KL2012_e3_101",2,152,0,"Paintings-Paintings","Block2",3,1438,"Include"
"KL2012_e3","KL2012_e3_101",2,153,0,"Paintings-Paintings","Block2",2,1486,"Include"
"KL2012_e3","KL2012_e3_101",2,154,0,"Paintings-Paintings","Block2",2,1803,"Include"
"KL2012_e3","KL2012_e3_101",2,155,0,"Paintings-Paintings","Block2",2,2396,"Include"
"KL2012_e3","KL2012_e3_101",2,156,0,"Paintings-Paintings","Block2",2,1604,"Include"
"KL2012_e3","KL2012_e3_101",2,157,1,"Paintings-Paintings","Block2",6,1357,"Include"
"KL2012_e3","KL2012_e3_101",2,158,1,"Paintings-Paintings","Block2",6,816,"Include"
"KL2012_e3","KL2012_e3_101",2,159,1,"Paintings-Paintings","Block2",6,1641,"Include"
"KL2012_e3","KL2012_e3_101",2,160,1,"Paintings-Paintings","Block2",6,816,"Include"
"KL2012_e3","KL2012_e3_101",2,161,0,"Paintings-Paintings","Block2",2,2874,"Include"
"KL2012_e3","KL2012_e3_101",2,162,1,"Paintings-Paintings","Block2",2,2159,"Include"
"KL2012_e3","KL2012_e3_101",2,163,1,"Paintings-Paintings","Block2",6,1841,"Include"
"KL2012_e3","KL2012_e3_101",2,164,1,"Paintings-Paintings","Block2",6,960,"Include"
"KL2012_e3","KL2012_e3_101",2,165,0,"Paintings-Paintings","Block2",3,1443,"Include"
"KL2012_e3","KL2012_e3_101",2,166,0,"Paintings-Paintings","Block2",1,1538,"Include"
"KL2012_e3","KL2012_e3_101",2,167,0,"Paintings-Paintings","Block2",1,1662,"Include"
"KL2012_e3","KL2012_e3_101",2,168,0,"Paintings-Paintings","Block2",3,2132,"Include"
"KL2012_e3","KL2012_e3_101",2,169,1,"Paintings-Paintings","Block2",5,5287,"Include"
"KL2012_e3","KL2012_e3_101",2,170,0,"Paintings-Paintings","Block2",2,1337,"Include"
"KL2012_e3","KL2012_e3_101",2,171,0,"Paintings-Paintings","Block2",2,1629,"Include"
"KL2012_e3","KL2012_e3_101",2,172,0,"Paintings-Paintings","Block2",2,2261,"Include"
"KL2012_e3","KL2012_e3_101",2,173,1,"Paintings-Paintings","Block2",6,1331,"Include"
"KL2012_e3","KL2012_e3_101",2,174,1,"Paintings-Paintings","Block2",6,695,"Include"
"KL2012_e3","KL2012_e3_101",2,175,0,"Paintings-Paintings","Block2",6,965,"Include"
"KL2012_e3","KL2012_e3_101",2,176,1,"Paintings-Paintings","Block2",6,729,"Include"
"KL2012_e3","KL2012_e3_101",2,177,1,"Paintings-Paintings","Block2",5,3733,"Include"
"KL2012_e3","KL2012_e3_101",2,178,0,"Paintings-Paintings","Block2",4,3559,"Include"
"KL2012_e3","KL2012_e3_101",2,179,0,"Paintings-Paintings","Block2",2,1872,"Include"
"KL2012_e3","KL2012_e3_101",2,180,1,"Paintings-Paintings","Block2",6,3422,"Include"
"KL2012_e3","KL2012_e3_101",2,181,0,"Paintings-Paintings","Block2",3,2044,"Include"
"KL2012_e3","KL2012_e3_101",2,182,0,"Paintings-Paintings","Block2",1,1507,"Include"
"KL2012_e3","KL2012_e3_101",2,183,0,"Paintings-Paintings","Block2",2,1120,"Include"
"KL2012_e3","KL2012_e3_101",2,184,1,"Paintings-Paintings","Block2",6,1452,"Include"
"KL2012_e3","KL2012_e3_101",2,185,0,"Paintings-Paintings","Block2",2,1771,"Include"
"KL2012_e3","KL2012_e3_101",2,186,1,"Paintings-Paintings","Block2",6,3981,"Include"
"KL2012_e3","KL2012_e3_101",2,187,1,"Paintings-Paintings","Block2",4,3764,"Include"
"KL2012_e3","KL2012_e3_101",2,188,0,"Paintings-Paintings","Block2",3,1365,"Include"
"KL2012_e3","KL2012_e3_101",2,189,0,"Paintings-Paintings","Block2",1,1320,"Include"
"KL2012_e3","KL2012_e3_101",2,190,1,"Paintings-Paintings","Block2",6,1324,"Include"
"KL2012_e3","KL2012_e3_101",2,191,1,"Paintings-Paintings","Block2",6,2016,"Include"
"KL2012_e3","KL2012_e3_101",2,192,0,"Paintings-Paintings","Block2",3,1801,"Include"
"KL2012_e3","KL2012_e3_103",1,1,1,"Paintings-Paintings","Block1",6,7939,"Include"
"KL2012_e3","KL2012_e3_103",1,2,1,"Paintings-Paintings","Block1",1,4073,"Include"
"KL2012_e3","KL2012_e3_103",1,3,0,"Paintings-Paintings","Block1",1,2860,"Include"
"KL2012_e3","KL2012_e3_103",1,4,1,"Paintings-Paintings","Block1",5,5266,"Include"
"KL2012_e3","KL2012_e3_103",1,5,1,"Paintings-Paintings","Block1",6,2341,"Include"
"KL2012_e3","KL2012_e3_103",1,6,1,"Paintings-Paintings","Block1",1,1375,"Include"
"KL2012_e3","KL2012_e3_103",1,7,0,"Paintings-Paintings","Block1",1,1697,"Include"
"KL2012_e3","KL2012_e3_103",1,8,1,"Paintings-Paintings","Block1",5,5542,"Include"
"KL2012_e3","KL2012_e3_103",1,9,0,"Paintings-Paintings","Block1",1,2397,"Include"
"KL2012_e3","KL2012_e3_103",1,10,0,"Paintings-Paintings","Block1",4,4293,"Include"
"KL2012_e3","KL2012_e3_103",1,11,0,"Paintings-Paintings","Block1",2,5934,"Include"
"KL2012_e3","KL2012_e3_103",1,12,0,"Paintings-Paintings","Block1",1,3143,"Include"
"KL2012_e3","KL2012_e3_103",1,13,0,"Paintings-Paintings","Block1",2,6720,"Include"
"KL2012_e3","KL2012_e3_103",1,14,1,"Paintings-Paintings","Block1",3,2392,"Include"
"KL2012_e3","KL2012_e3_103",1,15,1,"Paintings-Paintings","Block1",4,4032,"Include"
"KL2012_e3","KL2012_e3_103",1,16,0,"Paintings-Paintings","Block1",1,2389,"Include"
"KL2012_e3","KL2012_e3_103",1,17,0,"Paintings-Paintings","Block1",1,1868,"Include"
"KL2012_e3","KL2012_e3_103",1,18,0,"Paintings-Paintings","Block1",2,6713,"Include"
"KL2012_e3","KL2012_e3_103",1,19,1,"Paintings-Paintings","Block1",2,2961,"Include"
"KL2012_e3","KL2012_e3_103",1,20,0,"Paintings-Paintings","Block1",2,2642,"Include"
"KL2012_e3","KL2012_e3_103",1,21,0,"Paintings-Paintings","Block1",2,6176,"Include"
"KL2012_e3","KL2012_e3_103",1,22,1,"Paintings-Paintings","Block1",3,1805,"Include"
"KL2012_e3","KL2012_e3_103",1,23,0,"Paintings-Paintings","Block1",2,4685,"Include"
"KL2012_e3","KL2012_e3_103",1,24,0,"Paintings-Paintings","Block1",1,2024,"Include"
"KL2012_e3","KL2012_e3_103",1,25,0,"Paintings-Paintings","Block1",1,1998,"Include"
"KL2012_e3","KL2012_e3_103",1,26,1,"Paintings-Paintings","Block1",6,3031,"Include"
"KL2012_e3","KL2012_e3_103",1,27,1,"Paintings-Paintings","Block1",6,1286,"Include"
"KL2012_e3","KL2012_e3_103",1,28,0,"Paintings-Paintings","Block1",2,2090,"Include"
"KL2012_e3","KL2012_e3_103",1,29,0,"Paintings-Paintings","Block1",1,4928,"Include"
"KL2012_e3","KL2012_e3_103",1,30,0,"Paintings-Paintings","Block1",1,4481,"Include"
"KL2012_e3","KL2012_e3_103",1,31,1,"Paintings-Paintings","Block1",2,2772,"Include"
"KL2012_e3","KL2012_e3_103",1,32,0,"Paintings-Paintings","Block1",1,3820,"Include"
"KL2012_e3","KL2012_e3_103",1,33,1,"Paintings-Paintings","Block1",5,2379,"Include"
"KL2012_e3","KL2012_e3_103",1,34,1,"Paintings-Paintings","Block1",2,2708,"Include"
"KL2012_e3","KL2012_e3_103",1,35,0,"Paintings-Paintings","Block1",3,1967,"Include"
"KL2012_e3","KL2012_e3_103",1,36,0,"Paintings-Paintings","Block1",1,1336,"Include"
"KL2012_e3","KL2012_e3_103",1,37,0,"Paintings-Paintings","Block1",2,1547,"Include"
"KL2012_e3","KL2012_e3_103",1,38,0,"Paintings-Paintings","Block1",3,3574,"Include"
"KL2012_e3","KL2012_e3_103",1,39,0,"Paintings-Paintings","Block1",1,1405,"Include"
"KL2012_e3","KL2012_e3_103",1,40,0,"Paintings-Paintings","Block1",1,2253,"Include"
"KL2012_e3","KL2012_e3_103",1,41,1,"Paintings-Paintings","Block1",6,2171,"Include"
"KL2012_e3","KL2012_e3_103",1,42,1,"Paintings-Paintings","Block1",6,2205,"Include"
"KL2012_e3","KL2012_e3_103",1,43,1,"Paintings-Paintings","Block1",5,4237,"Include"
"KL2012_e3","KL2012_e3_103",1,44,0,"Paintings-Paintings","Block1",1,1721,"Include"
"KL2012_e3","KL2012_e3_103",1,45,0,"Paintings-Paintings","Block1",5,5197,"Include"
"KL2012_e3","KL2012_e3_103",1,46,0,"Paintings-Paintings","Block1",1,2578,"Include"
"KL2012_e3","KL2012_e3_103",1,47,1,"Paintings-Paintings","Block1",2,4772,"Include"
"KL2012_e3","KL2012_e3_103",1,48,0,"Paintings-Paintings","Block1",3,3674,"Include"
"KL2012_e3","KL2012_e3_103",1,49,1,"Paintings-Paintings","Block1",1,1166,"Include"
"KL2012_e3","KL2012_e3_103",1,50,1,"Paintings-Paintings","Block1",1,1642,"Include"
"KL2012_e3","KL2012_e3_103",1,51,0,"Paintings-Paintings","Block1",1,816,"Include"
"KL2012_e3","KL2012_e3_103",1,52,0,"Paintings-Paintings","Block1",1,1641,"Include"
"KL2012_e3","KL2012_e3_103",1,53,0,"Paintings-Paintings","Block1",4,2223,"Include"
"KL2012_e3","KL2012_e3_103",1,54,1,"Paintings-Paintings","Block1",2,1327,"Include"
"KL2012_e3","KL2012_e3_103",1,55,1,"Paintings-Paintings","Block1",6,3715,"Include"
"KL2012_e3","KL2012_e3_103",1,56,1,"Paintings-Paintings","Block1",1,4070,"Include"
"KL2012_e3","KL2012_e3_103",1,57,1,"Paintings-Paintings","Block1",6,2890,"Include"
"KL2012_e3","KL2012_e3_103",1,58,1,"Paintings-Paintings","Block1",4,2254,"Include"
"KL2012_e3","KL2012_e3_103",1,59,1,"Paintings-Paintings","Block1",3,3644,"Include"
"KL2012_e3","KL2012_e3_103",1,60,0,"Paintings-Paintings","Block1",2,5473,"Include"
"KL2012_e3","KL2012_e3_103",1,61,1,"Paintings-Paintings","Block1",6,1995,"Include"
"KL2012_e3","KL2012_e3_103",1,62,0,"Paintings-Paintings","Block1",1,1859,"Include"
"KL2012_e3","KL2012_e3_103",1,63,1,"Paintings-Paintings","Block1",6,2178,"Include"
"KL2012_e3","KL2012_e3_103",1,64,0,"Paintings-Paintings","Block1",1,1282,"Include"
"KL2012_e3","KL2012_e3_103",1,65,1,"Paintings-Paintings","Block1",2,2777,"Include"
"KL2012_e3","KL2012_e3_103",1,66,0,"Paintings-Paintings","Block1",2,1217,"Include"
"KL2012_e3","KL2012_e3_103",1,67,1,"Paintings-Paintings","Block1",6,1514,"Include"
"KL2012_e3","KL2012_e3_103",1,68,1,"Paintings-Paintings","Block1",4,2855,"Include"
"KL2012_e3","KL2012_e3_103",1,69,0,"Paintings-Paintings","Block1",3,1323,"Include"
"KL2012_e3","KL2012_e3_103",1,70,0,"Paintings-Paintings","Block1",2,1551,"Include"
"KL2012_e3","KL2012_e3_103",1,71,0,"Paintings-Paintings","Block1",1,2330,"Include"
"KL2012_e3","KL2012_e3_103",1,72,0,"Paintings-Paintings","Block1",1,1141,"Include"
"KL2012_e3","KL2012_e3_103",1,73,1,"Paintings-Paintings","Block1",6,1793,"Include"
"KL2012_e3","KL2012_e3_103",1,74,0,"Paintings-Paintings","Block1",3,4066,"Include"
"KL2012_e3","KL2012_e3_103",1,75,1,"Paintings-Paintings","Block1",6,2694,"Include"
"KL2012_e3","KL2012_e3_103",1,76,0,"Paintings-Paintings","Block1",3,3345,"Include"
"KL2012_e3","KL2012_e3_103",1,77,1,"Paintings-Paintings","Block1",2,1538,"Include"
"KL2012_e3","KL2012_e3_103",1,78,1,"Paintings-Paintings","Block1",1,1438,"Include"
"KL2012_e3","KL2012_e3_103",1,79,1,"Paintings-Paintings","Block1",6,1773,"Include"
"KL2012_e3","KL2012_e3_103",1,80,1,"Paintings-Paintings","Block1",2,2079,"Include"
"KL2012_e3","KL2012_e3_103",1,81,1,"Paintings-Paintings","Block1",3,2005,"Include"
"KL2012_e3","KL2012_e3_103",1,82,0,"Paintings-Paintings","Block1",1,1708,"Include"
"KL2012_e3","KL2012_e3_103",1,83,0,"Paintings-Paintings","Block1",1,849,"Include"
"KL2012_e3","KL2012_e3_103",1,84,1,"Paintings-Paintings","Block1",2,2521,"Include"
"KL2012_e3","KL2012_e3_103",1,85,1,"Paintings-Paintings","Block1",1,2380,"Include"
"KL2012_e3","KL2012_e3_103",1,86,0,"Paintings-Paintings","Block1",1,2069,"Include"
"KL2012_e3","KL2012_e3_103",1,87,1,"Paintings-Paintings","Block1",1,2539,"Include"
"KL2012_e3","KL2012_e3_103",1,88,1,"Paintings-Paintings","Block1",3,6237,"Include"
"KL2012_e3","KL2012_e3_103",1,89,0,"Paintings-Paintings","Block1",1,1128,"Include"
"KL2012_e3","KL2012_e3_103",1,90,0,"Paintings-Paintings","Block1",1,1092,"Include"
"KL2012_e3","KL2012_e3_103",1,91,1,"Paintings-Paintings","Block1",6,4306,"Include"
"KL2012_e3","KL2012_e3_103",1,92,1,"Paintings-Paintings","Block1",6,2764,"Include"
"KL2012_e3","KL2012_e3_103",1,93,1,"Paintings-Paintings","Block1",1,1558,"Include"
"KL2012_e3","KL2012_e3_103",1,94,1,"Paintings-Paintings","Block1",3,1616,"Include"
"KL2012_e3","KL2012_e3_103",1,95,1,"Paintings-Paintings","Block1",2,1545,"Include"
"KL2012_e3","KL2012_e3_103",1,96,0,"Paintings-Paintings","Block1",4,2932,"Include"
"KL2012_e3","KL2012_e3_103",2,97,0,"Paintings-Paintings","Block2",1,4032,"Include"
"KL2012_e3","KL2012_e3_103",2,98,0,"Paintings-Paintings","Block2",1,1846,"Include"
"KL2012_e3","KL2012_e3_103",2,99,0,"Paintings-Paintings","Block2",1,1765,"Include"
"KL2012_e3","KL2012_e3_103",2,100,1,"Paintings-Paintings","Block2",1,967,"Include"
"KL2012_e3","KL2012_e3_103",2,101,0,"Paintings-Paintings","Block2",1,1018,"Include"
"KL2012_e3","KL2012_e3_103",2,102,1,"Paintings-Paintings","Block2",1,1579,"Include"
"KL2012_e3","KL2012_e3_103",2,103,0,"Paintings-Paintings","Block2",1,901,"Include"
"KL2012_e3","KL2012_e3_103",2,104,0,"Paintings-Paintings","Block2",1,986,"Include"
"KL2012_e3","KL2012_e3_103",2,105,0,"Paintings-Paintings","Block2",1,2092,"Include"
"KL2012_e3","KL2012_e3_103",2,106,0,"Paintings-Paintings","Block2",1,880,"Include"
"KL2012_e3","KL2012_e3_103",2,107,0,"Paintings-Paintings","Block2",1,1077,"Include"
"KL2012_e3","KL2012_e3_103",2,108,0,"Paintings-Paintings","Block2",1,1444,"Include"
"KL2012_e3","KL2012_e3_103",2,109,1,"Paintings-Paintings","Block2",6,3794,"Include"
"KL2012_e3","KL2012_e3_103",2,110,0,"Paintings-Paintings","Block2",4,5074,"Include"
"KL2012_e3","KL2012_e3_103",2,111,0,"Paintings-Paintings","Block2",4,1805,"Include"
"KL2012_e3","KL2012_e3_103",2,112,0,"Paintings-Paintings","Block2",1,3595,"Include"
"KL2012_e3","KL2012_e3_103",2,113,1,"Paintings-Paintings","Block2",6,1507,"Include"
"KL2012_e3","KL2012_e3_103",2,114,0,"Paintings-Paintings","Block2",1,1727,"Include"
"KL2012_e3","KL2012_e3_103",2,115,0,"Paintings-Paintings","Block2",1,2274,"Include"
"KL2012_e3","KL2012_e3_103",2,116,0,"Paintings-Paintings","Block2",1,2895,"Include"
"KL2012_e3","KL2012_e3_103",2,117,0,"Paintings-Paintings","Block2",1,978,"Include"
"KL2012_e3","KL2012_e3_103",2,118,1,"Paintings-Paintings","Block2",1,3141,"Include"
"KL2012_e3","KL2012_e3_103",2,119,1,"Paintings-Paintings","Block2",6,2094,"Include"
"KL2012_e3","KL2012_e3_103",2,120,0,"Paintings-Paintings","Block2",1,2307,"Include"
"KL2012_e3","KL2012_e3_103",2,121,0,"Paintings-Paintings","Block2",1,1358,"Include"
"KL2012_e3","KL2012_e3_103",2,122,1,"Paintings-Paintings","Block2",1,849,"Include"
"KL2012_e3","KL2012_e3_103",2,123,1,"Paintings-Paintings","Block2",6,4618,"Include"
"KL2012_e3","KL2012_e3_103",2,124,1,"Paintings-Paintings","Block2",6,1639,"Include"
"KL2012_e3","KL2012_e3_103",2,125,0,"Paintings-Paintings","Block2",3,3951,"Include"
"KL2012_e3","KL2012_e3_103",2,126,0,"Paintings-Paintings","Block2",3,2999,"Include"
"KL2012_e3","KL2012_e3_103",2,127,1,"Paintings-Paintings","Block2",6,2695,"Include"
"KL2012_e3","KL2012_e3_103",2,128,1,"Paintings-Paintings","Block2",6,1155,"Include"
"KL2012_e3","KL2012_e3_103",2,129,0,"Paintings-Paintings","Block2",1,1358,"Include"
"KL2012_e3","KL2012_e3_103",2,130,1,"Paintings-Paintings","Block2",6,3520,"Include"
"KL2012_e3","KL2012_e3_103",2,131,1,"Paintings-Paintings","Block2",1,1019,"Include"
"KL2012_e3","KL2012_e3_103",2,132,0,"Paintings-Paintings","Block2",5,2474,"Include"
"KL2012_e3","KL2012_e3_103",2,133,1,"Paintings-Paintings","Block2",6,2400,"Include"
"KL2012_e3","KL2012_e3_103",2,134,0,"Paintings-Paintings","Block2",1,1976,"Include"
"KL2012_e3","KL2012_e3_103",2,135,1,"Paintings-Paintings","Block2",6,1810,"Include"
"KL2012_e3","KL2012_e3_103",2,136,1,"Paintings-Paintings","Block2",1,4962,"Include"
"KL2012_e3","KL2012_e3_103",2,137,0,"Paintings-Paintings","Block2",1,1249,"Include"
"KL2012_e3","KL2012_e3_103",2,138,0,"Paintings-Paintings","Block2",1,935,"Include"
"KL2012_e3","KL2012_e3_103",2,139,0,"Paintings-Paintings","Block2",1,1851,"Include"
"KL2012_e3","KL2012_e3_103",2,140,0,"Paintings-Paintings","Block2",1,1338,"Include"
"KL2012_e3","KL2012_e3_103",2,141,1,"Paintings-Paintings","Block2",6,1534,"Include"
"KL2012_e3","KL2012_e3_103",2,142,0,"Paintings-Paintings","Block2",3,3000,"Include"
"KL2012_e3","KL2012_e3_103",2,143,1,"Paintings-Paintings","Block2",6,3096,"Include"
"KL2012_e3","KL2012_e3_103",2,144,0,"Paintings-Paintings","Block2",1,3940,"Include"
"KL2012_e3","KL2012_e3_103",2,145,1,"Paintings-Paintings","Block2",1,1229,"Include"
"KL2012_e3","KL2012_e3_103",2,146,1,"Paintings-Paintings","Block2",1,1157,"Include"
"KL2012_e3","KL2012_e3_103",2,147,0,"Paintings-Paintings","Block2",1,2209,"Include"
"KL2012_e3","KL2012_e3_103",2,148,0,"Paintings-Paintings","Block2",1,1089,"Include"
"KL2012_e3","KL2012_e3_103",2,149,1,"Paintings-Paintings","Block2",4,3806,"Include"
"KL2012_e3","KL2012_e3_103",2,150,1,"Paintings-Paintings","Block2",1,2957,"Include"
"KL2012_e3","KL2012_e3_103",2,151,1,"Paintings-Paintings","Block2",6,3502,"Include"
"KL2012_e3","KL2012_e3_103",2,152,1,"Paintings-Paintings","Block2",1,1770,"Include"
"KL2012_e3","KL2012_e3_103",2,153,0,"Paintings-Paintings","Block2",1,2300,"Include"
"KL2012_e3","KL2012_e3_103",2,154,1,"Paintings-Paintings","Block2",6,1416,"Include"
"KL2012_e3","KL2012_e3_103",2,155,1,"Paintings-Paintings","Block2",6,1065,"Include"
"KL2012_e3","KL2012_e3_103",2,156,0,"Paintings-Paintings","Block2",4,2088,"Include"
"KL2012_e3","KL2012_e3_103",2,157,0,"Paintings-Paintings","Block2",1,4716,"Include"
"KL2012_e3","KL2012_e3_103",2,158,1,"Paintings-Paintings","Block2",6,1525,"Include"
"KL2012_e3","KL2012_e3_103",2,159,1,"Paintings-Paintings","Block2",6,2641,"Include"
"KL2012_e3","KL2012_e3_103",2,160,1,"Paintings-Paintings","Block2",3,2560,"Include"
"KL2012_e3","KL2012_e3_103",2,161,0,"Paintings-Paintings","Block2",1,2753,"Include"
"KL2012_e3","KL2012_e3_103",2,162,1,"Paintings-Paintings","Block2",6,1834,"Include"
"KL2012_e3","KL2012_e3_103",2,163,1,"Paintings-Paintings","Block2",6,1338,"Include"
"KL2012_e3","KL2012_e3_103",2,164,0,"Paintings-Paintings","Block2",2,4574,"Include"
"KL2012_e3","KL2012_e3_103",2,165,0,"Paintings-Paintings","Block2",1,4221,"Include"
"KL2012_e3","KL2012_e3_103",2,166,1,"Paintings-Paintings","Block2",1,1179,"Include"
"KL2012_e3","KL2012_e3_103",2,167,1,"Paintings-Paintings","Block2",6,1317,"Include"
"KL2012_e3","KL2012_e3_103",2,168,1,"Paintings-Paintings","Block2",6,1434,"Include"
"KL2012_e3","KL2012_e3_103",2,169,0,"Paintings-Paintings","Block2",2,3065,"Include"
"KL2012_e3","KL2012_e3_103",2,170,1,"Paintings-Paintings","Block2",1,1256,"Include"
"KL2012_e3","KL2012_e3_103",2,171,1,"Paintings-Paintings","Block2",1,959,"Include"
"KL2012_e3","KL2012_e3_103",2,172,1,"Paintings-Paintings","Block2",3,6914,"Include"
"KL2012_e3","KL2012_e3_103",2,173,1,"Paintings-Paintings","Block2",2,2034,"Include"
"KL2012_e3","KL2012_e3_103",2,174,1,"Paintings-Paintings","Block2",6,1256,"Include"
"KL2012_e3","KL2012_e3_103",2,175,1,"Paintings-Paintings","Block2",4,1648,"Include"
"KL2012_e3","KL2012_e3_103",2,176,1,"Paintings-Paintings","Block2",3,3414,"Include"
"KL2012_e3","KL2012_e3_103",2,177,0,"Paintings-Paintings","Block2",1,1861,"Include"
"KL2012_e3","KL2012_e3_103",2,178,0,"Paintings-Paintings","Block2",1,962,"Include"
"KL2012_e3","KL2012_e3_103",2,179,0,"Paintings-Paintings","Block2",1,1413,"Include"
"KL2012_e3","KL2012_e3_103",2,180,1,"Paintings-Paintings","Block2",6,1206,"Include"
"KL2012_e3","KL2012_e3_103",2,181,0,"Paintings-Paintings","Block2",1,4127,"Include"
"KL2012_e3","KL2012_e3_103",2,182,1,"Paintings-Paintings","Block2",6,1457,"Include"
"KL2012_e3","KL2012_e3_103",2,183,1,"Paintings-Paintings","Block2",6,2208,"Include"
"KL2012_e3","KL2012_e3_103",2,184,0,"Paintings-Paintings","Block2",1,1791,"Include"
"KL2012_e3","KL2012_e3_103",2,185,0,"Paintings-Paintings","Block2",1,1184,"Include"
"KL2012_e3","KL2012_e3_103",2,186,1,"Paintings-Paintings","Block2",1,1562,"Include"
"KL2012_e3","KL2012_e3_103",2,187,0,"Paintings-Paintings","Block2",1,2821,"Include"
"KL2012_e3","KL2012_e3_103",2,188,1,"Paintings-Paintings","Block2",6,1291,"Include"
"KL2012_e3","KL2012_e3_103",2,189,1,"Paintings-Paintings","Block2",6,4737,"Include"
"KL2012_e3","KL2012_e3_103",2,190,0,"Paintings-Paintings","Block2",1,1657,"Include"
"KL2012_e3","KL2012_e3_103",2,191,0,"Paintings-Paintings","Block2",2,2383,"Include"
"KL2012_e3","KL2012_e3_103",2,192,1,"Paintings-Paintings","Block2",6,3737,"Include"
"KL2012_e3","KL2012_e3_105",1,1,1,"Paintings-Paintings","Block1",6,4820,"Include"
"KL2012_e3","KL2012_e3_105",1,2,0,"Paintings-Paintings","Block1",4,5289,"Include"
"KL2012_e3","KL2012_e3_105",1,3,1,"Paintings-Paintings","Block1",5,4891,"Include"
"KL2012_e3","KL2012_e3_105",1,4,0,"Paintings-Paintings","Block1",2,2971,"Include"
"KL2012_e3","KL2012_e3_105",1,5,0,"Paintings-Paintings","Block1",1,1580,"Include"
"KL2012_e3","KL2012_e3_105",1,6,0,"Paintings-Paintings","Block1",1,1269,"Include"
"KL2012_e3","KL2012_e3_105",1,7,0,"Paintings-Paintings","Block1",4,4266,"Include"
"KL2012_e3","KL2012_e3_105",1,8,1,"Paintings-Paintings","Block1",1,1430,"Include"
"KL2012_e3","KL2012_e3_105",1,9,0,"Paintings-Paintings","Block1",4,4006,"Include"
"KL2012_e3","KL2012_e3_105",1,10,1,"Paintings-Paintings","Block1",5,2252,"Include"
"KL2012_e3","KL2012_e3_105",1,11,0,"Paintings-Paintings","Block1",1,2617,"Include"
"KL2012_e3","KL2012_e3_105",1,12,0,"Paintings-Paintings","Block1",4,3289,"Include"
"KL2012_e3","KL2012_e3_105",1,13,1,"Paintings-Paintings","Block1",6,1916,"Include"
"KL2012_e3","KL2012_e3_105",1,14,0,"Paintings-Paintings","Block1",4,2040,"Include"
"KL2012_e3","KL2012_e3_105",1,15,0,"Paintings-Paintings","Block1",1,1469,"Include"
"KL2012_e3","KL2012_e3_105",1,16,1,"Paintings-Paintings","Block1",6,1916,"Include"
"KL2012_e3","KL2012_e3_105",1,17,1,"Paintings-Paintings","Block1",6,984,"Include"
"KL2012_e3","KL2012_e3_105",1,18,1,"Paintings-Paintings","Block1",6,1210,"Include"
"KL2012_e3","KL2012_e3_105",1,19,0,"Paintings-Paintings","Block1",3,3459,"Include"
"KL2012_e3","KL2012_e3_105",1,20,1,"Paintings-Paintings","Block1",2,2240,"Include"
"KL2012_e3","KL2012_e3_105",1,21,1,"Paintings-Paintings","Block1",6,1646,"Include"
"KL2012_e3","KL2012_e3_105",1,22,0,"Paintings-Paintings","Block1",2,2694,"Include"
"KL2012_e3","KL2012_e3_105",1,23,1,"Paintings-Paintings","Block1",2,1266,"Include"
"KL2012_e3","KL2012_e3_105",1,24,0,"Paintings-Paintings","Block1",2,1240,"Include"
"KL2012_e3","KL2012_e3_105",1,25,1,"Paintings-Paintings","Block1",6,2640,"Include"
"KL2012_e3","KL2012_e3_105",1,26,1,"Paintings-Paintings","Block1",4,2846,"Include"
"KL2012_e3","KL2012_e3_105",1,27,1,"Paintings-Paintings","Block1",6,2548,"Include"
"KL2012_e3","KL2012_e3_105",1,28,1,"Paintings-Paintings","Block1",2,2263,"Include"
"KL2012_e3","KL2012_e3_105",1,29,0,"Paintings-Paintings","Block1",1,1252,"Include"
"KL2012_e3","KL2012_e3_105",1,30,0,"Paintings-Paintings","Block1",1,1162,"Include"
"KL2012_e3","KL2012_e3_105",1,31,0,"Paintings-Paintings","Block1",2,2228,"Include"
"KL2012_e3","KL2012_e3_105",1,32,1,"Paintings-Paintings","Block1",6,1779,"Include"
"KL2012_e3","KL2012_e3_105",1,33,0,"Paintings-Paintings","Block1",2,1764,"Include"
"KL2012_e3","KL2012_e3_105",1,34,1,"Paintings-Paintings","Block1",5,3575,"Include"
"KL2012_e3","KL2012_e3_105",1,35,1,"Paintings-Paintings","Block1",5,1295,"Include"
"KL2012_e3","KL2012_e3_105",1,36,0,"Paintings-Paintings","Block1",1,2036,"Include"
"KL2012_e3","KL2012_e3_105",1,37,1,"Paintings-Paintings","Block1",1,1099,"Include"
"KL2012_e3","KL2012_e3_105",1,38,0,"Paintings-Paintings","Block1",3,2504,"Include"
"KL2012_e3","KL2012_e3_105",1,39,0,"Paintings-Paintings","Block1",6,1691,"Include"
"KL2012_e3","KL2012_e3_105",1,40,0,"Paintings-Paintings","Block1",6,1312,"Include"
"KL2012_e3","KL2012_e3_105",1,41,1,"Paintings-Paintings","Block1",6,740,"Include"
"KL2012_e3","KL2012_e3_105",1,42,1,"Paintings-Paintings","Block1",6,768,"Include"
"KL2012_e3","KL2012_e3_105",1,43,1,"Paintings-Paintings","Block1",4,2236,"Include"
"KL2012_e3","KL2012_e3_105",1,44,1,"Paintings-Paintings","Block1",4,986,"Include"
"KL2012_e3","KL2012_e3_105",1,45,0,"Paintings-Paintings","Block1",4,2427,"Include"
"KL2012_e3","KL2012_e3_105",1,46,0,"Paintings-Paintings","Block1",2,1489,"Include"
"KL2012_e3","KL2012_e3_105",1,47,0,"Paintings-Paintings","Block1",1,1822,"Include"
"KL2012_e3","KL2012_e3_105",1,48,1,"Paintings-Paintings","Block1",6,2014,"Include"
"KL2012_e3","KL2012_e3_105",1,49,1,"Paintings-Paintings","Block1",6,1222,"Include"
"KL2012_e3","KL2012_e3_105",1,50,1,"Paintings-Paintings","Block1",6,879,"Include"
"KL2012_e3","KL2012_e3_105",1,51,0,"Paintings-Paintings","Block1",4,2357,"Include"
"KL2012_e3","KL2012_e3_105",1,52,1,"Paintings-Paintings","Block1",4,959,"Include"
"KL2012_e3","KL2012_e3_105",1,53,1,"Paintings-Paintings","Block1",6,1362,"Include"
"KL2012_e3","KL2012_e3_105",1,54,0,"Paintings-Paintings","Block1",3,2757,"Include"
"KL2012_e3","KL2012_e3_105",1,55,0,"Paintings-Paintings","Block1",2,1437,"Include"
"KL2012_e3","KL2012_e3_105",1,56,1,"Paintings-Paintings","Block1",1,1468,"Include"
"KL2012_e3","KL2012_e3_105",1,57,1,"Paintings-Paintings","Block1",2,1306,"Include"
"KL2012_e3","KL2012_e3_105",1,58,1,"Paintings-Paintings","Block1",4,2479,"Include"
"KL2012_e3","KL2012_e3_105",1,59,0,"Paintings-Paintings","Block1",3,1316,"Include"
"KL2012_e3","KL2012_e3_105",1,60,1,"Paintings-Paintings","Block1",5,2681,"Include"
"KL2012_e3","KL2012_e3_105",1,61,1,"Paintings-Paintings","Block1",4,1478,"Include"
"KL2012_e3","KL2012_e3_105",1,62,0,"Paintings-Paintings","Block1",3,1507,"Include"
"KL2012_e3","KL2012_e3_105",1,63,0,"Paintings-Paintings","Block1",4,2239,"Include"
"KL2012_e3","KL2012_e3_105",1,64,1,"Paintings-Paintings","Block1",3,2238,"Include"
"KL2012_e3","KL2012_e3_105",1,65,0,"Paintings-Paintings","Block1",5,2188,"Include"
"KL2012_e3","KL2012_e3_105",1,66,1,"Paintings-Paintings","Block1",2,2269,"Include"
"KL2012_e3","KL2012_e3_105",1,67,0,"Paintings-Paintings","Block1",5,2026,"Include"
"KL2012_e3","KL2012_e3_105",1,68,1,"Paintings-Paintings","Block1",4,3857,"Include"
"KL2012_e3","KL2012_e3_105",1,69,1,"Paintings-Paintings","Block1",6,1870,"Include"
"KL2012_e3","KL2012_e3_105",1,70,0,"Paintings-Paintings","Block1",1,1644,"Include"
"KL2012_e3","KL2012_e3_105",1,71,1,"Paintings-Paintings","Block1",6,1395,"Include"
"KL2012_e3","KL2012_e3_105",1,72,0,"Paintings-Paintings","Block1",4,1876,"Include"
"KL2012_e3","KL2012_e3_105",1,73,1,"Paintings-Paintings","Block1",6,1474,"Include"
"KL2012_e3","KL2012_e3_105",1,74,0,"Paintings-Paintings","Block1",1,1392,"Include"
"KL2012_e3","KL2012_e3_105",1,75,0,"Paintings-Paintings","Block1",5,1665,"Include"
"KL2012_e3","KL2012_e3_105",1,76,0,"Paintings-Paintings","Block1",2,1672,"Include"
"KL2012_e3","KL2012_e3_105",1,77,1,"Paintings-Paintings","Block1",2,973,"Include"
"KL2012_e3","KL2012_e3_105",1,78,1,"Paintings-Paintings","Block1",2,1232,"Include"
"KL2012_e3","KL2012_e3_105",1,79,1,"Paintings-Paintings","Block1",3,1784,"Include"
"KL2012_e3","KL2012_e3_105",1,80,0,"Paintings-Paintings","Block1",3,1354,"Include"
"KL2012_e3","KL2012_e3_105",1,81,0,"Paintings-Paintings","Block1",3,748,"Include"
"KL2012_e3","KL2012_e3_105",1,82,0,"Paintings-Paintings","Block1",3,1239,"Include"
"KL2012_e3","KL2012_e3_105",1,83,1,"Paintings-Paintings","Block1",4,1871,"Include"
"KL2012_e3","KL2012_e3_105",1,84,1,"Paintings-Paintings","Block1",3,876,"Include"
"KL2012_e3","KL2012_e3_105",1,85,0,"Paintings-Paintings","Block1",1,1905,"Include"
"KL2012_e3","KL2012_e3_105",1,86,0,"Paintings-Paintings","Block1",1,653,"Include"
"KL2012_e3","KL2012_e3_105",1,87,0,"Paintings-Paintings","Block1",1,781,"Include"
"KL2012_e3","KL2012_e3_105",1,88,1,"Paintings-Paintings","Block1",3,1831,"Include"
"KL2012_e3","KL2012_e3_105",1,89,0,"Paintings-Paintings","Block1",5,2071,"Include"
"KL2012_e3","KL2012_e3_105",1,90,0,"Paintings-Paintings","Block1",1,1436,"Include"
"KL2012_e3","KL2012_e3_105",1,91,0,"Paintings-Paintings","Block1",2,2107,"Include"
"KL2012_e3","KL2012_e3_105",1,92,1,"Paintings-Paintings","Block1",3,2015,"Include"
"KL2012_e3","KL2012_e3_105",1,93,0,"Paintings-Paintings","Block1",1,1319,"Include"
"KL2012_e3","KL2012_e3_105",1,94,1,"Paintings-Paintings","Block1",1,1451,"Include"
"KL2012_e3","KL2012_e3_105",1,95,0,"Paintings-Paintings","Block1",1,682,"Include"
"KL2012_e3","KL2012_e3_105",1,96,1,"Paintings-Paintings","Block1",6,1432,"Include"
"KL2012_e3","KL2012_e3_105",2,97,0,"Paintings-Paintings","Block2",2,4689,"Include"
"KL2012_e3","KL2012_e3_105",2,98,0,"Paintings-Paintings","Block2",3,2698,"Include"
"KL2012_e3","KL2012_e3_105",2,99,1,"Paintings-Paintings","Block2",6,2167,"Include"
"KL2012_e3","KL2012_e3_105",2,100,1,"Paintings-Paintings","Block2",4,2442,"Include"
"KL2012_e3","KL2012_e3_105",2,101,1,"Paintings-Paintings","Block2",6,1360,"Include"
"KL2012_e3","KL2012_e3_105",2,102,0,"Paintings-Paintings","Block2",2,2674,"Include"
"KL2012_e3","KL2012_e3_105",2,103,0,"Paintings-Paintings","Block2",3,1951,"Include"
"KL2012_e3","KL2012_e3_105",2,104,0,"Paintings-Paintings","Block2",3,1001,"Include"
"KL2012_e3","KL2012_e3_105",2,105,1,"Paintings-Paintings","Block2",6,1371,"Include"
"KL2012_e3","KL2012_e3_105",2,106,0,"Paintings-Paintings","Block2",3,2220,"Include"
"KL2012_e3","KL2012_e3_105",2,107,1,"Paintings-Paintings","Block2",3,1260,"Include"
"KL2012_e3","KL2012_e3_105",2,108,0,"Paintings-Paintings","Block2",3,1379,"Include"
"KL2012_e3","KL2012_e3_105",2,109,1,"Paintings-Paintings","Block2",6,1413,"Include"
"KL2012_e3","KL2012_e3_105",2,110,1,"Paintings-Paintings","Block2",2,2502,"Include"
"KL2012_e3","KL2012_e3_105",2,111,0,"Paintings-Paintings","Block2",5,2201,"Include"
"KL2012_e3","KL2012_e3_105",2,112,1,"Paintings-Paintings","Block2",6,1082,"Include"
"KL2012_e3","KL2012_e3_105",2,113,0,"Paintings-Paintings","Block2",2,1719,"Include"
"KL2012_e3","KL2012_e3_105",2,114,1,"Paintings-Paintings","Block2",3,2427,"Include"
"KL2012_e3","KL2012_e3_105",2,115,0,"Paintings-Paintings","Block2",5,1746,"Include"
"KL2012_e3","KL2012_e3_105",2,116,0,"Paintings-Paintings","Block2",4,3140,"Include"
"KL2012_e3","KL2012_e3_105",2,117,1,"Paintings-Paintings","Block2",6,1535,"Include"
"KL2012_e3","KL2012_e3_105",2,118,1,"Paintings-Paintings","Block2",6,779,"Include"
"KL2012_e3","KL2012_e3_105",2,119,1,"Paintings-Paintings","Block2",2,2085,"Include"
"KL2012_e3","KL2012_e3_105",2,120,1,"Paintings-Paintings","Block2",5,1851,"Include"
"KL2012_e3","KL2012_e3_105",2,121,0,"Paintings-Paintings","Block2",2,1881,"Include"
"KL2012_e3","KL2012_e3_105",2,122,0,"Paintings-Paintings","Block2",1,1766,"Include"
"KL2012_e3","KL2012_e3_105",2,123,1,"Paintings-Paintings","Block2",6,1433,"Include"
"KL2012_e3","KL2012_e3_105",2,124,1,"Paintings-Paintings","Block2",6,1001,"Include"
"KL2012_e3","KL2012_e3_105",2,125,0,"Paintings-Paintings","Block2",1,5338,"Include"
"KL2012_e3","KL2012_e3_105",2,126,0,"Paintings-Paintings","Block2",1,1034,"Include"
"KL2012_e3","KL2012_e3_105",2,127,1,"Paintings-Paintings","Block2",6,1242,"Include"
"KL2012_e3","KL2012_e3_105",2,128,0,"Paintings-Paintings","Block2",4,2017,"Include"
"KL2012_e3","KL2012_e3_105",2,129,0,"Paintings-Paintings","Block2",2,1610,"Include"
"KL2012_e3","KL2012_e3_105",2,130,0,"Paintings-Paintings","Block2",5,1745,"Include"
"KL2012_e3","KL2012_e3_105",2,131,1,"Paintings-Paintings","Block2",5,1588,"Include"
"KL2012_e3","KL2012_e3_105",2,132,1,"Paintings-Paintings","Block2",6,1582,"Include"
"KL2012_e3","KL2012_e3_105",2,133,1,"Paintings-Paintings","Block2",6,743,"Include"
"KL2012_e3","KL2012_e3_105",2,134,1,"Paintings-Paintings","Block2",6,691,"Include"
"KL2012_e3","KL2012_e3_105",2,135,1,"Paintings-Paintings","Block2",4,3025,"Include"
"KL2012_e3","KL2012_e3_105",2,136,0,"Paintings-Paintings","Block2",1,1359,"Include"
"KL2012_e3","KL2012_e3_105",2,137,0,"Paintings-Paintings","Block2",3,2385,"Include"
"KL2012_e3","KL2012_e3_105",2,138,0,"Paintings-Paintings","Block2",3,1001,"Include"
"KL2012_e3","KL2012_e3_105",2,139,1,"Paintings-Paintings","Block2",4,1835,"Include"
"KL2012_e3","KL2012_e3_105",2,140,1,"Paintings-Paintings","Block2",5,2298,"Include"
"KL2012_e3","KL2012_e3_105",2,141,0,"Paintings-Paintings","Block2",3,2038,"Include"
"KL2012_e3","KL2012_e3_105",2,142,1,"Paintings-Paintings","Block2",3,925,"Include"
"KL2012_e3","KL2012_e3_105",2,143,0,"Paintings-Paintings","Block2",5,1889,"Include"
"KL2012_e3","KL2012_e3_105",2,144,0,"Paintings-Paintings","Block2",6,1326,"Include"
"KL2012_e3","KL2012_e3_105",2,145,0,"Paintings-Paintings","Block2",3,1490,"Include"
"KL2012_e3","KL2012_e3_105",2,146,0,"Paintings-Paintings","Block2",1,1454,"Include"
"KL2012_e3","KL2012_e3_105",2,147,1,"Paintings-Paintings","Block2",6,1997,"Include"
"KL2012_e3","KL2012_e3_105",2,148,0,"Paintings-Paintings","Block2",3,1446,"Include"
"KL2012_e3","KL2012_e3_105",2,149,1,"Paintings-Paintings","Block2",6,1766,"Include"
"KL2012_e3","KL2012_e3_105",2,150,1,"Paintings-Paintings","Block2",5,1848,"Include"
"KL2012_e3","KL2012_e3_105",2,151,1,"Paintings-Paintings","Block2",6,1079,"Include"
"KL2012_e3","KL2012_e3_105",2,152,0,"Paintings-Paintings","Block2",2,2405,"Include"
"KL2012_e3","KL2012_e3_105",2,153,0,"Paintings-Paintings","Block2",1,1037,"Include"
"KL2012_e3","KL2012_e3_105",2,154,1,"Paintings-Paintings","Block2",6,1373,"Include"
"KL2012_e3","KL2012_e3_105",2,155,1,"Paintings-Paintings","Block2",4,1935,"Include"
"KL2012_e3","KL2012_e3_105",2,156,1,"Paintings-Paintings","Block2",6,1307,"Include"
"KL2012_e3","KL2012_e3_105",2,157,0,"Paintings-Paintings","Block2",3,1343,"Include"
"KL2012_e3","KL2012_e3_105",2,158,1,"Paintings-Paintings","Block2",4,1250,"Include"
"KL2012_e3","KL2012_e3_105",2,159,1,"Paintings-Paintings","Block2",4,1210,"Include"
"KL2012_e3","KL2012_e3_105",2,160,0,"Paintings-Paintings","Block2",3,1074,"Include"
"KL2012_e3","KL2012_e3_105",2,161,1,"Paintings-Paintings","Block2",6,1521,"Include"
"KL2012_e3","KL2012_e3_105",2,162,1,"Paintings-Paintings","Block2",6,813,"Include"
"KL2012_e3","KL2012_e3_105",2,163,1,"Paintings-Paintings","Block2",4,2150,"Include"
"KL2012_e3","KL2012_e3_105",2,164,0,"Paintings-Paintings","Block2",3,2200,"Include"
"KL2012_e3","KL2012_e3_105",2,165,0,"Paintings-Paintings","Block2",3,1353,"Include"
"KL2012_e3","KL2012_e3_105",2,166,0,"Paintings-Paintings","Block2",2,1660,"Include"
"KL2012_e3","KL2012_e3_105",2,167,1,"Paintings-Paintings","Block2",2,1331,"Include"
"KL2012_e3","KL2012_e3_105",2,168,1,"Paintings-Paintings","Block2",6,1303,"Include"
"KL2012_e3","KL2012_e3_105",2,169,0,"Paintings-Paintings","Block2",6,2027,"Include"
"KL2012_e3","KL2012_e3_105",2,170,0,"Paintings-Paintings","Block2",2,2178,"Include"
"KL2012_e3","KL2012_e3_105",2,171,1,"Paintings-Paintings","Block2",5,1491,"Include"
"KL2012_e3","KL2012_e3_105",2,172,0,"Paintings-Paintings","Block2",5,1073,"Include"
"KL2012_e3","KL2012_e3_105",2,173,1,"Paintings-Paintings","Block2",6,1231,"Include"
"KL2012_e3","KL2012_e3_105",2,174,1,"Paintings-Paintings","Block2",6,744,"Include"
"KL2012_e3","KL2012_e3_105",2,175,1,"Paintings-Paintings","Block2",5,3715,"Include"
"KL2012_e3","KL2012_e3_105",2,176,0,"Paintings-Paintings","Block2",3,1541,"Include"
"KL2012_e3","KL2012_e3_105",2,177,0,"Paintings-Paintings","Block2",3,879,"Include"
"KL2012_e3","KL2012_e3_105",2,178,0,"Paintings-Paintings","Block2",2,693,"Include"
"KL2012_e3","KL2012_e3_105",2,179,1,"Paintings-Paintings","Block2",4,1651,"Include"
"KL2012_e3","KL2012_e3_105",2,180,1,"Paintings-Paintings","Block2",6,1322,"Include"
"KL2012_e3","KL2012_e3_105",2,181,0,"Paintings-Paintings","Block2",1,1278,"Include"
"KL2012_e3","KL2012_e3_105",2,182,0,"Paintings-Paintings","Block2",2,1173,"Include"
"KL2012_e3","KL2012_e3_105",2,183,0,"Paintings-Paintings","Block2",3,1663,"Include"
"KL2012_e3","KL2012_e3_105",2,184,1,"Paintings-Paintings","Block2",5,1526,"Include"
"KL2012_e3","KL2012_e3_105",2,185,0,"Paintings-Paintings","Block2",3,1730,"Include"
"KL2012_e3","KL2012_e3_105",2,186,0,"Paintings-Paintings","Block2",3,1093,"Include"
"KL2012_e3","KL2012_e3_105",2,187,1,"Paintings-Paintings","Block2",6,1395,"Include"
"KL2012_e3","KL2012_e3_105",2,188,0,"Paintings-Paintings","Block2",4,1396,"Include"
"KL2012_e3","KL2012_e3_105",2,189,1,"Paintings-Paintings","Block2",6,1190,"Include"
"KL2012_e3","KL2012_e3_105",2,190,1,"Paintings-Paintings","Block2",3,1663,"Include"
"KL2012_e3","KL2012_e3_105",2,191,0,"Paintings-Paintings","Block2",3,1253,"Include"
"KL2012_e3","KL2012_e3_105",2,192,0,"Paintings-Paintings","Block2",2,940,"Include"
"KL2012_e3","KL2012_e3_107",1,1,0,"Paintings-Paintings","Block1",1,5229,"Include"
"KL2012_e3","KL2012_e3_107",1,2,0,"Paintings-Paintings","Block1",1,5467,"Include"
"KL2012_e3","KL2012_e3_107",1,3,0,"Paintings-Paintings","Block1",2,4536,"Include"
"KL2012_e3","KL2012_e3_107",1,4,1,"Paintings-Paintings","Block1",6,4043,"Include"
"KL2012_e3","KL2012_e3_107",1,5,1,"Paintings-Paintings","Block1",6,2379,"Include"
"KL2012_e3","KL2012_e3_107",1,6,0,"Paintings-Paintings","Block1",1,3086,"Include"
"KL2012_e3","KL2012_e3_107",1,7,1,"Paintings-Paintings","Block1",6,3774,"Include"
"KL2012_e3","KL2012_e3_107",1,8,1,"Paintings-Paintings","Block1",5,4505,"Include"
"KL2012_e3","KL2012_e3_107",1,9,1,"Paintings-Paintings","Block1",6,2740,"Include"
"KL2012_e3","KL2012_e3_107",1,10,1,"Paintings-Paintings","Block1",2,3342,"Include"
"KL2012_e3","KL2012_e3_107",1,11,0,"Paintings-Paintings","Block1",4,5921,"Include"
"KL2012_e3","KL2012_e3_107",1,12,1,"Paintings-Paintings","Block1",5,4473,"Include"
"KL2012_e3","KL2012_e3_107",1,13,0,"Paintings-Paintings","Block1",2,4495,"Include"
"KL2012_e3","KL2012_e3_107",1,14,1,"Paintings-Paintings","Block1",6,3097,"Include"
"KL2012_e3","KL2012_e3_107",1,15,1,"Paintings-Paintings","Block1",4,6204,"Include"
"KL2012_e3","KL2012_e3_107",1,16,1,"Paintings-Paintings","Block1",1,4220,"Include"
"KL2012_e3","KL2012_e3_107",1,17,0,"Paintings-Paintings","Block1",1,3839,"Include"
"KL2012_e3","KL2012_e3_107",1,18,0,"Paintings-Paintings","Block1",1,1540,"Include"
"KL2012_e3","KL2012_e3_107",1,19,1,"Paintings-Paintings","Block1",6,3119,"Include"
"KL2012_e3","KL2012_e3_107",1,20,0,"Paintings-Paintings","Block1",1,3972,"Include"
"KL2012_e3","KL2012_e3_107",1,21,1,"Paintings-Paintings","Block1",6,3013,"Include"
"KL2012_e3","KL2012_e3_107",1,22,0,"Paintings-Paintings","Block1",1,2837,"Include"
"KL2012_e3","KL2012_e3_107",1,23,0,"Paintings-Paintings","Block1",1,2098,"Include"
"KL2012_e3","KL2012_e3_107",1,24,1,"Paintings-Paintings","Block1",6,2253,"Include"
"KL2012_e3","KL2012_e3_107",1,25,1,"Paintings-Paintings","Block1",2,5351,"Include"
"KL2012_e3","KL2012_e3_107",1,26,1,"Paintings-Paintings","Block1",6,2749,"Include"
"KL2012_e3","KL2012_e3_107",1,27,0,"Paintings-Paintings","Block1",1,2122,"Include"
"KL2012_e3","KL2012_e3_107",1,28,1,"Paintings-Paintings","Block1",4,3353,"Include"
"KL2012_e3","KL2012_e3_107",1,29,0,"Paintings-Paintings","Block1",2,3407,"Include"
"KL2012_e3","KL2012_e3_107",1,30,1,"Paintings-Paintings","Block1",3,4671,"Include"
"KL2012_e3","KL2012_e3_107",1,31,1,"Paintings-Paintings","Block1",6,2444,"Include"
"KL2012_e3","KL2012_e3_107",1,32,0,"Paintings-Paintings","Block1",1,2380,"Include"
"KL2012_e3","KL2012_e3_107",1,33,1,"Paintings-Paintings","Block1",6,2031,"Include"
"KL2012_e3","KL2012_e3_107",1,34,1,"Paintings-Paintings","Block1",6,2572,"Include"
"KL2012_e3","KL2012_e3_107",1,35,1,"Paintings-Paintings","Block1",6,2647,"Include"
"KL2012_e3","KL2012_e3_107",1,36,0,"Paintings-Paintings","Block1",5,2127,"Include"
"KL2012_e3","KL2012_e3_107",1,37,1,"Paintings-Paintings","Block1",6,2143,"Include"
"KL2012_e3","KL2012_e3_107",1,38,1,"Paintings-Paintings","Block1",6,1442,"Include"
"KL2012_e3","KL2012_e3_107",1,39,1,"Paintings-Paintings","Block1",6,1498,"Include"
"KL2012_e3","KL2012_e3_107",1,40,0,"Paintings-Paintings","Block1",1,1581,"Include"
"KL2012_e3","KL2012_e3_107",1,41,0,"Paintings-Paintings","Block1",1,3535,"Include"
"KL2012_e3","KL2012_e3_107",1,42,0,"Paintings-Paintings","Block1",4,3482,"Include"
"KL2012_e3","KL2012_e3_107",1,43,0,"Paintings-Paintings","Block1",6,1994,"Include"
"KL2012_e3","KL2012_e3_107",1,44,0,"Paintings-Paintings","Block1",2,3872,"Include"
"KL2012_e3","KL2012_e3_107",1,45,0,"Paintings-Paintings","Block1",1,3037,"Include"
"KL2012_e3","KL2012_e3_107",1,46,0,"Paintings-Paintings","Block1",1,2211,"Include"
"KL2012_e3","KL2012_e3_107",1,47,0,"Paintings-Paintings","Block1",1,1859,"Include"
"KL2012_e3","KL2012_e3_107",1,48,0,"Paintings-Paintings","Block1",1,3389,"Include"
"KL2012_e3","KL2012_e3_107",1,49,0,"Paintings-Paintings","Block1",2,2123,"Include"
"KL2012_e3","KL2012_e3_107",1,50,1,"Paintings-Paintings","Block1",3,4043,"Include"
"KL2012_e3","KL2012_e3_107",1,51,0,"Paintings-Paintings","Block1",1,3595,"Include"
"KL2012_e3","KL2012_e3_107",1,52,0,"Paintings-Paintings","Block1",1,2176,"Include"
"KL2012_e3","KL2012_e3_107",1,53,0,"Paintings-Paintings","Block1",1,1931,"Include"
"KL2012_e3","KL2012_e3_107",1,54,1,"Paintings-Paintings","Block1",6,2707,"Include"
"KL2012_e3","KL2012_e3_107",1,55,0,"Paintings-Paintings","Block1",1,1640,"Include"
"KL2012_e3","KL2012_e3_107",1,56,0,"Paintings-Paintings","Block1",2,2488,"Include"
"KL2012_e3","KL2012_e3_107",1,57,0,"Paintings-Paintings","Block1",1,2272,"Include"
"KL2012_e3","KL2012_e3_107",1,58,1,"Paintings-Paintings","Block1",4,6814,"Include"
"KL2012_e3","KL2012_e3_107",1,59,1,"Paintings-Paintings","Block1",2,2825,"Include"
"KL2012_e3","KL2012_e3_107",1,60,1,"Paintings-Paintings","Block1",2,9939,"Include"
"KL2012_e3","KL2012_e3_107",1,61,1,"Paintings-Paintings","Block1",5,2638,"Include"
"KL2012_e3","KL2012_e3_107",1,62,0,"Paintings-Paintings","Block1",1,1572,"Include"
"KL2012_e3","KL2012_e3_107",1,63,0,"Paintings-Paintings","Block1",1,1940,"Include"
"KL2012_e3","KL2012_e3_107",1,64,1,"Paintings-Paintings","Block1",1,2094,"Include"
"KL2012_e3","KL2012_e3_107",1,65,1,"Paintings-Paintings","Block1",6,1689,"Include"
"KL2012_e3","KL2012_e3_107",1,66,0,"Paintings-Paintings","Block1",2,2737,"Include"
"KL2012_e3","KL2012_e3_107",1,67,1,"Paintings-Paintings","Block1",4,2492,"Include"
"KL2012_e3","KL2012_e3_107",1,68,1,"Paintings-Paintings","Block1",6,2228,"Include"
"KL2012_e3","KL2012_e3_107",1,69,0,"Paintings-Paintings","Block1",1,1689,"Include"
"KL2012_e3","KL2012_e3_107",1,70,1,"Paintings-Paintings","Block1",6,1489,"Include"
"KL2012_e3","KL2012_e3_107",1,71,0,"Paintings-Paintings","Block1",4,2705,"Include"
"KL2012_e3","KL2012_e3_107",1,72,1,"Paintings-Paintings","Block1",6,1764,"Include"
"KL2012_e3","KL2012_e3_107",1,73,0,"Paintings-Paintings","Block1",6,1084,"Include"
"KL2012_e3","KL2012_e3_107",1,74,1,"Paintings-Paintings","Block1",1,1868,"Include"
"KL2012_e3","KL2012_e3_107",1,75,1,"Paintings-Paintings","Block1",1,1834,"Include"
"KL2012_e3","KL2012_e3_107",1,76,0,"Paintings-Paintings","Block1",4,3855,"Include"
"KL2012_e3","KL2012_e3_107",1,77,1,"Paintings-Paintings","Block1",1,1722,"Include"
"KL2012_e3","KL2012_e3_107",1,78,1,"Paintings-Paintings","Block1",2,2346,"Include"
"KL2012_e3","KL2012_e3_107",1,79,1,"Paintings-Paintings","Block1",6,1813,"Include"
"KL2012_e3","KL2012_e3_107",1,80,0,"Paintings-Paintings","Block1",5,3396,"Include"
"KL2012_e3","KL2012_e3_107",1,81,1,"Paintings-Paintings","Block1",6,1298,"Include"
"KL2012_e3","KL2012_e3_107",1,82,0,"Paintings-Paintings","Block1",6,1260,"Include"
"KL2012_e3","KL2012_e3_107",1,83,0,"Paintings-Paintings","Block1",4,2431,"Include"
"KL2012_e3","KL2012_e3_107",1,84,1,"Paintings-Paintings","Block1",3,9564,"Include"
"KL2012_e3","KL2012_e3_107",1,85,0,"Paintings-Paintings","Block1",2,3260,"Include"
"KL2012_e3","KL2012_e3_107",1,86,0,"Paintings-Paintings","Block1",1,3199,"Include"
"KL2012_e3","KL2012_e3_107",1,87,1,"Paintings-Paintings","Block1",6,1959,"Include"
"KL2012_e3","KL2012_e3_107",1,88,0,"Paintings-Paintings","Block1",3,4967,"Include"
"KL2012_e3","KL2012_e3_107",1,89,1,"Paintings-Paintings","Block1",3,3055,"Include"
"KL2012_e3","KL2012_e3_107",1,90,0,"Paintings-Paintings","Block1",1,1658,"Include"
"KL2012_e3","KL2012_e3_107",1,91,1,"Paintings-Paintings","Block1",6,1628,"Include"
"KL2012_e3","KL2012_e3_107",1,92,0,"Paintings-Paintings","Block1",1,2010,"Include"
"KL2012_e3","KL2012_e3_107",1,93,1,"Paintings-Paintings","Block1",1,2322,"Include"
"KL2012_e3","KL2012_e3_107",1,94,0,"Paintings-Paintings","Block1",4,2506,"Include"
"KL2012_e3","KL2012_e3_107",1,95,0,"Paintings-Paintings","Block1",1,1847,"Include"
"KL2012_e3","KL2012_e3_107",1,96,1,"Paintings-Paintings","Block1",4,2591,"Include"
"KL2012_e3","KL2012_e3_107",2,97,0,"Paintings-Paintings","Block2",1,7448,"Include"
"KL2012_e3","KL2012_e3_107",2,98,1,"Paintings-Paintings","Block2",2,4064,"Include"
"KL2012_e3","KL2012_e3_107",2,99,0,"Paintings-Paintings","Block2",2,3251,"Include"
"KL2012_e3","KL2012_e3_107",2,100,0,"Paintings-Paintings","Block2",2,1347,"Include"
"KL2012_e3","KL2012_e3_107",2,101,1,"Paintings-Paintings","Block2",5,3064,"Include"
"KL2012_e3","KL2012_e3_107",2,102,1,"Paintings-Paintings","Block2",2,3763,"Include"
"KL2012_e3","KL2012_e3_107",2,103,0,"Paintings-Paintings","Block2",1,1435,"Include"
"KL2012_e3","KL2012_e3_107",2,104,0,"Paintings-Paintings","Block2",1,1232,"Include"
"KL2012_e3","KL2012_e3_107",2,105,0,"Paintings-Paintings","Block2",2,2462,"Include"
"KL2012_e3","KL2012_e3_107",2,106,1,"Paintings-Paintings","Block2",6,1792,"Include"
"KL2012_e3","KL2012_e3_107",2,107,1,"Paintings-Paintings","Block2",6,1166,"Include"
"KL2012_e3","KL2012_e3_107",2,108,1,"Paintings-Paintings","Block2",6,670,"Include"
"KL2012_e3","KL2012_e3_107",2,109,1,"Paintings-Paintings","Block2",1,1547,"Include"
"KL2012_e3","KL2012_e3_107",2,110,0,"Paintings-Paintings","Block2",1,1577,"Include"
"KL2012_e3","KL2012_e3_107",2,111,0,"Paintings-Paintings","Block2",2,2267,"Include"
"KL2012_e3","KL2012_e3_107",2,112,1,"Paintings-Paintings","Block2",6,1737,"Include"
"KL2012_e3","KL2012_e3_107",2,113,0,"Paintings-Paintings","Block2",4,3003,"Include"
"KL2012_e3","KL2012_e3_107",2,114,0,"Paintings-Paintings","Block2",2,2315,"Include"
"KL2012_e3","KL2012_e3_107",2,115,0,"Paintings-Paintings","Block2",2,1409,"Include"
"KL2012_e3","KL2012_e3_107",2,116,1,"Paintings-Paintings","Block2",4,3729,"Include"
"KL2012_e3","KL2012_e3_107",2,117,0,"Paintings-Paintings","Block2",2,2737,"Include"
"KL2012_e3","KL2012_e3_107",2,118,0,"Paintings-Paintings","Block2",1,1356,"Include"
"KL2012_e3","KL2012_e3_107",2,119,0,"Paintings-Paintings","Block2",5,2513,"Include"
"KL2012_e3","KL2012_e3_107",2,120,0,"Paintings-Paintings","Block2",1,1582,"Include"
"KL2012_e3","KL2012_e3_107",2,121,0,"Paintings-Paintings","Block2",1,1233,"Include"
"KL2012_e3","KL2012_e3_107",2,122,0,"Paintings-Paintings","Block2",1,1183,"Include"
"KL2012_e3","KL2012_e3_107",2,123,0,"Paintings-Paintings","Block2",2,1441,"Include"
"KL2012_e3","KL2012_e3_107",2,124,1,"Paintings-Paintings","Block2",6,1593,"Include"
"KL2012_e3","KL2012_e3_107",2,125,1,"Paintings-Paintings","Block2",6,1007,"Include"
"KL2012_e3","KL2012_e3_107",2,126,1,"Paintings-Paintings","Block2",6,959,"Include"
"KL2012_e3","KL2012_e3_107",2,127,0,"Paintings-Paintings","Block2",3,3012,"Include"
"KL2012_e3","KL2012_e3_107",2,128,1,"Paintings-Paintings","Block2",2,3924,"Include"
"KL2012_e3","KL2012_e3_107",2,129,1,"Paintings-Paintings","Block2",5,2268,"Include"
"KL2012_e3","KL2012_e3_107",2,130,1,"Paintings-Paintings","Block2",6,1386,"Include"
"KL2012_e3","KL2012_e3_107",2,131,1,"Paintings-Paintings","Block2",6,884,"Include"
"KL2012_e3","KL2012_e3_107",2,132,0,"Paintings-Paintings","Block2",1,1324,"Include"
"KL2012_e3","KL2012_e3_107",2,133,0,"Paintings-Paintings","Block2",1,1211,"Include"
"KL2012_e3","KL2012_e3_107",2,134,0,"Paintings-Paintings","Block2",5,1971,"Include"
"KL2012_e3","KL2012_e3_107",2,135,1,"Paintings-Paintings","Block2",6,1363,"Include"
"KL2012_e3","KL2012_e3_107",2,136,0,"Paintings-Paintings","Block2",4,4027,"Include"
"KL2012_e3","KL2012_e3_107",2,137,1,"Paintings-Paintings","Block2",6,2057,"Include"
"KL2012_e3","KL2012_e3_107",2,138,1,"Paintings-Paintings","Block2",1,1388,"Include"
"KL2012_e3","KL2012_e3_107",2,139,0,"Paintings-Paintings","Block2",4,3849,"Include"
"KL2012_e3","KL2012_e3_107",2,140,0,"Paintings-Paintings","Block2",4,1201,"Include"
"KL2012_e3","KL2012_e3_107",2,141,1,"Paintings-Paintings","Block2",6,1865,"Include"
"KL2012_e3","KL2012_e3_107",2,142,1,"Paintings-Paintings","Block2",6,1556,"Include"
"KL2012_e3","KL2012_e3_107",2,143,0,"Paintings-Paintings","Block2",4,3233,"Include"
"KL2012_e3","KL2012_e3_107",2,144,0,"Paintings-Paintings","Block2",1,1535,"Include"
"KL2012_e3","KL2012_e3_107",2,145,1,"Paintings-Paintings","Block2",6,1689,"Include"
"KL2012_e3","KL2012_e3_107",2,146,0,"Paintings-Paintings","Block2",4,1969,"Include"
"KL2012_e3","KL2012_e3_107",2,147,0,"Paintings-Paintings","Block2",1,1409,"Include"
"KL2012_e3","KL2012_e3_107",2,148,1,"Paintings-Paintings","Block2",6,1537,"Include"
"KL2012_e3","KL2012_e3_107",2,149,1,"Paintings-Paintings","Block2",2,2060,"Include"
"KL2012_e3","KL2012_e3_107",2,150,0,"Paintings-Paintings","Block2",2,1327,"Include"
"KL2012_e3","KL2012_e3_107",2,151,1,"Paintings-Paintings","Block2",1,3903,"Include"
"KL2012_e3","KL2012_e3_107",2,152,1,"Paintings-Paintings","Block2",6,2082,"Include"
"KL2012_e3","KL2012_e3_107",2,153,0,"Paintings-Paintings","Block2",4,2682,"Include"
"KL2012_e3","KL2012_e3_107",2,154,0,"Paintings-Paintings","Block2",1,1514,"Include"
"KL2012_e3","KL2012_e3_107",2,155,0,"Paintings-Paintings","Block2",1,5903,"Include"
"KL2012_e3","KL2012_e3_107",2,156,0,"Paintings-Paintings","Block2",3,6114,"Include"
"KL2012_e3","KL2012_e3_107",2,157,1,"Paintings-Paintings","Block2",2,3071,"Include"
"KL2012_e3","KL2012_e3_107",2,158,1,"Paintings-Paintings","Block2",2,2157,"Include"
"KL2012_e3","KL2012_e3_107",2,159,1,"Paintings-Paintings","Block2",5,2194,"Include"
"KL2012_e3","KL2012_e3_107",2,160,0,"Paintings-Paintings","Block2",5,1759,"Include"
"KL2012_e3","KL2012_e3_107",2,161,1,"Paintings-Paintings","Block2",6,1368,"Include"
"KL2012_e3","KL2012_e3_107",2,162,1,"Paintings-Paintings","Block2",6,1872,"Include"
"KL2012_e3","KL2012_e3_107",2,163,0,"Paintings-Paintings","Block2",2,1949,"Include"
"KL2012_e3","KL2012_e3_107",2,164,1,"Paintings-Paintings","Block2",5,3770,"Include"
"KL2012_e3","KL2012_e3_107",2,165,1,"Paintings-Paintings","Block2",6,1506,"Include"
"KL2012_e3","KL2012_e3_107",2,166,0,"Paintings-Paintings","Block2",1,1240,"Include"
"KL2012_e3","KL2012_e3_107",2,167,1,"Paintings-Paintings","Block2",6,2296,"Include"
"KL2012_e3","KL2012_e3_107",2,168,1,"Paintings-Paintings","Block2",6,1179,"Include"
"KL2012_e3","KL2012_e3_107",2,169,1,"Paintings-Paintings","Block2",6,893,"Include"
"KL2012_e3","KL2012_e3_107",2,170,0,"Paintings-Paintings","Block2",2,1240,"Include"
"KL2012_e3","KL2012_e3_107",2,171,0,"Paintings-Paintings","Block2",5,2520,"Include"
"KL2012_e3","KL2012_e3_107",2,172,1,"Paintings-Paintings","Block2",6,1304,"Include"
"KL2012_e3","KL2012_e3_107",2,173,1,"Paintings-Paintings","Block2",6,1011,"Include"
"KL2012_e3","KL2012_e3_107",2,174,1,"Paintings-Paintings","Block2",2,1715,"Include"
"KL2012_e3","KL2012_e3_107",2,175,1,"Paintings-Paintings","Block2",6,1616,"Include"
"KL2012_e3","KL2012_e3_107",2,176,1,"Paintings-Paintings","Block2",5,3451,"Include"
"KL2012_e3","KL2012_e3_107",2,177,0,"Paintings-Paintings","Block2",1,2051,"Include"
"KL2012_e3","KL2012_e3_107",2,178,0,"Paintings-Paintings","Block2",1,2115,"Include"
"KL2012_e3","KL2012_e3_107",2,179,1,"Paintings-Paintings","Block2",6,1504,"Include"
"KL2012_e3","KL2012_e3_107",2,180,1,"Paintings-Paintings","Block2",6,1347,"Include"
"KL2012_e3","KL2012_e3_107",2,181,0,"Paintings-Paintings","Block2",3,3368,"Include"
"KL2012_e3","KL2012_e3_107",2,182,1,"Paintings-Paintings","Block2",6,1872,"Include"
"KL2012_e3","KL2012_e3_107",2,183,1,"Paintings-Paintings","Block2",5,1822,"Include"
"KL2012_e3","KL2012_e3_107",2,184,1,"Paintings-Paintings","Block2",6,1217,"Include"
"KL2012_e3","KL2012_e3_107",2,185,0,"Paintings-Paintings","Block2",6,1019,"Include"
"KL2012_e3","KL2012_e3_107",2,186,0,"Paintings-Paintings","Block2",2,3486,"Include"
"KL2012_e3","KL2012_e3_107",2,187,0,"Paintings-Paintings","Block2",2,958,"Include"
"KL2012_e3","KL2012_e3_107",2,188,1,"Paintings-Paintings","Block2",6,1507,"Include"
"KL2012_e3","KL2012_e3_107",2,189,1,"Paintings-Paintings","Block2",6,921,"Include"
"KL2012_e3","KL2012_e3_107",2,190,0,"Paintings-Paintings","Block2",6,905,"Include"
"KL2012_e3","KL2012_e3_107",2,191,0,"Paintings-Paintings","Block2",1,1267,"Include"
"KL2012_e3","KL2012_e3_107",2,192,0,"Paintings-Paintings","Block2",1,985,"Include"
"KL2012_e3","KL2012_e3_108",1,1,1,"Paintings-Paintings","Block1",1,9304,"Include"
"KL2012_e3","KL2012_e3_108",1,2,1,"Paintings-Paintings","Block1",6,1171,"Include"
"KL2012_e3","KL2012_e3_108",1,3,0,"Paintings-Paintings","Block1",1,1507,"Include"
"KL2012_e3","KL2012_e3_108",1,4,0,"Paintings-Paintings","Block1",1,1640,"Include"
"KL2012_e3","KL2012_e3_108",1,5,0,"Paintings-Paintings","Block1",1,1064,"Include"
"KL2012_e3","KL2012_e3_108",1,6,0,"Paintings-Paintings","Block1",1,1587,"Include"
"KL2012_e3","KL2012_e3_108",1,7,1,"Paintings-Paintings","Block1",1,568,"Include"
"KL2012_e3","KL2012_e3_108",1,8,1,"Paintings-Paintings","Block1",6,881,"Include"
"KL2012_e3","KL2012_e3_108",1,9,1,"Paintings-Paintings","Block1",6,1017,"Include"
"KL2012_e3","KL2012_e3_108",1,10,0,"Paintings-Paintings","Block1",1,1595,"Include"
"KL2012_e3","KL2012_e3_108",1,11,0,"Paintings-Paintings","Block1",2,5361,"Include"
"KL2012_e3","KL2012_e3_108",1,12,0,"Paintings-Paintings","Block1",6,921,"Include"
"KL2012_e3","KL2012_e3_108",1,13,0,"Paintings-Paintings","Block1",1,4201,"Include"
"KL2012_e3","KL2012_e3_108",1,14,0,"Paintings-Paintings","Block1",1,873,"Include"
"KL2012_e3","KL2012_e3_108",1,15,0,"Paintings-Paintings","Block1",1,878,"Include"
"KL2012_e3","KL2012_e3_108",1,16,0,"Paintings-Paintings","Block1",1,836,"Include"
"KL2012_e3","KL2012_e3_108",1,17,0,"Paintings-Paintings","Block1",1,625,"Include"
"KL2012_e3","KL2012_e3_108",1,18,1,"Paintings-Paintings","Block1",3,7636,"Include"
"KL2012_e3","KL2012_e3_108",1,19,0,"Paintings-Paintings","Block1",1,913,"Include"
"KL2012_e3","KL2012_e3_108",1,20,1,"Paintings-Paintings","Block1",6,3278,"Include"
"KL2012_e3","KL2012_e3_108",1,21,0,"Paintings-Paintings","Block1",1,884,"Include"
"KL2012_e3","KL2012_e3_108",1,22,1,"Paintings-Paintings","Block1",6,1036,"Include"
"KL2012_e3","KL2012_e3_108",1,23,0,"Paintings-Paintings","Block1",1,769,"Include"
"KL2012_e3","KL2012_e3_108",1,24,0,"Paintings-Paintings","Block1",1,673,"Include"
"KL2012_e3","KL2012_e3_108",1,25,1,"Paintings-Paintings","Block1",1,1823,"Include"
"KL2012_e3","KL2012_e3_108",1,26,0,"Paintings-Paintings","Block1",1,721,"Include"
"KL2012_e3","KL2012_e3_108",1,27,0,"Paintings-Paintings","Block1",1,617,"Include"
"KL2012_e3","KL2012_e3_108",1,28,1,"Paintings-Paintings","Block1",6,1612,"Include"
"KL2012_e3","KL2012_e3_108",1,29,0,"Paintings-Paintings","Block1",1,820,"Include"
"KL2012_e3","KL2012_e3_108",1,30,0,"Paintings-Paintings","Block1",1,1087,"Include"
"KL2012_e3","KL2012_e3_108",1,31,1,"Paintings-Paintings","Block1",6,959,"Include"
"KL2012_e3","KL2012_e3_108",1,32,1,"Paintings-Paintings","Block1",6,772,"Include"
"KL2012_e3","KL2012_e3_108",1,33,1,"Paintings-Paintings","Block1",6,3284,"Include"
"KL2012_e3","KL2012_e3_108",1,34,1,"Paintings-Paintings","Block1",5,5676,"Include"
"KL2012_e3","KL2012_e3_108",1,35,1,"Paintings-Paintings","Block1",6,898,"Include"
"KL2012_e3","KL2012_e3_108",1,36,1,"Paintings-Paintings","Block1",6,1004,"Include"
"KL2012_e3","KL2012_e3_108",1,37,0,"Paintings-Paintings","Block1",1,2172,"Include"
"KL2012_e3","KL2012_e3_108",1,38,0,"Paintings-Paintings","Block1",4,1764,"Include"
"KL2012_e3","KL2012_e3_108",1,39,1,"Paintings-Paintings","Block1",6,909,"Include"
"KL2012_e3","KL2012_e3_108",1,40,0,"Paintings-Paintings","Block1",1,858,"Include"
"KL2012_e3","KL2012_e3_108",1,41,1,"Paintings-Paintings","Block1",6,925,"Include"
"KL2012_e3","KL2012_e3_108",1,42,1,"Paintings-Paintings","Block1",6,861,"Include"
"KL2012_e3","KL2012_e3_108",1,43,1,"Paintings-Paintings","Block1",6,1263,"Include"
"KL2012_e3","KL2012_e3_108",1,44,0,"Paintings-Paintings","Block1",2,2002,"Include"
"KL2012_e3","KL2012_e3_108",1,45,0,"Paintings-Paintings","Block1",1,762,"Include"
"KL2012_e3","KL2012_e3_108",1,46,1,"Paintings-Paintings","Block1",4,3450,"Include"
"KL2012_e3","KL2012_e3_108",1,47,1,"Paintings-Paintings","Block1",6,882,"Include"
"KL2012_e3","KL2012_e3_108",1,48,1,"Paintings-Paintings","Block1",6,618,"Include"
"KL2012_e3","KL2012_e3_108",1,49,0,"Paintings-Paintings","Block1",5,6636,"Include"
"KL2012_e3","KL2012_e3_108",1,50,1,"Paintings-Paintings","Block1",4,4465,"Include"
"KL2012_e3","KL2012_e3_108",1,51,1,"Paintings-Paintings","Block1",6,1671,"Include"
"KL2012_e3","KL2012_e3_108",1,52,0,"Paintings-Paintings","Block1",1,2540,"Include"
"KL2012_e3","KL2012_e3_108",1,53,1,"Paintings-Paintings","Block1",6,2079,"Include"
"KL2012_e3","KL2012_e3_108",1,54,0,"Paintings-Paintings","Block1",1,1127,"Include"
"KL2012_e3","KL2012_e3_108",1,55,1,"Paintings-Paintings","Block1",6,1727,"Include"
"KL2012_e3","KL2012_e3_108",1,56,0,"Paintings-Paintings","Block1",4,4303,"Include"
"KL2012_e3","KL2012_e3_108",1,57,1,"Paintings-Paintings","Block1",6,770,"Include"
"KL2012_e3","KL2012_e3_108",1,58,1,"Paintings-Paintings","Block1",6,770,"Include"
"KL2012_e3","KL2012_e3_108",1,59,0,"Paintings-Paintings","Block1",3,2210,"Include"
"KL2012_e3","KL2012_e3_108",1,60,1,"Paintings-Paintings","Block1",6,818,"Include"
"KL2012_e3","KL2012_e3_108",1,61,1,"Paintings-Paintings","Block1",2,4333,"Include"
"KL2012_e3","KL2012_e3_108",1,62,1,"Paintings-Paintings","Block1",4,4455,"Include"
"KL2012_e3","KL2012_e3_108",1,63,1,"Paintings-Paintings","Block1",1,778,"Include"
"KL2012_e3","KL2012_e3_108",1,64,1,"Paintings-Paintings","Block1",6,1725,"Include"
"KL2012_e3","KL2012_e3_108",1,65,1,"Paintings-Paintings","Block1",6,1405,"Include"
"KL2012_e3","KL2012_e3_108",1,66,0,"Paintings-Paintings","Block1",1,973,"Include"
"KL2012_e3","KL2012_e3_108",1,67,1,"Paintings-Paintings","Block1",6,1048,"Include"
"KL2012_e3","KL2012_e3_108",1,68,0,"Paintings-Paintings","Block1",1,1968,"Include"
"KL2012_e3","KL2012_e3_108",1,69,0,"Paintings-Paintings","Block1",5,6320,"Include"
"KL2012_e3","KL2012_e3_108",1,70,0,"Paintings-Paintings","Block1",1,1096,"Include"
"KL2012_e3","KL2012_e3_108",1,71,1,"Paintings-Paintings","Block1",1,2634,"Include"
"KL2012_e3","KL2012_e3_108",1,72,0,"Paintings-Paintings","Block1",1,720,"Include"
"KL2012_e3","KL2012_e3_108",1,73,0,"Paintings-Paintings","Block1",6,1288,"Include"
"KL2012_e3","KL2012_e3_108",1,74,0,"Paintings-Paintings","Block1",6,1760,"Include"
"KL2012_e3","KL2012_e3_108",1,75,1,"Paintings-Paintings","Block1",4,2856,"Include"
"KL2012_e3","KL2012_e3_108",1,76,0,"Paintings-Paintings","Block1",1,731,"Include"
"KL2012_e3","KL2012_e3_108",1,77,1,"Paintings-Paintings","Block1",6,963,"Include"
"KL2012_e3","KL2012_e3_108",1,78,1,"Paintings-Paintings","Block1",6,1035,"Include"
"KL2012_e3","KL2012_e3_108",1,79,1,"Paintings-Paintings","Block1",6,1952,"Include"
"KL2012_e3","KL2012_e3_108",1,80,1,"Paintings-Paintings","Block1",6,829,"Include"
"KL2012_e3","KL2012_e3_108",1,81,0,"Paintings-Paintings","Block1",1,2219,"Include"
"KL2012_e3","KL2012_e3_108",1,82,0,"Paintings-Paintings","Block1",1,2381,"Include"
"KL2012_e3","KL2012_e3_108",1,83,1,"Paintings-Paintings","Block1",6,768,"Include"
"KL2012_e3","KL2012_e3_108",1,84,1,"Paintings-Paintings","Block1",5,38912,"Include"
"KL2012_e3","KL2012_e3_108",1,85,0,"Paintings-Paintings","Block1",4,2078,"Include"
"KL2012_e3","KL2012_e3_108",1,86,0,"Paintings-Paintings","Block1",6,3268,"Include"
"KL2012_e3","KL2012_e3_108",1,87,1,"Paintings-Paintings","Block1",6,1097,"Include"
"KL2012_e3","KL2012_e3_108",1,88,1,"Paintings-Paintings","Block1",6,1516,"Include"
"KL2012_e3","KL2012_e3_108",1,89,0,"Paintings-Paintings","Block1",1,753,"Include"
"KL2012_e3","KL2012_e3_108",1,90,0,"Paintings-Paintings","Block1",1,1039,"Include"
"KL2012_e3","KL2012_e3_108",1,91,0,"Paintings-Paintings","Block1",4,3460,"Include"
"KL2012_e3","KL2012_e3_108",1,92,1,"Paintings-Paintings","Block1",6,1071,"Include"
"KL2012_e3","KL2012_e3_108",1,93,1,"Paintings-Paintings","Block1",1,2044,"Include"
"KL2012_e3","KL2012_e3_108",1,94,0,"Paintings-Paintings","Block1",1,1180,"Include"
"KL2012_e3","KL2012_e3_108",1,95,0,"Paintings-Paintings","Block1",1,719,"Include"
"KL2012_e3","KL2012_e3_108",1,96,0,"Paintings-Paintings","Block1",1,724,"Include"
"KL2012_e3","KL2012_e3_108",2,97,0,"Paintings-Paintings","Block2",1,3874,"Include"
"KL2012_e3","KL2012_e3_108",2,98,0,"Paintings-Paintings","Block2",1,864,"Include"
"KL2012_e3","KL2012_e3_108",2,99,1,"Paintings-Paintings","Block2",6,1170,"Include"
"KL2012_e3","KL2012_e3_108",2,100,1,"Paintings-Paintings","Block2",6,770,"Include"
"KL2012_e3","KL2012_e3_108",2,101,0,"Paintings-Paintings","Block2",1,850,"Include"
"KL2012_e3","KL2012_e3_108",2,102,1,"Paintings-Paintings","Block2",6,722,"Include"
"KL2012_e3","KL2012_e3_108",2,103,0,"Paintings-Paintings","Block2",1,1034,"Include"
"KL2012_e3","KL2012_e3_108",2,104,0,"Paintings-Paintings","Block2",1,1392,"Include"
"KL2012_e3","KL2012_e3_108",2,105,1,"Paintings-Paintings","Block2",6,829,"Include"
"KL2012_e3","KL2012_e3_108",2,106,1,"Paintings-Paintings","Block2",6,698,"Include"
"KL2012_e3","KL2012_e3_108",2,107,1,"Paintings-Paintings","Block2",6,589,"Include"
"KL2012_e3","KL2012_e3_108",2,108,0,"Paintings-Paintings","Block2",1,1995,"Include"
"KL2012_e3","KL2012_e3_108",2,109,1,"Paintings-Paintings","Block2",6,576,"Include"
"KL2012_e3","KL2012_e3_108",2,110,1,"Paintings-Paintings","Block2",6,523,"Include"
"KL2012_e3","KL2012_e3_108",2,111,1,"Paintings-Paintings","Block2",6,2923,"Include"
"KL2012_e3","KL2012_e3_108",2,112,1,"Paintings-Paintings","Block2",6,731,"Include"
"KL2012_e3","KL2012_e3_108",2,113,0,"Paintings-Paintings","Block2",1,755,"Include"
"KL2012_e3","KL2012_e3_108",2,114,0,"Paintings-Paintings","Block2",1,4896,"Include"
"KL2012_e3","KL2012_e3_108",2,115,1,"Paintings-Paintings","Block2",6,699,"Include"
"KL2012_e3","KL2012_e3_108",2,116,1,"Paintings-Paintings","Block2",6,1278,"Include"
"KL2012_e3","KL2012_e3_108",2,117,1,"Paintings-Paintings","Block2",6,851,"Include"
"KL2012_e3","KL2012_e3_108",2,118,1,"Paintings-Paintings","Block2",6,547,"Include"
"KL2012_e3","KL2012_e3_108",2,119,1,"Paintings-Paintings","Block2",6,648,"Include"
"KL2012_e3","KL2012_e3_108",2,120,1,"Paintings-Paintings","Block2",6,688,"Include"
"KL2012_e3","KL2012_e3_108",2,121,0,"Paintings-Paintings","Block2",1,672,"Include"
"KL2012_e3","KL2012_e3_108",2,122,0,"Paintings-Paintings","Block2",1,798,"Include"
"KL2012_e3","KL2012_e3_108",2,123,1,"Paintings-Paintings","Block2",6,739,"Include"
"KL2012_e3","KL2012_e3_108",2,124,0,"Paintings-Paintings","Block2",1,878,"Include"
"KL2012_e3","KL2012_e3_108",2,125,0,"Paintings-Paintings","Block2",1,595,"Include"
"KL2012_e3","KL2012_e3_108",2,126,0,"Paintings-Paintings","Block2",1,896,"Include"
"KL2012_e3","KL2012_e3_108",2,127,1,"Paintings-Paintings","Block2",6,1003,"Include"
"KL2012_e3","KL2012_e3_108",2,128,1,"Paintings-Paintings","Block2",6,4843,"Include"
"KL2012_e3","KL2012_e3_108",2,129,0,"Paintings-Paintings","Block2",2,3547,"Include"
"KL2012_e3","KL2012_e3_108",2,130,0,"Paintings-Paintings","Block2",1,825,"Include"
"KL2012_e3","KL2012_e3_108",2,131,0,"Paintings-Paintings","Block2",1,691,"Include"
"KL2012_e3","KL2012_e3_108",2,132,1,"Paintings-Paintings","Block2",6,835,"Include"
"KL2012_e3","KL2012_e3_108",2,133,0,"Paintings-Paintings","Block2",1,753,"Include"
"KL2012_e3","KL2012_e3_108",2,134,1,"Paintings-Paintings","Block2",6,1870,"Include"
"KL2012_e3","KL2012_e3_108",2,135,0,"Paintings-Paintings","Block2",1,923,"Include"
"KL2012_e3","KL2012_e3_108",2,136,0,"Paintings-Paintings","Block2",1,667,"Include"
"KL2012_e3","KL2012_e3_108",2,137,0,"Paintings-Paintings","Block2",1,649,"Include"
"KL2012_e3","KL2012_e3_108",2,138,0,"Paintings-Paintings","Block2",1,1792,"Include"
"KL2012_e3","KL2012_e3_108",2,139,0,"Paintings-Paintings","Block2",1,797,"Include"
"KL2012_e3","KL2012_e3_108",2,140,0,"Paintings-Paintings","Block2",1,963,"Include"
"KL2012_e3","KL2012_e3_108",2,141,0,"Paintings-Paintings","Block2",1,955,"Include"
"KL2012_e3","KL2012_e3_108",2,142,1,"Paintings-Paintings","Block2",6,848,"Include"
"KL2012_e3","KL2012_e3_108",2,143,1,"Paintings-Paintings","Block2",6,832,"Include"
"KL2012_e3","KL2012_e3_108",2,144,1,"Paintings-Paintings","Block2",6,749,"Include"
"KL2012_e3","KL2012_e3_108",2,145,1,"Paintings-Paintings","Block2",6,667,"Include"
"KL2012_e3","KL2012_e3_108",2,146,0,"Paintings-Paintings","Block2",5,2040,"Include"
"KL2012_e3","KL2012_e3_108",2,147,1,"Paintings-Paintings","Block2",6,1448,"Include"
"KL2012_e3","KL2012_e3_108",2,148,1,"Paintings-Paintings","Block2",1,1120,"Include"
"KL2012_e3","KL2012_e3_108",2,149,0,"Paintings-Paintings","Block2",1,808,"Include"
"KL2012_e3","KL2012_e3_108",2,150,0,"Paintings-Paintings","Block2",1,800,"Include"
"KL2012_e3","KL2012_e3_108",2,151,0,"Paintings-Paintings","Block2",1,600,"Include"
"KL2012_e3","KL2012_e3_108",2,152,1,"Paintings-Paintings","Block2",5,4600,"Include"
"KL2012_e3","KL2012_e3_108",2,153,1,"Paintings-Paintings","Block2",6,3416,"Include"
"KL2012_e3","KL2012_e3_108",2,154,1,"Paintings-Paintings","Block2",6,1035,"Include"
"KL2012_e3","KL2012_e3_108",2,155,1,"Paintings-Paintings","Block2",6,1296,"Include"
"KL2012_e3","KL2012_e3_108",2,156,0,"Paintings-Paintings","Block2",2,3707,"Include"
"KL2012_e3","KL2012_e3_108",2,157,1,"Paintings-Paintings","Block2",6,889,"Include"
"KL2012_e3","KL2012_e3_108",2,158,0,"Paintings-Paintings","Block2",4,2033,"Include"
"KL2012_e3","KL2012_e3_108",2,159,0,"Paintings-Paintings","Block2",4,2222,"Include"
"KL2012_e3","KL2012_e3_108",2,160,1,"Paintings-Paintings","Block2",5,1537,"Include"
"KL2012_e3","KL2012_e3_108",2,161,1,"Paintings-Paintings","Block2",2,37019,"Include"
"KL2012_e3","KL2012_e3_108",2,162,0,"Paintings-Paintings","Block2",1,719,"Include"
"KL2012_e3","KL2012_e3_108",2,163,1,"Paintings-Paintings","Block2",6,1172,"Include"
"KL2012_e3","KL2012_e3_108",2,164,0,"Paintings-Paintings","Block2",1,868,"Include"
"KL2012_e3","KL2012_e3_108",2,165,0,"Paintings-Paintings","Block2",1,729,"Include"
"KL2012_e3","KL2012_e3_108",2,166,1,"Paintings-Paintings","Block2",6,881,"Include"
"KL2012_e3","KL2012_e3_108",2,167,1,"Paintings-Paintings","Block2",6,3257,"Include"
"KL2012_e3","KL2012_e3_108",2,168,0,"Paintings-Paintings","Block2",1,748,"Include"
"KL2012_e3","KL2012_e3_108",2,169,0,"Paintings-Paintings","Block2",1,1018,"Include"
"KL2012_e3","KL2012_e3_108",2,170,1,"Paintings-Paintings","Block2",6,828,"Include"
"KL2012_e3","KL2012_e3_108",2,171,0,"Paintings-Paintings","Block2",1,1066,"Include"
"KL2012_e3","KL2012_e3_108",2,172,0,"Paintings-Paintings","Block2",1,852,"Include"
"KL2012_e3","KL2012_e3_108",2,173,0,"Paintings-Paintings","Block2",1,916,"Include"
"KL2012_e3","KL2012_e3_108",2,174,0,"Paintings-Paintings","Block2",5,4130,"Include"
"KL2012_e3","KL2012_e3_108",2,175,0,"Paintings-Paintings","Block2",1,1074,"Include"
"KL2012_e3","KL2012_e3_108",2,176,0,"Paintings-Paintings","Block2",1,687,"Include"
"KL2012_e3","KL2012_e3_108",2,177,1,"Paintings-Paintings","Block2",6,1583,"Include"
"KL2012_e3","KL2012_e3_108",2,178,1,"Paintings-Paintings","Block2",6,722,"Include"
"KL2012_e3","KL2012_e3_108",2,179,1,"Paintings-Paintings","Block2",6,682,"Include"
"KL2012_e3","KL2012_e3_108",2,180,1,"Paintings-Paintings","Block2",6,1018,"Include"
"KL2012_e3","KL2012_e3_108",2,181,0,"Paintings-Paintings","Block2",1,2269,"Include"
"KL2012_e3","KL2012_e3_108",2,182,0,"Paintings-Paintings","Block2",6,3354,"Include"
"KL2012_e3","KL2012_e3_108",2,183,1,"Paintings-Paintings","Block2",1,1663,"Include"
"KL2012_e3","KL2012_e3_108",2,184,0,"Paintings-Paintings","Block2",1,626,"Include"
"KL2012_e3","KL2012_e3_108",2,185,1,"Paintings-Paintings","Block2",5,4885,"Include"
"KL2012_e3","KL2012_e3_108",2,186,1,"Paintings-Paintings","Block2",6,1037,"Include"
"KL2012_e3","KL2012_e3_108",2,187,1,"Paintings-Paintings","Block2",6,898,"Include"
"KL2012_e3","KL2012_e3_108",2,188,0,"Paintings-Paintings","Block2",1,877,"Include"
"KL2012_e3","KL2012_e3_108",2,189,1,"Paintings-Paintings","Block2",4,14978,"Include"
"KL2012_e3","KL2012_e3_108",2,190,0,"Paintings-Paintings","Block2",5,3677,"Include"
"KL2012_e3","KL2012_e3_108",2,191,0,"Paintings-Paintings","Block2",1,1651,"Include"
"KL2012_e3","KL2012_e3_108",2,192,1,"Paintings-Paintings","Block2",2,2595,"Include"
"KL2012_e3","KL2012_e3_11",1,1,1,"Paintings-Paintings","Block1",4,2891,"Include"
"KL2012_e3","KL2012_e3_11",1,2,1,"Paintings-Paintings","Block1",3,2271,"Include"
"KL2012_e3","KL2012_e3_11",1,3,1,"Paintings-Paintings","Block1",2,1596,"Include"
"KL2012_e3","KL2012_e3_11",1,4,1,"Paintings-Paintings","Block1",2,2150,"Include"
"KL2012_e3","KL2012_e3_11",1,5,0,"Paintings-Paintings","Block1",2,1048,"Include"
"KL2012_e3","KL2012_e3_11",1,6,1,"Paintings-Paintings","Block1",3,1448,"Include"
"KL2012_e3","KL2012_e3_11",1,7,0,"Paintings-Paintings","Block1",2,1496,"Include"
"KL2012_e3","KL2012_e3_11",1,8,1,"Paintings-Paintings","Block1",4,2005,"Include"
"KL2012_e3","KL2012_e3_11",1,9,1,"Paintings-Paintings","Block1",2,1421,"Include"
"KL2012_e3","KL2012_e3_11",1,10,1,"Paintings-Paintings","Block1",5,1726,"Include"
"KL2012_e3","KL2012_e3_11",1,11,0,"Paintings-Paintings","Block1",6,1137,"Include"
"KL2012_e3","KL2012_e3_11",1,12,1,"Paintings-Paintings","Block1",2,2381,"Include"
"KL2012_e3","KL2012_e3_11",1,13,0,"Paintings-Paintings","Block1",3,1142,"Include"
"KL2012_e3","KL2012_e3_11",1,14,0,"Paintings-Paintings","Block1",3,1714,"Include"
"KL2012_e3","KL2012_e3_11",1,15,1,"Paintings-Paintings","Block1",6,1302,"Include"
"KL2012_e3","KL2012_e3_11",1,16,0,"Paintings-Paintings","Block1",1,1723,"Include"
"KL2012_e3","KL2012_e3_11",1,17,0,"Paintings-Paintings","Block1",2,1423,"Include"
"KL2012_e3","KL2012_e3_11",1,18,0,"Paintings-Paintings","Block1",3,1327,"Include"
"KL2012_e3","KL2012_e3_11",1,19,0,"Paintings-Paintings","Block1",4,1459,"Include"
"KL2012_e3","KL2012_e3_11",1,20,0,"Paintings-Paintings","Block1",2,1442,"Include"
"KL2012_e3","KL2012_e3_11",1,21,0,"Paintings-Paintings","Block1",1,1681,"Include"
"KL2012_e3","KL2012_e3_11",1,22,1,"Paintings-Paintings","Block1",6,1047,"Include"
"KL2012_e3","KL2012_e3_11",1,23,0,"Paintings-Paintings","Block1",2,1255,"Include"
"KL2012_e3","KL2012_e3_11",1,24,0,"Paintings-Paintings","Block1",1,1710,"Include"
"KL2012_e3","KL2012_e3_11",1,25,0,"Paintings-Paintings","Block1",2,1346,"Include"
"KL2012_e3","KL2012_e3_11",1,26,1,"Paintings-Paintings","Block1",6,1093,"Include"
"KL2012_e3","KL2012_e3_11",1,27,1,"Paintings-Paintings","Block1",3,1731,"Include"
"KL2012_e3","KL2012_e3_11",1,28,0,"Paintings-Paintings","Block1",1,1095,"Include"
"KL2012_e3","KL2012_e3_11",1,29,0,"Paintings-Paintings","Block1",2,1365,"Include"
"KL2012_e3","KL2012_e3_11",1,30,0,"Paintings-Paintings","Block1",3,1512,"Include"
"KL2012_e3","KL2012_e3_11",1,31,1,"Paintings-Paintings","Block1",3,1396,"Include"
"KL2012_e3","KL2012_e3_11",1,32,0,"Paintings-Paintings","Block1",5,1062,"Include"
"KL2012_e3","KL2012_e3_11",1,33,1,"Paintings-Paintings","Block1",3,1413,"Include"
"KL2012_e3","KL2012_e3_11",1,34,0,"Paintings-Paintings","Block1",4,1606,"Include"
"KL2012_e3","KL2012_e3_11",1,35,1,"Paintings-Paintings","Block1",6,1135,"Include"
"KL2012_e3","KL2012_e3_11",1,36,1,"Paintings-Paintings","Block1",4,1114,"Include"
"KL2012_e3","KL2012_e3_11",1,37,0,"Paintings-Paintings","Block1",2,1495,"Include"
"KL2012_e3","KL2012_e3_11",1,38,0,"Paintings-Paintings","Block1",2,1109,"Include"
"KL2012_e3","KL2012_e3_11",1,39,0,"Paintings-Paintings","Block1",1,1250,"Include"
"KL2012_e3","KL2012_e3_11",1,40,0,"Paintings-Paintings","Block1",2,1242,"Include"
"KL2012_e3","KL2012_e3_11",1,41,1,"Paintings-Paintings","Block1",4,1457,"Include"
"KL2012_e3","KL2012_e3_11",1,42,1,"Paintings-Paintings","Block1",4,1280,"Include"
"KL2012_e3","KL2012_e3_11",1,43,1,"Paintings-Paintings","Block1",2,1222,"Include"
"KL2012_e3","KL2012_e3_11",1,44,1,"Paintings-Paintings","Block1",2,1583,"Include"
"KL2012_e3","KL2012_e3_11",1,45,1,"Paintings-Paintings","Block1",4,1257,"Include"
"KL2012_e3","KL2012_e3_11",1,46,0,"Paintings-Paintings","Block1",2,1072,"Include"
"KL2012_e3","KL2012_e3_11",1,47,0,"Paintings-Paintings","Block1",1,1438,"Include"
"KL2012_e3","KL2012_e3_11",1,48,1,"Paintings-Paintings","Block1",3,1326,"Include"
"KL2012_e3","KL2012_e3_11",1,49,0,"Paintings-Paintings","Block1",3,1154,"Include"
"KL2012_e3","KL2012_e3_11",1,50,0,"Paintings-Paintings","Block1",3,1021,"Include"
