"exp","id","item","isold","rating","RT","excluding","trial"
"KUO2017_e2","KUO2017_e2_1","shipment",0,1,3306,"Include",1
"KUO2017_e2","KUO2017_e2_1","universe",1,6,986,"Include",2
"KUO2017_e2","KUO2017_e2_1","depth",0,4,1291,"Include",3
"KUO2017_e2","KUO2017_e2_1","laurel",1,6,1187,"Include",4
"KUO2017_e2","KUO2017_e2_1","philosophy",0,5,1219,"Include",5
"KUO2017_e2","KUO2017_e2_1","funeral",1,5,1131,"Include",6
"KUO2017_e2","KUO2017_e2_1","background",1,4,1515,"Include",7
"KUO2017_e2","KUO2017_e2_1","capacity",1,5,1067,"Include",8
"KUO2017_e2","KUO2017_e2_1","timber",1,6,834,"Include",9
"KUO2017_e2","KUO2017_e2_1","fibre",0,4,1587,"Include",10
"KUO2017_e2","KUO2017_e2_1","minority",0,5,1027,"Include",11
"KUO2017_e2","KUO2017_e2_1","transportation",1,6,1930,"Include",12
"KUO2017_e2","KUO2017_e2_1","instinct",0,4,995,"Include",13
"KUO2017_e2","KUO2017_e2_1","construction",0,5,794,"Include",14
"KUO2017_e2","KUO2017_e2_1","flight",1,4,962,"Include",15
"KUO2017_e2","KUO2017_e2_1","clergy",0,3,1122,"Include",16
"KUO2017_e2","KUO2017_e2_1","overlap",0,2,1074,"Include",17
"KUO2017_e2","KUO2017_e2_1","crypt",0,2,986,"Include",18
"KUO2017_e2","KUO2017_e2_1","inclusion",0,3,1922,"Include",19
"KUO2017_e2","KUO2017_e2_1","genie",1,5,1083,"Include",20
"KUO2017_e2","KUO2017_e2_1","tolerance",1,2,1131,"Include",21
"KUO2017_e2","KUO2017_e2_1","chaos",0,3,1954,"Include",22
"KUO2017_e2","KUO2017_e2_1","dinosaur",1,3,1603,"Include",23
"KUO2017_e2","KUO2017_e2_1","episode",1,3,811,"Include",24
"KUO2017_e2","KUO2017_e2_1","disability",0,2,1555,"Include",25
"KUO2017_e2","KUO2017_e2_1","cricket",1,3,883,"Include",26
"KUO2017_e2","KUO2017_e2_1","observation",1,6,987,"Include",27
"KUO2017_e2","KUO2017_e2_1","virus",0,1,1763,"Include",28
"KUO2017_e2","KUO2017_e2_1","turkey",1,6,1388,"Include",29
"KUO2017_e2","KUO2017_e2_1","phantom",0,3,1043,"Include",30
"KUO2017_e2","KUO2017_e2_1","sea",0,1,1187,"Include",31
"KUO2017_e2","KUO2017_e2_1","watt",1,6,1107,"Include",32
"KUO2017_e2","KUO2017_e2_1","retainer",0,3,1138,"Include",33
"KUO2017_e2","KUO2017_e2_1","escort",0,4,1466,"Include",34
"KUO2017_e2","KUO2017_e2_1","dignity",0,2,1058,"Include",35
"KUO2017_e2","KUO2017_e2_1","lizard",0,3,1034,"Include",36
"KUO2017_e2","KUO2017_e2_1","microwave",1,6,899,"Include",37
"KUO2017_e2","KUO2017_e2_1","shotgun",1,5,1562,"Include",38
"KUO2017_e2","KUO2017_e2_1","altitude",0,2,1163,"Include",39
"KUO2017_e2","KUO2017_e2_1","opinion",1,4,2002,"Include",40
"KUO2017_e2","KUO2017_e2_1","laureate",0,3,1842,"Include",41
"KUO2017_e2","KUO2017_e2_1","energy",1,3,987,"Include",42
"KUO2017_e2","KUO2017_e2_1","punishment",1,2,1155,"Include",43
"KUO2017_e2","KUO2017_e2_1","pot",0,1,987,"Include",44
"KUO2017_e2","KUO2017_e2_1","sapphire",0,1,1211,"Include",45
"KUO2017_e2","KUO2017_e2_1","defect",0,2,1379,"Include",46
"KUO2017_e2","KUO2017_e2_1","breath",0,3,1123,"Include",47
"KUO2017_e2","KUO2017_e2_1","dilemma",1,3,1003,"Include",48
"KUO2017_e2","KUO2017_e2_1","rebirth",0,3,795,"Include",49
"KUO2017_e2","KUO2017_e2_1","colonel",0,3,1395,"Include",50
"KUO2017_e2","KUO2017_e2_1","pike",0,3,770,"Include",51
"KUO2017_e2","KUO2017_e2_1","chocolate",1,5,1187,"Include",52
"KUO2017_e2","KUO2017_e2_1","semester",0,2,1178,"Include",53
"KUO2017_e2","KUO2017_e2_1","expert",1,1,1658,"Include",54
"KUO2017_e2","KUO2017_e2_1","vessel",1,4,1179,"Include",55
"KUO2017_e2","KUO2017_e2_1","closet",1,5,915,"Include",56
"KUO2017_e2","KUO2017_e2_1","symptom",1,4,914,"Include",57
"KUO2017_e2","KUO2017_e2_1","owner",0,3,723,"Include",58
"KUO2017_e2","KUO2017_e2_1","mercy",1,4,890,"Include",59
"KUO2017_e2","KUO2017_e2_1","makeup",1,6,914,"Include",60
"KUO2017_e2","KUO2017_e2_1","capsule",0,3,1426,"Include",61
"KUO2017_e2","KUO2017_e2_1","karma",1,3,1010,"Include",62
"KUO2017_e2","KUO2017_e2_1","superman",1,3,827,"Include",63
"KUO2017_e2","KUO2017_e2_1","injury",0,3,963,"Include",64
"KUO2017_e2","KUO2017_e2_1","candle",1,4,1035,"Include",65
"KUO2017_e2","KUO2017_e2_1","infection",1,4,2067,"Include",66
"KUO2017_e2","KUO2017_e2_1","viper",0,2,779,"Include",67
"KUO2017_e2","KUO2017_e2_1","academy",0,4,995,"Include",68
"KUO2017_e2","KUO2017_e2_1","rhythm",0,3,835,"Include",69
"KUO2017_e2","KUO2017_e2_1","socialism",0,2,1395,"Include",70
"KUO2017_e2","KUO2017_e2_1","generation",1,4,2586,"Include",71
"KUO2017_e2","KUO2017_e2_1","temperature",1,5,1259,"Include",72
"KUO2017_e2","KUO2017_e2_1","trial",1,4,1083,"Include",73
"KUO2017_e2","KUO2017_e2_1","mission",1,5,835,"Include",74
"KUO2017_e2","KUO2017_e2_1","intent",1,4,1218,"Include",75
"KUO2017_e2","KUO2017_e2_1","moderator",1,5,970,"Include",76
"KUO2017_e2","KUO2017_e2_1","carrion",0,2,834,"Include",77
"KUO2017_e2","KUO2017_e2_1","wraith",1,4,874,"Include",78
"KUO2017_e2","KUO2017_e2_1","publicity",1,5,1250,"Include",79
"KUO2017_e2","KUO2017_e2_1","feet",0,3,1274,"Include",80
"KUO2017_e2","KUO2017_e2_1","roommate",1,3,1715,"Include",81
"KUO2017_e2","KUO2017_e2_1","coordinator",0,3,3186,"Include",82
"KUO2017_e2","KUO2017_e2_1","policy",0,5,946,"Include",83
"KUO2017_e2","KUO2017_e2_1","jackal",1,6,1202,"Include",84
"KUO2017_e2","KUO2017_e2_1","automobile",1,2,1011,"Include",85
"KUO2017_e2","KUO2017_e2_1","marsh",0,3,947,"Include",86
"KUO2017_e2","KUO2017_e2_1","suggestion",1,4,1051,"Include",87
"KUO2017_e2","KUO2017_e2_1","invasion",1,5,827,"Include",88
"KUO2017_e2","KUO2017_e2_1","charity",0,3,835,"Include",89
"KUO2017_e2","KUO2017_e2_1","appointment",0,2,2035,"Include",90
"KUO2017_e2","KUO2017_e2_1","reprint",1,2,1019,"Include",91
"KUO2017_e2","KUO2017_e2_1","tyranny",1,3,851,"Include",92
"KUO2017_e2","KUO2017_e2_1","junction",0,3,963,"Include",93
"KUO2017_e2","KUO2017_e2_1","child",0,3,867,"Include",94
"KUO2017_e2","KUO2017_e2_1","rotation",0,3,2179,"Include",95
"KUO2017_e2","KUO2017_e2_1","status",1,3,1050,"Include",96
"KUO2017_e2","KUO2017_e2_1","introduction",0,4,930,"Include",97
"KUO2017_e2","KUO2017_e2_1","berry",0,3,971,"Include",98
"KUO2017_e2","KUO2017_e2_1","self",0,3,946,"Include",99
"KUO2017_e2","KUO2017_e2_1","founder",1,3,946,"Include",100
"KUO2017_e2","KUO2017_e2_2","founder",1,6,4931,"Include",1
"KUO2017_e2","KUO2017_e2_2","friend",1,6,1865,"Include",2
"KUO2017_e2","KUO2017_e2_2","artifact",0,1,1818,"Include",3
"KUO2017_e2","KUO2017_e2_2","temperature",1,6,2145,"Include",4
"KUO2017_e2","KUO2017_e2_2","acquisition",0,1,1100,"Include",5
"KUO2017_e2","KUO2017_e2_2","liver",1,6,1333,"Include",6
"KUO2017_e2","KUO2017_e2_2","miller",1,6,1069,"Include",7
"KUO2017_e2","KUO2017_e2_2","initiative",1,6,1327,"Include",8
"KUO2017_e2","KUO2017_e2_2","dad",1,2,1815,"Include",9
"KUO2017_e2","KUO2017_e2_2","literature",1,6,1144,"Include",10
"KUO2017_e2","KUO2017_e2_2","event",0,2,2265,"Include",11
"KUO2017_e2","KUO2017_e2_2","holocaust",1,4,6576,"Include",12
"KUO2017_e2","KUO2017_e2_2","preacher",0,1,1194,"Include",13
"KUO2017_e2","KUO2017_e2_2","elite",1,6,1098,"Include",14
"KUO2017_e2","KUO2017_e2_2","lieutenant",0,1,1226,"Include",15
"KUO2017_e2","KUO2017_e2_2","escort",0,1,1075,"Include",16
"KUO2017_e2","KUO2017_e2_2","hall",1,6,1061,"Include",17
"KUO2017_e2","KUO2017_e2_2","cancer",0,1,1009,"Include",18
"KUO2017_e2","KUO2017_e2_2","intelligence",0,3,2666,"Include",19
"KUO2017_e2","KUO2017_e2_2","globe",1,6,1282,"Include",20
"KUO2017_e2","KUO2017_e2_2","arithmetic",1,5,1593,"Include",21
"KUO2017_e2","KUO2017_e2_2","isolation",1,5,1138,"Include",22
"KUO2017_e2","KUO2017_e2_2","crusher",0,1,1030,"Include",23
"KUO2017_e2","KUO2017_e2_2","meat",0,3,1751,"Include",24
"KUO2017_e2","KUO2017_e2_2","navigation",0,3,1673,"Include",25
"KUO2017_e2","KUO2017_e2_2","postscript",1,5,1972,"Include",26
"KUO2017_e2","KUO2017_e2_2","significance",1,5,1209,"Include",27
"KUO2017_e2","KUO2017_e2_2","rod",0,1,1224,"Include",28
"KUO2017_e2","KUO2017_e2_2","web",0,1,987,"Include",29
"KUO2017_e2","KUO2017_e2_2","implication",1,5,1450,"Include",30
"KUO2017_e2","KUO2017_e2_2","elevator",1,3,2979,"Include",31
"KUO2017_e2","KUO2017_e2_2","physician",0,1,2551,"Include",32
"KUO2017_e2","KUO2017_e2_2","preparation",1,3,2657,"Include",33
"KUO2017_e2","KUO2017_e2_2","crusade",1,4,2259,"Include",34
"KUO2017_e2","KUO2017_e2_2","rainbow",0,1,1355,"Include",35
"KUO2017_e2","KUO2017_e2_2","player",0,1,1247,"Include",36
"KUO2017_e2","KUO2017_e2_2","configuration",1,6,1740,"Include",37
"KUO2017_e2","KUO2017_e2_2","treatment",1,4,1668,"Include",38
"KUO2017_e2","KUO2017_e2_2","niche",0,1,1042,"Include",39
"KUO2017_e2","KUO2017_e2_2","goblin",0,1,1296,"Include",40
"KUO2017_e2","KUO2017_e2_2","hierarchy",0,1,1060,"Include",41
"KUO2017_e2","KUO2017_e2_2","everything",1,3,3075,"Include",42
"KUO2017_e2","KUO2017_e2_2","reef",0,1,980,"Include",43
"KUO2017_e2","KUO2017_e2_2","translation",0,4,2138,"Include",44
"KUO2017_e2","KUO2017_e2_2","memo",1,6,1256,"Include",45
"KUO2017_e2","KUO2017_e2_2","darkness",0,1,1071,"Include",46
"KUO2017_e2","KUO2017_e2_2","estimate",0,5,3143,"Include",47
"KUO2017_e2","KUO2017_e2_2","discussion",0,1,1114,"Include",48
"KUO2017_e2","KUO2017_e2_2","chow",1,6,1271,"Include",49
"KUO2017_e2","KUO2017_e2_2","boulder",1,3,2590,"Include",50
"KUO2017_e2","KUO2017_e2_2","retirement",1,5,2067,"Include",51
"KUO2017_e2","KUO2017_e2_2","assembly",0,3,3470,"Include",52
"KUO2017_e2","KUO2017_e2_2","gloom",0,1,1337,"Include",53
"KUO2017_e2","KUO2017_e2_2","project",0,3,4814,"Include",54
"KUO2017_e2","KUO2017_e2_2","automobile",1,2,1277,"Include",55
"KUO2017_e2","KUO2017_e2_2","hobby",0,2,1466,"Include",56
"KUO2017_e2","KUO2017_e2_2","brother",1,1,1092,"Include",57
"KUO2017_e2","KUO2017_e2_2","melody",0,1,1661,"Include",58
"KUO2017_e2","KUO2017_e2_2","proportion",0,4,1721,"Include",59
"KUO2017_e2","KUO2017_e2_2","prospect",0,3,1089,"Include",60
"KUO2017_e2","KUO2017_e2_2","precedent",1,4,2136,"Include",61
"KUO2017_e2","KUO2017_e2_2","sake",0,1,1165,"Include",62
"KUO2017_e2","KUO2017_e2_2","keeper",0,2,2144,"Include",63
"KUO2017_e2","KUO2017_e2_2","verse",0,2,1356,"Include",64
"KUO2017_e2","KUO2017_e2_2","bee",1,6,1162,"Include",65
"KUO2017_e2","KUO2017_e2_2","absence",0,3,1598,"Include",66
"KUO2017_e2","KUO2017_e2_2","crisis",0,3,1321,"Include",67
"KUO2017_e2","KUO2017_e2_2","method",0,3,945,"Include",68
"KUO2017_e2","KUO2017_e2_2","nebula",0,1,1606,"Include",69
"KUO2017_e2","KUO2017_e2_2","subsidiary",1,4,2013,"Include",70
"KUO2017_e2","KUO2017_e2_2","sled",1,4,1294,"Include",71
"KUO2017_e2","KUO2017_e2_2","torso",1,6,1643,"Include",72
"KUO2017_e2","KUO2017_e2_2","torment",0,3,2459,"Include",73
"KUO2017_e2","KUO2017_e2_2","hunter",0,2,1246,"Include",74
"KUO2017_e2","KUO2017_e2_2","jet",1,3,1567,"Include",75
"KUO2017_e2","KUO2017_e2_2","instruction",0,5,1470,"Include",76
"KUO2017_e2","KUO2017_e2_2","hair",0,1,1392,"Include",77
"KUO2017_e2","KUO2017_e2_2","auto",1,3,2929,"Include",78
"KUO2017_e2","KUO2017_e2_2","hero",0,3,993,"Include",79
"KUO2017_e2","KUO2017_e2_2","brain",1,2,1476,"Include",80
"KUO2017_e2","KUO2017_e2_2","particle",1,5,1381,"Include",81
"KUO2017_e2","KUO2017_e2_2","predator",1,5,1231,"Include",82
"KUO2017_e2","KUO2017_e2_2","flair",0,1,1039,"Include",83
"KUO2017_e2","KUO2017_e2_2","chord",0,1,1025,"Include",84
"KUO2017_e2","KUO2017_e2_2","birthday",1,2,1739,"Include",85
"KUO2017_e2","KUO2017_e2_2","virus",1,5,1414,"Include",86
"KUO2017_e2","KUO2017_e2_2","tunnel",0,1,1193,"Include",87
"KUO2017_e2","KUO2017_e2_2","editor",1,3,5558,"Include",88
"KUO2017_e2","KUO2017_e2_2","mode",0,4,2055,"Include",89
"KUO2017_e2","KUO2017_e2_2","fisher",1,5,1299,"Include",90
"KUO2017_e2","KUO2017_e2_2","excellence",1,5,1417,"Include",91
"KUO2017_e2","KUO2017_e2_2","mankind",1,1,1288,"Include",92
"KUO2017_e2","KUO2017_e2_2","witch",1,5,1186,"Include",93
"KUO2017_e2","KUO2017_e2_2","belief",1,5,1091,"Include",94
"KUO2017_e2","KUO2017_e2_2","mainland",1,5,1463,"Include",95
"KUO2017_e2","KUO2017_e2_2","hog",1,5,1229,"Include",96
"KUO2017_e2","KUO2017_e2_2","correspondence",1,4,3050,"Include",97
"KUO2017_e2","KUO2017_e2_2","scrutiny",0,3,1933,"Include",98
"KUO2017_e2","KUO2017_e2_2","statement",0,2,4341,"Include",99
"KUO2017_e2","KUO2017_e2_2","security",0,5,1409,"Include",100
"KUO2017_e2","KUO2017_e2_3","terrier",1,6,4636,"Include",1
"KUO2017_e2","KUO2017_e2_3","nutrition",0,6,3298,"Include",2
"KUO2017_e2","KUO2017_e2_3","rainbow",1,6,2148,"Include",3
"KUO2017_e2","KUO2017_e2_3","maturity",1,6,2248,"Include",4
"KUO2017_e2","KUO2017_e2_3","crystal",1,2,2748,"Include",5
"KUO2017_e2","KUO2017_e2_3","consequence",0,5,2465,"Include",6
"KUO2017_e2","KUO2017_e2_3","circuit",1,6,1648,"Include",7
"KUO2017_e2","KUO2017_e2_3","cowboy",0,1,3448,"Include",8
"KUO2017_e2","KUO2017_e2_3","aspect",0,1,1282,"Include",9
"KUO2017_e2","KUO2017_e2_3","distinction",1,6,1715,"Include",10
"KUO2017_e2","KUO2017_e2_3","significance",1,6,1398,"Include",11
"KUO2017_e2","KUO2017_e2_3","response",0,4,1981,"Include",12
"KUO2017_e2","KUO2017_e2_3","penguin",0,1,3765,"Include",13
"KUO2017_e2","KUO2017_e2_3","cereal",0,3,3332,"Include",14
"KUO2017_e2","KUO2017_e2_3","symphony",1,5,2414,"Include",15
"KUO2017_e2","KUO2017_e2_3","stealth",0,5,3131,"Include",16
"KUO2017_e2","KUO2017_e2_3","grammar",1,6,1948,"Include",17
"KUO2017_e2","KUO2017_e2_3","oak",0,1,1748,"Include",18
"KUO2017_e2","KUO2017_e2_3","battery",0,5,2247,"Include",19
"KUO2017_e2","KUO2017_e2_3","massage",0,1,1865,"Include",20
"KUO2017_e2","KUO2017_e2_3","normalisation",0,2,1731,"Include",21
"KUO2017_e2","KUO2017_e2_3","jumper",1,2,1415,"Include",22
"KUO2017_e2","KUO2017_e2_3","voodoo",0,2,1348,"Include",23
"KUO2017_e2","KUO2017_e2_3","ignorance",1,5,1765,"Include",24
"KUO2017_e2","KUO2017_e2_3","movement",1,6,1465,"Include",25
"KUO2017_e2","KUO2017_e2_3","castle",0,1,1748,"Include",26
"KUO2017_e2","KUO2017_e2_3","vocabulary",1,6,1348,"Include",27
"KUO2017_e2","KUO2017_e2_3","cancellation",0,2,1699,"Include",28
"KUO2017_e2","KUO2017_e2_3","marshall",1,6,1564,"Include",29
"KUO2017_e2","KUO2017_e2_3","warranty",1,6,1248,"Include",30
"KUO2017_e2","KUO2017_e2_3","utility",0,2,2014,"Include",31
"KUO2017_e2","KUO2017_e2_3","transfer",1,5,1599,"Include",32
"KUO2017_e2","KUO2017_e2_3","combination",1,3,3948,"Include",33
"KUO2017_e2","KUO2017_e2_3","appointment",1,5,1798,"Include",34
"KUO2017_e2","KUO2017_e2_3","member",1,2,2115,"Include",35
"KUO2017_e2","KUO2017_e2_3","warmth",0,2,3131,"Include",36
"KUO2017_e2","KUO2017_e2_3","chrome",0,5,1732,"Include",37
"KUO2017_e2","KUO2017_e2_3","hunter",1,5,1464,"Include",38
"KUO2017_e2","KUO2017_e2_3","instinct",1,5,1432,"Include",39
"KUO2017_e2","KUO2017_e2_3","invasion",1,5,1515,"Include",40
"KUO2017_e2","KUO2017_e2_3","computer",1,2,1714,"Include",41
"KUO2017_e2","KUO2017_e2_3","commander",0,2,2532,"Include",42
"KUO2017_e2","KUO2017_e2_3","selection",0,3,1998,"Include",43
"KUO2017_e2","KUO2017_e2_3","assessment",1,6,2014,"Include",44
"KUO2017_e2","KUO2017_e2_3","warren",1,5,2065,"Include",45
"KUO2017_e2","KUO2017_e2_3","dervish",1,1,1731,"Include",46
"KUO2017_e2","KUO2017_e2_3","elevator",0,2,1683,"Include",47
"KUO2017_e2","KUO2017_e2_3","deployment",1,5,2665,"Include",48
"KUO2017_e2","KUO2017_e2_3","danger",1,4,2615,"Include",49
"KUO2017_e2","KUO2017_e2_3","translation",0,4,1932,"Include",50
"KUO2017_e2","KUO2017_e2_3","squad",1,5,1547,"Include",51
"KUO2017_e2","KUO2017_e2_3","renewal",1,5,1882,"Include",52
"KUO2017_e2","KUO2017_e2_3","passport",1,2,1731,"Include",53
"KUO2017_e2","KUO2017_e2_3","triangle",1,2,1465,"Include",54
"KUO2017_e2","KUO2017_e2_3","literature",0,2,1364,"Include",55
"KUO2017_e2","KUO2017_e2_3","warlord",0,1,1482,"Include",56
"KUO2017_e2","KUO2017_e2_3","ghost",1,6,2465,"Include",57
"KUO2017_e2","KUO2017_e2_3","flux",0,1,2132,"Include",58
"KUO2017_e2","KUO2017_e2_3","disorder",0,4,1864,"Include",59
"KUO2017_e2","KUO2017_e2_3","refund",0,4,1415,"Include",60
"KUO2017_e2","KUO2017_e2_3","anatomy",0,2,2648,"Include",61
"KUO2017_e2","KUO2017_e2_3","supplier",1,6,2381,"Include",62
"KUO2017_e2","KUO2017_e2_3","repository",0,2,1648,"Include",63
"KUO2017_e2","KUO2017_e2_3","evening",0,1,1382,"Include",64
"KUO2017_e2","KUO2017_e2_3","prince",0,1,1330,"Include",65
"KUO2017_e2","KUO2017_e2_3","taxpayer",0,1,1399,"Include",66
"KUO2017_e2","KUO2017_e2_3","council",1,1,1414,"Include",67
"KUO2017_e2","KUO2017_e2_3","amnesia",0,1,1965,"Include",68
"KUO2017_e2","KUO2017_e2_3","bullet",1,2,1298,"Include",69
"KUO2017_e2","KUO2017_e2_3","chord",1,4,2182,"Include",70
"KUO2017_e2","KUO2017_e2_3","abyss",0,2,1881,"Include",71
"KUO2017_e2","KUO2017_e2_3","moron",0,1,1948,"Include",72
"KUO2017_e2","KUO2017_e2_3","fragment",0,2,2698,"Include",73
"KUO2017_e2","KUO2017_e2_3","determination",1,6,1981,"Include",74
"KUO2017_e2","KUO2017_e2_3","surveillance",0,1,1731,"Include",75
"KUO2017_e2","KUO2017_e2_3","atom",1,6,1598,"Include",76
"KUO2017_e2","KUO2017_e2_3","reproduction",0,4,2382,"Include",77
"KUO2017_e2","KUO2017_e2_3","shaman",1,2,1981,"Include",78
"KUO2017_e2","KUO2017_e2_3","trinity",0,2,1531,"Include",79
"KUO2017_e2","KUO2017_e2_3","algorithm",1,1,1515,"Include",80
"KUO2017_e2","KUO2017_e2_3","occupation",0,2,1348,"Include",81
"KUO2017_e2","KUO2017_e2_3","marina",1,6,2032,"Include",82
"KUO2017_e2","KUO2017_e2_3","twilight",1,6,2598,"Include",83
"KUO2017_e2","KUO2017_e2_3","chunk",1,6,1414,"Include",84
"KUO2017_e2","KUO2017_e2_3","proposal",1,6,1532,"Include",85
"KUO2017_e2","KUO2017_e2_3","suspect",0,4,1848,"Include",86
"KUO2017_e2","KUO2017_e2_3","header",0,2,1565,"Include",87
"KUO2017_e2","KUO2017_e2_3","tab",1,2,1615,"Include",88
"KUO2017_e2","KUO2017_e2_3","vitamin",0,1,1651,"Include",89
"KUO2017_e2","KUO2017_e2_3","rider",1,5,1917,"Include",90
"KUO2017_e2","KUO2017_e2_3","medicine",0,1,1764,"Include",91
"KUO2017_e2","KUO2017_e2_3","kite",1,3,2498,"Include",92
"KUO2017_e2","KUO2017_e2_3","crusher",1,3,1481,"Include",93
"KUO2017_e2","KUO2017_e2_3","theory",0,3,1548,"Include",94
"KUO2017_e2","KUO2017_e2_3","client",0,4,2082,"Include",95
"KUO2017_e2","KUO2017_e2_3","letterman",1,6,1949,"Include",96
"KUO2017_e2","KUO2017_e2_3","pirate",0,4,1832,"Include",97
"KUO2017_e2","KUO2017_e2_3","league",0,3,1897,"Include",98
"KUO2017_e2","KUO2017_e2_3","institution",0,5,2314,"Include",99
"KUO2017_e2","KUO2017_e2_3","appearance",0,5,1382,"Include",100
"KUO2017_e2","KUO2017_e2_4","cricket",0,1,6817,"Include",1
"KUO2017_e2","KUO2017_e2_4","departure",1,6,2897,"Include",2
"KUO2017_e2","KUO2017_e2_4","contradiction",0,1,4748,"Include",3
"KUO2017_e2","KUO2017_e2_4","discussion",1,6,2098,"Include",4
"KUO2017_e2","KUO2017_e2_4","cabinet",0,1,2565,"Include",5
"KUO2017_e2","KUO2017_e2_4","woman",0,1,2381,"Include",6
"KUO2017_e2","KUO2017_e2_4","transformation",0,1,2331,"Include",7
"KUO2017_e2","KUO2017_e2_4","paperback",1,6,2115,"Include",8
"KUO2017_e2","KUO2017_e2_4","wizard",0,1,1480,"Include",9
"KUO2017_e2","KUO2017_e2_4","sleeve",1,1,4585,"Include",10
"KUO2017_e2","KUO2017_e2_4","fin",1,5,4562,"Include",11
"KUO2017_e2","KUO2017_e2_4","shooter",1,5,2398,"Include",12
"KUO2017_e2","KUO2017_e2_4","inferno",1,1,3060,"Include",13
"KUO2017_e2","KUO2017_e2_4","recorder",1,5,3619,"Include",14
"KUO2017_e2","KUO2017_e2_4","cartoon",0,1,1848,"Include",15
"KUO2017_e2","KUO2017_e2_4","tsunami",0,1,1349,"Include",16
"KUO2017_e2","KUO2017_e2_4","weapon",0,1,1447,"Include",17
"KUO2017_e2","KUO2017_e2_4","resistance",0,1,1348,"Include",18
"KUO2017_e2","KUO2017_e2_4","quark",0,1,1415,"Include",19
"KUO2017_e2","KUO2017_e2_4","vector",0,1,1149,"Include",20
"KUO2017_e2","KUO2017_e2_4","church",1,3,4040,"Include",21
"KUO2017_e2","KUO2017_e2_4","python",0,1,3000,"Include",22
"KUO2017_e2","KUO2017_e2_4","road",1,4,4455,"Include",23
"KUO2017_e2","KUO2017_e2_4","effort",1,4,1615,"Include",24
"KUO2017_e2","KUO2017_e2_4","limitation",0,1,1683,"Include",25
"KUO2017_e2","KUO2017_e2_4","compliance",1,6,2681,"Include",26
"KUO2017_e2","KUO2017_e2_4","publication",0,6,3264,"Include",27
"KUO2017_e2","KUO2017_e2_4","transfer",0,5,5400,"Include",28
"KUO2017_e2","KUO2017_e2_4","conference",0,2,2599,"Include",29
"KUO2017_e2","KUO2017_e2_4","isolation",0,1,1614,"Include",30
"KUO2017_e2","KUO2017_e2_4","rookie",1,4,3632,"Include",31
"KUO2017_e2","KUO2017_e2_4","shaman",0,1,2165,"Include",32
"KUO2017_e2","KUO2017_e2_4","equipment",0,1,1297,"Include",33
"KUO2017_e2","KUO2017_e2_4","defence",0,1,1915,"Include",34
"KUO2017_e2","KUO2017_e2_4","strategy",1,4,2532,"Include",35
"KUO2017_e2","KUO2017_e2_4","disposal",1,4,3081,"Include",36
"KUO2017_e2","KUO2017_e2_4","provider",1,3,1664,"Include",37
"KUO2017_e2","KUO2017_e2_4","truth",1,6,2299,"Include",38
"KUO2017_e2","KUO2017_e2_4","ghoul",0,1,1747,"Include",39
"KUO2017_e2","KUO2017_e2_4","discovery",1,3,3582,"Include",40
"KUO2017_e2","KUO2017_e2_4","expense",1,3,3764,"Include",41
"KUO2017_e2","KUO2017_e2_4","conviction",0,3,3582,"Include",42
"KUO2017_e2","KUO2017_e2_4","perfection",0,1,3198,"Include",43
"KUO2017_e2","KUO2017_e2_4","glory",1,1,1565,"Include",44
"KUO2017_e2","KUO2017_e2_4","fairness",0,1,1515,"Include",45
"KUO2017_e2","KUO2017_e2_4","accelerator",0,1,1215,"Include",46
"KUO2017_e2","KUO2017_e2_4","atmosphere",1,1,2134,"Include",47
"KUO2017_e2","KUO2017_e2_4","consultant",0,1,1713,"Include",48
"KUO2017_e2","KUO2017_e2_4","telescope",1,1,1515,"Include",49
"KUO2017_e2","KUO2017_e2_4","substance",1,4,2532,"Include",50
"KUO2017_e2","KUO2017_e2_4","clarity",0,1,1348,"Include",51
"KUO2017_e2","KUO2017_e2_4","buffalo",1,4,3381,"Include",52
"KUO2017_e2","KUO2017_e2_4","ecology",0,1,1465,"Include",53
"KUO2017_e2","KUO2017_e2_4","dale",0,1,1298,"Include",54
"KUO2017_e2","KUO2017_e2_4","fate",0,4,2414,"Include",55
"KUO2017_e2","KUO2017_e2_4","comedy",1,2,7098,"Include",56
"KUO2017_e2","KUO2017_e2_4","indigo",0,1,1782,"Include",57
"KUO2017_e2","KUO2017_e2_4","execution",0,1,2227,"Include",58
"KUO2017_e2","KUO2017_e2_4","contempt",0,1,1465,"Include",59
"KUO2017_e2","KUO2017_e2_4","piano",1,1,1831,"Include",60
"KUO2017_e2","KUO2017_e2_4","expansion",0,1,1498,"Include",61
"KUO2017_e2","KUO2017_e2_4","header",1,3,4031,"Include",62
"KUO2017_e2","KUO2017_e2_4","speech",1,4,4581,"Include",63
"KUO2017_e2","KUO2017_e2_4","fisher",1,1,1782,"Include",64
"KUO2017_e2","KUO2017_e2_4","vehicle",0,1,1648,"Include",65
"KUO2017_e2","KUO2017_e2_4","century",0,1,2482,"Include",66
"KUO2017_e2","KUO2017_e2_4","surname",0,1,1164,"Include",67
"KUO2017_e2","KUO2017_e2_4","algorithm",1,6,3881,"Include",68
"KUO2017_e2","KUO2017_e2_4","turtle",1,5,2231,"Include",69
"KUO2017_e2","KUO2017_e2_4","dogma",0,1,1681,"Include",70
"KUO2017_e2","KUO2017_e2_4","panel",0,1,2648,"Include",71
"KUO2017_e2","KUO2017_e2_4","solidarity",1,6,4116,"Include",72
"KUO2017_e2","KUO2017_e2_4","legacy",0,3,4749,"Include",73
"KUO2017_e2","KUO2017_e2_4","prediction",1,6,2531,"Include",74
"KUO2017_e2","KUO2017_e2_4","ability",0,1,2163,"Include",75
"KUO2017_e2","KUO2017_e2_4","sender",0,1,1549,"Include",76
"KUO2017_e2","KUO2017_e2_4","tear",1,5,2814,"Include",77
"KUO2017_e2","KUO2017_e2_4","magnitude",0,1,1698,"Include",78
"KUO2017_e2","KUO2017_e2_4","gallery",1,5,2132,"Include",79
"KUO2017_e2","KUO2017_e2_4","launcher",1,6,2982,"Include",80
"KUO2017_e2","KUO2017_e2_4","plasma",1,6,2315,"Include",81
"KUO2017_e2","KUO2017_e2_4","density",1,6,1998,"Include",82
"KUO2017_e2","KUO2017_e2_4","digit",1,5,3114,"Include",83
"KUO2017_e2","KUO2017_e2_4","retainer",1,2,3815,"Include",84
"KUO2017_e2","KUO2017_e2_4","inquiry",1,6,2016,"Include",85
"KUO2017_e2","KUO2017_e2_4","visualisation",1,6,1914,"Include",86
"KUO2017_e2","KUO2017_e2_4","journal",1,3,3448,"Include",87
"KUO2017_e2","KUO2017_e2_4","contribution",0,3,2115,"Include",88
"KUO2017_e2","KUO2017_e2_4","inn",1,3,2615,"Include",89
"KUO2017_e2","KUO2017_e2_4","money",1,4,3914,"Include",90
"KUO2017_e2","KUO2017_e2_4","nightmare",0,1,2248,"Include",91
"KUO2017_e2","KUO2017_e2_4","liability",0,5,2415,"Include",92
"KUO2017_e2","KUO2017_e2_4","prince",0,1,1466,"Include",93
"KUO2017_e2","KUO2017_e2_4","society",1,5,1947,"Include",94
"KUO2017_e2","KUO2017_e2_4","enchantment",1,1,1814,"Include",95
"KUO2017_e2","KUO2017_e2_4","server",1,5,2182,"Include",96
"KUO2017_e2","KUO2017_e2_4","liberty",1,5,1731,"Include",97
"KUO2017_e2","KUO2017_e2_4","reef",0,3,2514,"Include",98
"KUO2017_e2","KUO2017_e2_4","privacy",0,2,2865,"Include",99
"KUO2017_e2","KUO2017_e2_4","obsession",1,6,2216,"Include",100
"KUO2017_e2","KUO2017_e2_5","airline",0,1,4786,"Include",1
"KUO2017_e2","KUO2017_e2_5","way",1,6,2802,"Include",2
"KUO2017_e2","KUO2017_e2_5","environment",1,6,1710,"Include",3
"KUO2017_e2","KUO2017_e2_5","deadline",0,1,1598,"Include",4
"KUO2017_e2","KUO2017_e2_5","plenty",0,1,972,"Include",5
"KUO2017_e2","KUO2017_e2_5","chromosome",0,1,1098,"Include",6
"KUO2017_e2","KUO2017_e2_5","dean",0,1,1069,"Include",7
"KUO2017_e2","KUO2017_e2_5","body",1,6,882,"Include",8
"KUO2017_e2","KUO2017_e2_5","law",1,6,1231,"Include",9
"KUO2017_e2","KUO2017_e2_5","ribbon",1,6,715,"Include",10
"KUO2017_e2","KUO2017_e2_5","controller",1,6,660,"Include",11
"KUO2017_e2","KUO2017_e2_5","activity",1,6,622,"Include",12
"KUO2017_e2","KUO2017_e2_5","confrontation",1,6,768,"Include",13
"KUO2017_e2","KUO2017_e2_5","medicine",1,1,1565,"Include",14
"KUO2017_e2","KUO2017_e2_5","seeker",0,1,1069,"Include",15
"KUO2017_e2","KUO2017_e2_5","uncertainty",1,6,715,"Include",16
"KUO2017_e2","KUO2017_e2_5","physician",1,6,688,"Include",17
"KUO2017_e2","KUO2017_e2_5","sheet",1,6,837,"Include",18
"KUO2017_e2","KUO2017_e2_5","kitchen",1,6,904,"Include",19
"KUO2017_e2","KUO2017_e2_5","address",1,1,1232,"Include",20
"KUO2017_e2","KUO2017_e2_5","fireball",0,1,1093,"Include",21
"KUO2017_e2","KUO2017_e2_5","flux",1,6,807,"Include",22
"KUO2017_e2","KUO2017_e2_5","community",0,6,786,"Include",23
"KUO2017_e2","KUO2017_e2_5","weaver",1,6,673,"Include",24
"KUO2017_e2","KUO2017_e2_5","action",0,1,1214,"Include",25
"KUO2017_e2","KUO2017_e2_5","sanctuary",0,6,888,"Include",26
"KUO2017_e2","KUO2017_e2_5","declaration",1,6,1044,"Include",27
"KUO2017_e2","KUO2017_e2_5","scholarship",1,6,814,"Include",28
"KUO2017_e2","KUO2017_e2_5","volume",1,1,878,"Include",29
"KUO2017_e2","KUO2017_e2_5","notification",0,6,1524,"Include",30
"KUO2017_e2","KUO2017_e2_5","doe",0,1,796,"Include",31
"KUO2017_e2","KUO2017_e2_5","preservation",0,1,915,"Include",32
"KUO2017_e2","KUO2017_e2_5","particle",0,1,1590,"Include",33
"KUO2017_e2","KUO2017_e2_5","flute",0,6,1023,"Include",34
"KUO2017_e2","KUO2017_e2_5","ridge",0,1,1151,"Include",35
"KUO2017_e2","KUO2017_e2_5","sociology",0,6,918,"Include",36
"KUO2017_e2","KUO2017_e2_5","publicity",1,6,1434,"Include",37
"KUO2017_e2","KUO2017_e2_5","standpoint",1,1,1003,"Include",38
"KUO2017_e2","KUO2017_e2_5","cult",1,6,790,"Include",39
"KUO2017_e2","KUO2017_e2_5","crossover",0,6,737,"Include",40
"KUO2017_e2","KUO2017_e2_5","entrance",0,1,1256,"Include",41
"KUO2017_e2","KUO2017_e2_5","colossus",0,1,943,"Include",42
"KUO2017_e2","KUO2017_e2_5","disk",1,6,654,"Include",43
"KUO2017_e2","KUO2017_e2_5","tissue",0,1,792,"Include",44
"KUO2017_e2","KUO2017_e2_5","inclusion",1,6,855,"Include",45
"KUO2017_e2","KUO2017_e2_5","irony",0,1,788,"Include",46
"KUO2017_e2","KUO2017_e2_5","blood",1,6,635,"Include",47
"KUO2017_e2","KUO2017_e2_5","manner",1,3,2544,"Include",48
"KUO2017_e2","KUO2017_e2_5","mainland",0,3,1869,"Include",49
"KUO2017_e2","KUO2017_e2_5","syndrome",0,1,2506,"Include",50
"KUO2017_e2","KUO2017_e2_5","logic",0,1,954,"Include",51
"KUO2017_e2","KUO2017_e2_5","belief",0,1,878,"Include",52
"KUO2017_e2","KUO2017_e2_5","season",0,6,1346,"Include",53
"KUO2017_e2","KUO2017_e2_5","engine",1,6,800,"Include",54
"KUO2017_e2","KUO2017_e2_5","inferno",1,6,1714,"Include",55
"KUO2017_e2","KUO2017_e2_5","bonus",1,4,2039,"Include",56
"KUO2017_e2","KUO2017_e2_5","strength",0,3,2833,"Include",57
"KUO2017_e2","KUO2017_e2_5","entirety",1,6,903,"Include",58
"KUO2017_e2","KUO2017_e2_5","feet",1,4,2473,"Include",59
"KUO2017_e2","KUO2017_e2_5","lightning",0,1,1529,"Include",60
"KUO2017_e2","KUO2017_e2_5","quotation",1,6,796,"Include",61
"KUO2017_e2","KUO2017_e2_5","wad",0,6,895,"Include",62
"KUO2017_e2","KUO2017_e2_5","equality",0,6,901,"Include",63
"KUO2017_e2","KUO2017_e2_5","category",0,6,977,"Include",64
"KUO2017_e2","KUO2017_e2_5","polarity",1,6,825,"Include",65
"KUO2017_e2","KUO2017_e2_5","saga",0,1,1112,"Include",66
"KUO2017_e2","KUO2017_e2_5","event",0,6,899,"Include",67
"KUO2017_e2","KUO2017_e2_5","genealogy",0,6,1044,"Include",68
"KUO2017_e2","KUO2017_e2_5","demolition",1,6,735,"Include",69
"KUO2017_e2","KUO2017_e2_5","utility",0,6,966,"Include",70
"KUO2017_e2","KUO2017_e2_5","wife",1,6,775,"Include",71
"KUO2017_e2","KUO2017_e2_5","sentinel",1,6,767,"Include",72
"KUO2017_e2","KUO2017_e2_5","simplicity",0,6,808,"Include",73
"KUO2017_e2","KUO2017_e2_5","fraud",1,1,1226,"Include",74
"KUO2017_e2","KUO2017_e2_5","passion",1,6,824,"Include",75
"KUO2017_e2","KUO2017_e2_5","compassion",0,6,1087,"Include",76
"KUO2017_e2","KUO2017_e2_5","manuscript",1,2,1650,"Include",77
"KUO2017_e2","KUO2017_e2_5","federation",0,2,1186,"Include",78
"KUO2017_e2","KUO2017_e2_5","transmitter",1,1,2090,"Include",79
"KUO2017_e2","KUO2017_e2_5","poster",0,1,1662,"Include",80
"KUO2017_e2","KUO2017_e2_5","garbage",1,6,764,"Include",81
"KUO2017_e2","KUO2017_e2_5","import",1,5,2483,"Include",82
"KUO2017_e2","KUO2017_e2_5","boyfriend",0,1,1474,"Include",83
"KUO2017_e2","KUO2017_e2_5","spotlight",0,1,1648,"Include",84
"KUO2017_e2","KUO2017_e2_5","legacy",1,6,736,"Include",85
"KUO2017_e2","KUO2017_e2_5","spectrum",1,6,1119,"Include",86
"KUO2017_e2","KUO2017_e2_5","consistency",1,6,834,"Include",87
"KUO2017_e2","KUO2017_e2_5","duty",0,6,1359,"Include",88
"KUO2017_e2","KUO2017_e2_5","liar",0,1,917,"Include",89
"KUO2017_e2","KUO2017_e2_5","indigo",0,1,858,"Include",90
"KUO2017_e2","KUO2017_e2_5","beauty",0,1,1283,"Include",91
"KUO2017_e2","KUO2017_e2_5","adapter",0,1,809,"Include",92
"KUO2017_e2","KUO2017_e2_5","creativity",1,6,695,"Include",93
"KUO2017_e2","KUO2017_e2_5","stability",0,6,735,"Include",94
"KUO2017_e2","KUO2017_e2_5","wraith",1,6,778,"Include",95
"KUO2017_e2","KUO2017_e2_5","tiger",0,1,823,"Include",96
"KUO2017_e2","KUO2017_e2_5","postmaster",0,1,958,"Include",97
"KUO2017_e2","KUO2017_e2_5","priority",1,6,1140,"Include",98
"KUO2017_e2","KUO2017_e2_5","anarchy",1,6,798,"Include",99
"KUO2017_e2","KUO2017_e2_5","dollar",1,6,897,"Include",100
"KUO2017_e2","KUO2017_e2_6","assistance",0,6,6648,"Include",1
"KUO2017_e2","KUO2017_e2_6","trance",0,1,2760,"Include",2
"KUO2017_e2","KUO2017_e2_6","missile",0,1,2009,"Include",3
"KUO2017_e2","KUO2017_e2_6","prosperity",1,6,3378,"Include",4
"KUO2017_e2","KUO2017_e2_6","den",0,1,1501,"Include",5
"KUO2017_e2","KUO2017_e2_6","statement",0,1,3396,"Include",6
"KUO2017_e2","KUO2017_e2_6","piper",0,1,988,"Include",7
"KUO2017_e2","KUO2017_e2_6","assurance",0,5,3698,"Include",8
"KUO2017_e2","KUO2017_e2_6","litigation",0,1,2099,"Include",9
"KUO2017_e2","KUO2017_e2_6","transport",0,1,1610,"Include",10
"KUO2017_e2","KUO2017_e2_6","kingdom",1,6,2905,"Include",11
"KUO2017_e2","KUO2017_e2_6","personnel",0,6,1398,"Include",12
"KUO2017_e2","KUO2017_e2_6","freedom",0,1,4494,"Include",13
"KUO2017_e2","KUO2017_e2_6","mentality",1,6,3057,"Include",14
"KUO2017_e2","KUO2017_e2_6","demise",0,1,1192,"Include",15
"KUO2017_e2","KUO2017_e2_6","hill",1,2,4198,"Include",16
"KUO2017_e2","KUO2017_e2_6","appreciation",1,6,1899,"Include",17
"KUO2017_e2","KUO2017_e2_6","hardcover",0,1,1192,"Include",18
"KUO2017_e2","KUO2017_e2_6","aeroplane",0,1,1285,"Include",19
"KUO2017_e2","KUO2017_e2_6","proposal",1,6,1283,"Include",20
"KUO2017_e2","KUO2017_e2_6","isolation",0,1,4270,"Include",21
"KUO2017_e2","KUO2017_e2_6","summary",1,1,1291,"Include",22
"KUO2017_e2","KUO2017_e2_6","gift",1,6,2192,"Include",23
"KUO2017_e2","KUO2017_e2_6","eternity",1,6,1189,"Include",24
"KUO2017_e2","KUO2017_e2_6","frog",1,6,1209,"Include",25
"KUO2017_e2","KUO2017_e2_6","agony",0,1,889,"Include",26
"KUO2017_e2","KUO2017_e2_6","voodoo",1,6,1408,"Include",27
"KUO2017_e2","KUO2017_e2_6","diabetes",0,1,1249,"Include",28
"KUO2017_e2","KUO2017_e2_6","assessment",1,6,1945,"Include",29
"KUO2017_e2","KUO2017_e2_6","werewolf",1,6,1482,"Include",30
"KUO2017_e2","KUO2017_e2_6","roller",1,6,1196,"Include",31
"KUO2017_e2","KUO2017_e2_6","incident",1,2,4207,"Include",32
"KUO2017_e2","KUO2017_e2_6","alto",0,1,1288,"Include",33
"KUO2017_e2","KUO2017_e2_6","weakness",1,5,4039,"Include",34
"KUO2017_e2","KUO2017_e2_6","warehouse",1,6,2226,"Include",35
"KUO2017_e2","KUO2017_e2_6","druid",0,1,1042,"Include",36
"KUO2017_e2","KUO2017_e2_6","altar",0,1,990,"Include",37
"KUO2017_e2","KUO2017_e2_6","crystal",0,1,986,"Include",38
"KUO2017_e2","KUO2017_e2_6","micron",0,1,850,"Include",39
"KUO2017_e2","KUO2017_e2_6","lawsuit",1,1,885,"Include",40
"KUO2017_e2","KUO2017_e2_6","welfare",1,5,3976,"Include",41
"KUO2017_e2","KUO2017_e2_6","atmosphere",1,6,3134,"Include",42
"KUO2017_e2","KUO2017_e2_6","computation",0,1,1092,"Include",43
"KUO2017_e2","KUO2017_e2_6","territory",0,1,1200,"Include",44
"KUO2017_e2","KUO2017_e2_6","karate",1,6,1301,"Include",45
"KUO2017_e2","KUO2017_e2_6","transfer",1,1,3093,"Include",46
"KUO2017_e2","KUO2017_e2_6","oil",1,6,1430,"Include",47
"KUO2017_e2","KUO2017_e2_6","pike",1,5,2995,"Include",48
"KUO2017_e2","KUO2017_e2_6","midst",1,6,1400,"Include",49
"KUO2017_e2","KUO2017_e2_6","computer",0,1,2015,"Include",50
"KUO2017_e2","KUO2017_e2_6","inclusion",1,1,2587,"Include",51
"KUO2017_e2","KUO2017_e2_6","criticism",1,6,1593,"Include",52
"KUO2017_e2","KUO2017_e2_6","grammar",1,6,1780,"Include",53
"KUO2017_e2","KUO2017_e2_6","reef",1,6,1235,"Include",54
"KUO2017_e2","KUO2017_e2_6","toilet",0,1,1295,"Include",55
"KUO2017_e2","KUO2017_e2_6","blood",1,6,1431,"Include",56
"KUO2017_e2","KUO2017_e2_6","introduction",0,1,1793,"Include",57
"KUO2017_e2","KUO2017_e2_6","letterman",0,1,1493,"Include",58
"KUO2017_e2","KUO2017_e2_6","ratio",1,6,3886,"Include",59
"KUO2017_e2","KUO2017_e2_6","enterprise",1,6,1296,"Include",60
"KUO2017_e2","KUO2017_e2_6","journal",1,5,4107,"Include",61
"KUO2017_e2","KUO2017_e2_6","buggy",1,6,1985,"Include",62
"KUO2017_e2","KUO2017_e2_6","quest",1,1,2186,"Include",63
"KUO2017_e2","KUO2017_e2_6","amnesty",0,1,2035,"Include",64
"KUO2017_e2","KUO2017_e2_6","courtesy",0,1,1173,"Include",65
"KUO2017_e2","KUO2017_e2_6","girl",0,1,963,"Include",66
"KUO2017_e2","KUO2017_e2_6","cockpit",0,1,1132,"Include",67
"KUO2017_e2","KUO2017_e2_6","thesis",1,5,9742,"Include",68
"KUO2017_e2","KUO2017_e2_6","implementation",0,1,16956,"Include",69
"KUO2017_e2","KUO2017_e2_6","sheet",1,1,2698,"Include",70
"KUO2017_e2","KUO2017_e2_6","cabinet",0,1,993,"Include",71
"KUO2017_e2","KUO2017_e2_6","saint",1,6,2493,"Include",72
"KUO2017_e2","KUO2017_e2_6","speaker",1,5,2859,"Include",73
"KUO2017_e2","KUO2017_e2_6","hay",1,6,1384,"Include",74
"KUO2017_e2","KUO2017_e2_6","disagreement",0,1,1288,"Include",75
"KUO2017_e2","KUO2017_e2_6","disorder",0,1,1669,"Include",76
"KUO2017_e2","KUO2017_e2_6","throughput",1,6,1292,"Include",77
"KUO2017_e2","KUO2017_e2_6","repository",0,1,1493,"Include",78
"KUO2017_e2","KUO2017_e2_6","basement",0,1,1092,"Include",79
"KUO2017_e2","KUO2017_e2_6","liver",1,6,1094,"Include",80
"KUO2017_e2","KUO2017_e2_6","wrath",1,6,1296,"Include",81
"KUO2017_e2","KUO2017_e2_6","submission",0,1,3317,"Include",82
"KUO2017_e2","KUO2017_e2_6","priority",0,1,1991,"Include",83
"KUO2017_e2","KUO2017_e2_6","buyer",0,1,1089,"Include",84
"KUO2017_e2","KUO2017_e2_6","involvement",1,1,2899,"Include",85
"KUO2017_e2","KUO2017_e2_6","eclipse",0,1,992,"Include",86
"KUO2017_e2","KUO2017_e2_6","singer",0,1,1307,"Include",87
"KUO2017_e2","KUO2017_e2_6","extract",1,1,2697,"Include",88
"KUO2017_e2","KUO2017_e2_6","justice",0,1,1092,"Include",89
"KUO2017_e2","KUO2017_e2_6","slavery",0,1,891,"Include",90
"KUO2017_e2","KUO2017_e2_6","herb",0,1,994,"Include",91
"KUO2017_e2","KUO2017_e2_6","conversion",0,1,989,"Include",92
"KUO2017_e2","KUO2017_e2_6","legion",0,1,882,"Include",93
"KUO2017_e2","KUO2017_e2_6","newsletter",0,1,1663,"Include",94
"KUO2017_e2","KUO2017_e2_6","explanation",1,4,6913,"Include",95
"KUO2017_e2","KUO2017_e2_6","civilisation",1,6,20028,"Include",96
"KUO2017_e2","KUO2017_e2_6","nature",1,6,4002,"Include",97
"KUO2017_e2","KUO2017_e2_6","recorder",1,3,6796,"Include",98
"KUO2017_e2","KUO2017_e2_6","moron",1,6,1701,"Include",99
"KUO2017_e2","KUO2017_e2_6","reputation",0,1,7879,"Include",100
"KUO2017_e2","KUO2017_e2_7","camel",1,5,4423,"Include",1
"KUO2017_e2","KUO2017_e2_7","analogy",0,1,4209,"Include",2
"KUO2017_e2","KUO2017_e2_7","electron",1,6,1859,"Include",3
"KUO2017_e2","KUO2017_e2_7","vehicle",0,1,3635,"Include",4
"KUO2017_e2","KUO2017_e2_7","actor",1,5,5350,"Include",5
"KUO2017_e2","KUO2017_e2_7","system",0,4,2467,"Include",6
"KUO2017_e2","KUO2017_e2_7","abbey",0,1,2250,"Include",7
"KUO2017_e2","KUO2017_e2_7","thesis",0,1,1554,"Include",8
"KUO2017_e2","KUO2017_e2_7","sterling",0,1,1650,"Include",9
"KUO2017_e2","KUO2017_e2_7","chrome",0,1,1179,"Include",10
"KUO2017_e2","KUO2017_e2_7","planet",1,6,1650,"Include",11
"KUO2017_e2","KUO2017_e2_7","protein",1,6,1266,"Include",12
"KUO2017_e2","KUO2017_e2_7","deer",1,6,1146,"Include",13
"KUO2017_e2","KUO2017_e2_7","context",0,2,2522,"Include",14
"KUO2017_e2","KUO2017_e2_7","machinery",0,2,1882,"Include",15
"KUO2017_e2","KUO2017_e2_7","aeroplane",1,6,1475,"Include",16
"KUO2017_e2","KUO2017_e2_7","origin",1,6,2426,"Include",17
"KUO2017_e2","KUO2017_e2_7","tutorial",1,5,2458,"Include",18
"KUO2017_e2","KUO2017_e2_7","spine",0,2,1922,"Include",19
"KUO2017_e2","KUO2017_e2_7","avenue",1,6,1946,"Include",20
"KUO2017_e2","KUO2017_e2_7","owl",1,6,1538,"Include",21
"KUO2017_e2","KUO2017_e2_7","escort",0,4,1931,"Include",22
"KUO2017_e2","KUO2017_e2_7","threshold",0,2,2066,"Include",23
"KUO2017_e2","KUO2017_e2_7","supplement",1,6,1539,"Include",24
"KUO2017_e2","KUO2017_e2_7","gravity",0,3,3790,"Include",25
"KUO2017_e2","KUO2017_e2_7","thigh",1,6,1427,"Include",26
"KUO2017_e2","KUO2017_e2_7","territory",1,6,1362,"Include",27
"KUO2017_e2","KUO2017_e2_7","pursuit",1,6,1242,"Include",28
"KUO2017_e2","KUO2017_e2_7","extract",0,6,5171,"Include",29
"KUO2017_e2","KUO2017_e2_7","evening",0,2,4035,"Include",30
"KUO2017_e2","KUO2017_e2_7","shark",1,6,2586,"Include",31
"KUO2017_e2","KUO2017_e2_7","animal",0,4,2827,"Include",32
"KUO2017_e2","KUO2017_e2_7","goodness",0,1,3350,"Include",33
"KUO2017_e2","KUO2017_e2_7","patience",1,5,2690,"Include",34
"KUO2017_e2","KUO2017_e2_7","scope",0,5,2411,"Include",35
"KUO2017_e2","KUO2017_e2_7","memorial",0,4,2795,"Include",36
"KUO2017_e2","KUO2017_e2_7","grandfather",0,1,1778,"Include",37
"KUO2017_e2","KUO2017_e2_7","spacecraft",0,1,1426,"Include",38
"KUO2017_e2","KUO2017_e2_7","arcade",0,2,1963,"Include",39
"KUO2017_e2","KUO2017_e2_7","prostitution",0,1,2067,"Include",40
"KUO2017_e2","KUO2017_e2_7","article",1,4,2912,"Include",41
"KUO2017_e2","KUO2017_e2_7","goblin",1,6,1339,"Include",42
"KUO2017_e2","KUO2017_e2_7","affair",1,6,922,"Include",43
"KUO2017_e2","KUO2017_e2_7","import",0,5,2138,"Include",44
"KUO2017_e2","KUO2017_e2_7","society",0,4,1962,"Include",45
"KUO2017_e2","KUO2017_e2_7","berry",0,1,1476,"Include",46
"KUO2017_e2","KUO2017_e2_7","jury",1,6,1419,"Include",47
"KUO2017_e2","KUO2017_e2_7","canyon",0,2,1763,"Include",48
"KUO2017_e2","KUO2017_e2_7","candle",0,1,2626,"Include",49
"KUO2017_e2","KUO2017_e2_7","recommendation",0,1,2641,"Include",50
"KUO2017_e2","KUO2017_e2_7","allocation",1,3,2195,"Include",51
"KUO2017_e2","KUO2017_e2_7","eclipse",1,4,3662,"Include",52
"KUO2017_e2","KUO2017_e2_7","imp",1,6,1266,"Include",53
"KUO2017_e2","KUO2017_e2_7","tension",1,6,1842,"Include",54
"KUO2017_e2","KUO2017_e2_7","ear",1,5,1307,"Include",55
"KUO2017_e2","KUO2017_e2_7","autumn",0,1,1402,"Include",56
"KUO2017_e2","KUO2017_e2_7","grid",0,3,2043,"Include",57
"KUO2017_e2","KUO2017_e2_7","contribution",0,3,1658,"Include",58
"KUO2017_e2","KUO2017_e2_7","charity",1,4,2210,"Include",59
"KUO2017_e2","KUO2017_e2_7","simplicity",1,5,2027,"Include",60
"KUO2017_e2","KUO2017_e2_7","redemption",0,2,3225,"Include",61
"KUO2017_e2","KUO2017_e2_7","colossus",1,6,1386,"Include",62
"KUO2017_e2","KUO2017_e2_7","export",1,6,1035,"Include",63
"KUO2017_e2","KUO2017_e2_7","shutdown",0,1,1410,"Include",64
"KUO2017_e2","KUO2017_e2_7","fabric",1,4,1930,"Include",65
"KUO2017_e2","KUO2017_e2_7","length",1,6,1706,"Include",66
"KUO2017_e2","KUO2017_e2_7","destruction",0,1,1378,"Include",67
"KUO2017_e2","KUO2017_e2_7","inflation",0,1,1362,"Include",68
"KUO2017_e2","KUO2017_e2_7","lion",0,2,2778,"Include",69
"KUO2017_e2","KUO2017_e2_7","leisure",1,6,2147,"Include",70
"KUO2017_e2","KUO2017_e2_7","kitty",1,6,906,"Include",71
"KUO2017_e2","KUO2017_e2_7","cookbook",0,1,1427,"Include",72
"KUO2017_e2","KUO2017_e2_7","admiral",1,4,2019,"Include",73
"KUO2017_e2","KUO2017_e2_7","resistor",0,1,1675,"Include",74
"KUO2017_e2","KUO2017_e2_7","movement",1,4,1674,"Include",75
"KUO2017_e2","KUO2017_e2_7","concert",1,5,1594,"Include",76
"KUO2017_e2","KUO2017_e2_7","shaw",1,6,1594,"Include",77
"KUO2017_e2","KUO2017_e2_7","fin",0,1,1242,"Include",78
"KUO2017_e2","KUO2017_e2_7","charger",1,6,1874,"Include",79
"KUO2017_e2","KUO2017_e2_7","poetry",0,6,3560,"Include",80
"KUO2017_e2","KUO2017_e2_7","member",1,3,2130,"Include",81
"KUO2017_e2","KUO2017_e2_7","strategy",0,3,1810,"Include",82
"KUO2017_e2","KUO2017_e2_7","education",0,3,1843,"Include",83
"KUO2017_e2","KUO2017_e2_7","hornet",1,6,1371,"Include",84
"KUO2017_e2","KUO2017_e2_7","anyone",1,6,2458,"Include",85
"KUO2017_e2","KUO2017_e2_7","noon",1,2,1963,"Include",86
"KUO2017_e2","KUO2017_e2_7","description",1,3,2586,"Include",87
"KUO2017_e2","KUO2017_e2_7","mentality",1,5,2098,"Include",88
"KUO2017_e2","KUO2017_e2_7","income",0,5,1410,"Include",89
"KUO2017_e2","KUO2017_e2_7","socialism",0,2,1594,"Include",90
"KUO2017_e2","KUO2017_e2_7","depth",1,6,1378,"Include",91
"KUO2017_e2","KUO2017_e2_7","entry",1,3,1970,"Include",92
"KUO2017_e2","KUO2017_e2_7","decency",0,2,1850,"Include",93
"KUO2017_e2","KUO2017_e2_7","graduation",1,6,1290,"Include",94
"KUO2017_e2","KUO2017_e2_7","vector",1,6,955,"Include",95
"KUO2017_e2","KUO2017_e2_7","conflict",1,6,1115,"Include",96
"KUO2017_e2","KUO2017_e2_7","talent",0,4,2739,"Include",97
"KUO2017_e2","KUO2017_e2_7","culture",0,3,1506,"Include",98
"KUO2017_e2","KUO2017_e2_7","trainer",0,4,1852,"Include",99
"KUO2017_e2","KUO2017_e2_7","initiative",0,3,2427,"Include",100
"KUO2017_e2","KUO2017_e2_8","homicide",0,1,5643,"Include",1
"KUO2017_e2","KUO2017_e2_8","manipulation",0,6,3925,"Include",2
"KUO2017_e2","KUO2017_e2_8","madness",0,2,3172,"Include",3
"KUO2017_e2","KUO2017_e2_8","outpost",1,5,2440,"Include",4
"KUO2017_e2","KUO2017_e2_8","dialect",1,6,1546,"Include",5
"KUO2017_e2","KUO2017_e2_8","cloth",1,6,1063,"Include",6
"KUO2017_e2","KUO2017_e2_8","torment",1,6,882,"Include",7
"KUO2017_e2","KUO2017_e2_8","salmon",0,1,1198,"Include",8
"KUO2017_e2","KUO2017_e2_8","wine",1,1,1123,"Include",9
"KUO2017_e2","KUO2017_e2_8","lung",1,6,1331,"Include",10
"KUO2017_e2","KUO2017_e2_8","acorn",0,1,1084,"Include",11
"KUO2017_e2","KUO2017_e2_8","deduction",1,6,1341,"Include",12
"KUO2017_e2","KUO2017_e2_8","scum",0,1,1118,"Include",13
"KUO2017_e2","KUO2017_e2_8","church",1,1,872,"Include",14
"KUO2017_e2","KUO2017_e2_8","path",0,1,968,"Include",15
"KUO2017_e2","KUO2017_e2_8","trilogy",0,1,707,"Include",16
"KUO2017_e2","KUO2017_e2_8","friction",0,4,3331,"Include",17
"KUO2017_e2","KUO2017_e2_8","justice",0,4,2190,"Include",18
"KUO2017_e2","KUO2017_e2_8","admiral",0,5,3713,"Include",19
"KUO2017_e2","KUO2017_e2_8","shirt",0,5,2675,"Include",20
"KUO2017_e2","KUO2017_e2_8","sticker",0,1,1213,"Include",21
"KUO2017_e2","KUO2017_e2_8","singer",1,5,1023,"Include",22
"KUO2017_e2","KUO2017_e2_8","factory",0,4,3149,"Include",23
"KUO2017_e2","KUO2017_e2_8","reality",0,5,1341,"Include",24
"KUO2017_e2","KUO2017_e2_8","mode",0,1,1113,"Include",25
"KUO2017_e2","KUO2017_e2_8","pipeline",1,6,1956,"Include",26
"KUO2017_e2","KUO2017_e2_8","establishment",0,5,2059,"Include",27
"KUO2017_e2","KUO2017_e2_8","culture",0,5,1511,"Include",28
"KUO2017_e2","KUO2017_e2_8","significance",0,2,1333,"Include",29
"KUO2017_e2","KUO2017_e2_8","crypt",0,1,1658,"Include",30
"KUO2017_e2","KUO2017_e2_8","ion",0,1,772,"Include",31
"KUO2017_e2","KUO2017_e2_8","adventure",1,6,1295,"Include",32
"KUO2017_e2","KUO2017_e2_8","meditation",0,5,1840,"Include",33
"KUO2017_e2","KUO2017_e2_8","monopoly",1,6,869,"Include",34
"KUO2017_e2","KUO2017_e2_8","litigation",1,6,923,"Include",35
"KUO2017_e2","KUO2017_e2_8","improvement",0,2,1035,"Include",36
"KUO2017_e2","KUO2017_e2_8","export",0,2,1287,"Include",37
"KUO2017_e2","KUO2017_e2_8","tool",1,6,1326,"Include",38
"KUO2017_e2","KUO2017_e2_8","clarity",0,3,3394,"Include",39
"KUO2017_e2","KUO2017_e2_8","basket",1,6,1215,"Include",40
"KUO2017_e2","KUO2017_e2_8","discretion",1,6,1002,"Include",41
"KUO2017_e2","KUO2017_e2_8","clock",0,2,1241,"Include",42
"KUO2017_e2","KUO2017_e2_8","lesson",0,2,898,"Include",43
"KUO2017_e2","KUO2017_e2_8","electron",1,6,1352,"Include",44
"KUO2017_e2","KUO2017_e2_8","evening",1,6,1408,"Include",45
"KUO2017_e2","KUO2017_e2_8","bull",1,6,720,"Include",46
"KUO2017_e2","KUO2017_e2_8","disadvantage",1,6,3613,"Include",47
"KUO2017_e2","KUO2017_e2_8","neutron",1,2,1996,"Include",48
"KUO2017_e2","KUO2017_e2_8","granite",0,1,938,"Include",49
"KUO2017_e2","KUO2017_e2_8","expense",1,6,1722,"Include",50
"KUO2017_e2","KUO2017_e2_8","darkness",1,6,1536,"Include",51
"KUO2017_e2","KUO2017_e2_8","merchant",1,6,759,"Include",52
"KUO2017_e2","KUO2017_e2_8","customer",0,5,1495,"Include",53
"KUO2017_e2","KUO2017_e2_8","advocacy",1,5,1162,"Include",54
"KUO2017_e2","KUO2017_e2_8","engagement",1,5,1208,"Include",55
"KUO2017_e2","KUO2017_e2_8","inheritance",1,5,1072,"Include",56
"KUO2017_e2","KUO2017_e2_8","tortoise",0,1,1172,"Include",57
"KUO2017_e2","KUO2017_e2_8","engine",0,3,2064,"Include",58
"KUO2017_e2","KUO2017_e2_8","mob",1,6,1311,"Include",59
"KUO2017_e2","KUO2017_e2_8","behalf",1,6,1011,"Include",60
"KUO2017_e2","KUO2017_e2_8","receiver",1,2,3075,"Include",61
"KUO2017_e2","KUO2017_e2_8","grammar",0,1,1323,"Include",62
"KUO2017_e2","KUO2017_e2_8","tourist",0,5,1229,"Include",63
"KUO2017_e2","KUO2017_e2_8","barrier",1,3,2060,"Include",64
"KUO2017_e2","KUO2017_e2_8","dairy",1,6,1113,"Include",65
"KUO2017_e2","KUO2017_e2_8","twister",1,6,681,"Include",66
"KUO2017_e2","KUO2017_e2_8","logic",1,6,1094,"Include",67
"KUO2017_e2","KUO2017_e2_8","alto",0,1,954,"Include",68
"KUO2017_e2","KUO2017_e2_8","chemistry",1,5,1458,"Include",69
"KUO2017_e2","KUO2017_e2_8","pod",0,1,777,"Include",70
"KUO2017_e2","KUO2017_e2_8","citizen",1,6,835,"Include",71
"KUO2017_e2","KUO2017_e2_8","karate",1,1,674,"Include",72
"KUO2017_e2","KUO2017_e2_8","liberty",0,2,1353,"Include",73
"KUO2017_e2","KUO2017_e2_8","player",1,1,714,"Include",74
"KUO2017_e2","KUO2017_e2_8","sorceress",1,5,1602,"Include",75
"KUO2017_e2","KUO2017_e2_8","insult",0,1,999,"Include",76
"KUO2017_e2","KUO2017_e2_8","degree",0,1,1244,"Include",77
"KUO2017_e2","KUO2017_e2_8","liaison",1,5,1992,"Include",78
"KUO2017_e2","KUO2017_e2_8","trend",1,1,2000,"Include",79
"KUO2017_e2","KUO2017_e2_8","sensation",0,3,4428,"Include",80
"KUO2017_e2","KUO2017_e2_8","resurrection",0,5,1514,"Include",81
"KUO2017_e2","KUO2017_e2_8","flea",1,6,1080,"Include",82
"KUO2017_e2","KUO2017_e2_8","taxpayer",0,5,2164,"Include",83
"KUO2017_e2","KUO2017_e2_8","subsystem",1,4,3450,"Include",84
"KUO2017_e2","KUO2017_e2_8","receipt",0,1,1101,"Include",85
"KUO2017_e2","KUO2017_e2_8","principle",1,4,1163,"Include",86
"KUO2017_e2","KUO2017_e2_8","vampire",0,1,1484,"Include",87
"KUO2017_e2","KUO2017_e2_8","threat",1,2,1544,"Include",88
"KUO2017_e2","KUO2017_e2_8","separation",0,4,2411,"Include",89
"KUO2017_e2","KUO2017_e2_8","senator",1,5,1573,"Include",90
"KUO2017_e2","KUO2017_e2_8","gasp",1,2,1338,"Include",91
"KUO2017_e2","KUO2017_e2_8","audience",0,5,2052,"Include",92
"KUO2017_e2","KUO2017_e2_8","technology",1,5,3309,"Include",93
"KUO2017_e2","KUO2017_e2_8","feet",0,1,880,"Include",94
"KUO2017_e2","KUO2017_e2_8","corporation",0,1,1995,"Include",95
"KUO2017_e2","KUO2017_e2_8","office",0,1,975,"Include",96
"KUO2017_e2","KUO2017_e2_8","recognition",0,2,1662,"Include",97
"KUO2017_e2","KUO2017_e2_8","lad",1,5,1902,"Include",98
"KUO2017_e2","KUO2017_e2_8","founder",1,2,1067,"Include",99
"KUO2017_e2","KUO2017_e2_8","rag",0,1,1090,"Include",100
"KUO2017_e2","KUO2017_e2_9","chord",0,1,22843,"Include",1
"KUO2017_e2","KUO2017_e2_9","aorta",1,6,7426,"Include",2
"KUO2017_e2","KUO2017_e2_9","courage",0,1,4715,"Include",3
"KUO2017_e2","KUO2017_e2_9","festival",0,1,3499,"Include",4
"KUO2017_e2","KUO2017_e2_9","viewpoint",1,6,2755,"Include",5
"KUO2017_e2","KUO2017_e2_9","gym",1,5,9835,"Include",6
"KUO2017_e2","KUO2017_e2_9","engagement",1,6,4611,"Include",7
"KUO2017_e2","KUO2017_e2_9","carol",0,1,3275,"Include",8
"KUO2017_e2","KUO2017_e2_9","problem",1,5,6650,"Include",9
"KUO2017_e2","KUO2017_e2_9","reunion",0,1,2644,"Include",10
"KUO2017_e2","KUO2017_e2_9","marriage",1,5,6427,"Include",11
"KUO2017_e2","KUO2017_e2_9","rat",1,6,3434,"Include",12
"KUO2017_e2","KUO2017_e2_9","correlation",0,1,2331,"Include",13
"KUO2017_e2","KUO2017_e2_9","terrain",0,1,2244,"Include",14
"KUO2017_e2","KUO2017_e2_9","sensor",1,1,1979,"Include",15
"KUO2017_e2","KUO2017_e2_9","plasma",1,1,1763,"Include",16
"KUO2017_e2","KUO2017_e2_9","showcase",1,6,3371,"Include",17
"KUO2017_e2","KUO2017_e2_9","propagation",1,2,6482,"Include",18
"KUO2017_e2","KUO2017_e2_9","converter",1,2,5140,"Include",19
"KUO2017_e2","KUO2017_e2_9","psychology",0,1,2707,"Include",20
"KUO2017_e2","KUO2017_e2_9","afternoon",0,1,1587,"Include",21
"KUO2017_e2","KUO2017_e2_9","radius",0,1,1171,"Include",22
"KUO2017_e2","KUO2017_e2_9","recorder",0,3,15355,"Include",23
"KUO2017_e2","KUO2017_e2_9","handbook",0,1,2370,"Include",24
"KUO2017_e2","KUO2017_e2_9","suicide",0,1,1778,"Include",25
"KUO2017_e2","KUO2017_e2_9","tray",1,5,5580,"Include",26
"KUO2017_e2","KUO2017_e2_9","thesis",1,3,5891,"Include",27
"KUO2017_e2","KUO2017_e2_9","crypt",0,1,2442,"Include",28
"KUO2017_e2","KUO2017_e2_9","ratio",0,2,6412,"Include",29
"KUO2017_e2","KUO2017_e2_9","reception",1,6,3035,"Include",30
"KUO2017_e2","KUO2017_e2_9","lung",1,4,3507,"Include",31
"KUO2017_e2","KUO2017_e2_9","bread",0,1,2378,"Include",32
"KUO2017_e2","KUO2017_e2_9","lane",1,1,1803,"Include",33
"KUO2017_e2","KUO2017_e2_9","ambassador",0,1,1755,"Include",34
"KUO2017_e2","KUO2017_e2_9","drummer",1,5,4116,"Include",35
"KUO2017_e2","KUO2017_e2_9","headache",1,6,7618,"Include",36
"KUO2017_e2","KUO2017_e2_9","aerospace",1,6,1835,"Include",37
"KUO2017_e2","KUO2017_e2_9","purpose",0,1,2243,"Include",38
"KUO2017_e2","KUO2017_e2_9","quest",0,1,1755,"Include",39
"KUO2017_e2","KUO2017_e2_9","soccer",0,1,3796,"Include",40
"KUO2017_e2","KUO2017_e2_9","candy",0,5,8570,"Include",41
"KUO2017_e2","KUO2017_e2_9","address",1,6,2883,"Include",42
"KUO2017_e2","KUO2017_e2_9","demise",0,1,2228,"Include",43
"KUO2017_e2","KUO2017_e2_9","buffalo",1,6,2491,"Include",44
"KUO2017_e2","KUO2017_e2_9","bean",0,1,7786,"Include",45
"KUO2017_e2","KUO2017_e2_9","consultant",0,1,2011,"Include",46
"KUO2017_e2","KUO2017_e2_9","volleyball",1,4,3476,"Include",47
"KUO2017_e2","KUO2017_e2_9","paperback",1,6,5002,"Include",48
"KUO2017_e2","KUO2017_e2_9","excuse",1,1,1474,"Include",49
"KUO2017_e2","KUO2017_e2_9","wizard",1,6,2842,"Include",50
"KUO2017_e2","KUO2017_e2_9","redemption",0,1,2355,"Include",51
"KUO2017_e2","KUO2017_e2_9","laundry",0,4,3772,"Include",52
"KUO2017_e2","KUO2017_e2_9","ego",1,1,3571,"Include",53
"KUO2017_e2","KUO2017_e2_9","directory",0,2,6098,"Include",54
"KUO2017_e2","KUO2017_e2_9","dogma",1,1,2971,"Include",55
"KUO2017_e2","KUO2017_e2_9","hunter",1,2,3324,"Include",56
"KUO2017_e2","KUO2017_e2_9","everyone",1,5,17275,"Include",57
"KUO2017_e2","KUO2017_e2_9","employer",0,1,1779,"Include",58
"KUO2017_e2","KUO2017_e2_9","eel",0,1,1763,"Include",59
"KUO2017_e2","KUO2017_e2_9","nobody",0,2,5202,"Include",60
"KUO2017_e2","KUO2017_e2_9","agriculture",0,1,2380,"Include",61
"KUO2017_e2","KUO2017_e2_9","moss",0,1,1091,"Include",62
"KUO2017_e2","KUO2017_e2_9","army",0,1,1027,"Include",63
"KUO2017_e2","KUO2017_e2_9","outfit",1,5,2668,"Include",64
"KUO2017_e2","KUO2017_e2_9","scholarship",1,6,2491,"Include",65
"KUO2017_e2","KUO2017_e2_9","pod",1,1,2658,"Include",66
"KUO2017_e2","KUO2017_e2_9","stalker",0,1,1171,"Include",67
"KUO2017_e2","KUO2017_e2_9","lady",0,6,7459,"Include",68
"KUO2017_e2","KUO2017_e2_9","knowledge",0,4,4724,"Include",69
"KUO2017_e2","KUO2017_e2_9","excellence",0,1,2690,"Include",70
"KUO2017_e2","KUO2017_e2_9","heaven",0,1,1259,"Include",71
"KUO2017_e2","KUO2017_e2_9","administration",0,2,15003,"Include",72
"KUO2017_e2","KUO2017_e2_9","compliance",1,6,2467,"Include",73
"KUO2017_e2","KUO2017_e2_9","rim",1,4,2611,"Include",74
"KUO2017_e2","KUO2017_e2_9","carrion",0,1,1507,"Include",75
"KUO2017_e2","KUO2017_e2_9","relief",0,2,4427,"Include",76
"KUO2017_e2","KUO2017_e2_9","infection",1,1,3658,"Include",77
"KUO2017_e2","KUO2017_e2_9","bull",0,1,2667,"Include",78
"KUO2017_e2","KUO2017_e2_9","stronghold",0,6,3403,"Include",79
"KUO2017_e2","KUO2017_e2_9","culture",1,4,6748,"Include",80
"KUO2017_e2","KUO2017_e2_9","productivity",1,3,6186,"Include",81
"KUO2017_e2","KUO2017_e2_9","window",1,5,5867,"Include",82
"KUO2017_e2","KUO2017_e2_9","immigration",1,6,2156,"Include",83
"KUO2017_e2","KUO2017_e2_9","boulevard",0,1,1571,"Include",84
"KUO2017_e2","KUO2017_e2_9","silk",1,6,4866,"Include",85
"KUO2017_e2","KUO2017_e2_9","maiden",1,5,8539,"Include",86
"KUO2017_e2","KUO2017_e2_9","minority",1,6,8787,"Include",87
"KUO2017_e2","KUO2017_e2_9","dictionary",1,6,2235,"Include",88
"KUO2017_e2","KUO2017_e2_9","companion",0,6,4691,"Include",89
"KUO2017_e2","KUO2017_e2_9","cookie",0,1,1250,"Include",90
"KUO2017_e2","KUO2017_e2_9","signature",0,1,1339,"Include",91
"KUO2017_e2","KUO2017_e2_9","rod",0,5,5026,"Include",92
"KUO2017_e2","KUO2017_e2_9","bronze",0,1,1555,"Include",93
"KUO2017_e2","KUO2017_e2_9","disadvantage",1,2,5003,"Include",94
"KUO2017_e2","KUO2017_e2_9","creed",1,1,1611,"Include",95
"KUO2017_e2","KUO2017_e2_9","replacement",1,5,9827,"Include",96
"KUO2017_e2","KUO2017_e2_9","chapter",1,6,11395,"Include",97
"KUO2017_e2","KUO2017_e2_9","referral",1,1,2883,"Include",98
"KUO2017_e2","KUO2017_e2_9","vanilla",1,6,1755,"Include",99
"KUO2017_e2","KUO2017_e2_9","evaluation",0,4,2171,"Include",100
"KUO2017_e2","KUO2017_e2_10","road",0,6,7336,"Include",1
"KUO2017_e2","KUO2017_e2_10","earl",0,4,3656,"Include",2
"KUO2017_e2","KUO2017_e2_10","restaurant",1,6,1863,"Include",3
"KUO2017_e2","KUO2017_e2_10","handbook",1,6,2410,"Include",4
"KUO2017_e2","KUO2017_e2_10","portrait",0,5,3343,"Include",5
"KUO2017_e2","KUO2017_e2_10","seizure",1,4,4278,"Include",6
"KUO2017_e2","KUO2017_e2_10","buddy",1,3,4266,"Include",7
"KUO2017_e2","KUO2017_e2_10","sake",1,5,5750,"Include",8
"KUO2017_e2","KUO2017_e2_10","warren",0,5,4302,"Include",9
"KUO2017_e2","KUO2017_e2_10","representation",1,4,1903,"Include",10
"KUO2017_e2","KUO2017_e2_10","integer",1,2,4719,"Include",11
"KUO2017_e2","KUO2017_e2_10","effectiveness",0,4,2268,"Include",12
"KUO2017_e2","KUO2017_e2_10","object",1,5,2162,"Include",13
"KUO2017_e2","KUO2017_e2_10","argument",0,5,1942,"Include",14
"KUO2017_e2","KUO2017_e2_10","installation",0,4,2280,"Include",15
"KUO2017_e2","KUO2017_e2_10","equipment",1,6,1851,"Include",16
"KUO2017_e2","KUO2017_e2_10","appointment",0,4,1789,"Include",17
"KUO2017_e2","KUO2017_e2_10","regulation",0,3,3284,"Include",18
"KUO2017_e2","KUO2017_e2_10","mayor",0,6,4015,"Include",19
"KUO2017_e2","KUO2017_e2_10","hose",0,6,1191,"Include",20
"KUO2017_e2","KUO2017_e2_10","myth",1,6,817,"Include",21
"KUO2017_e2","KUO2017_e2_10","morality",1,5,1439,"Include",22
"KUO2017_e2","KUO2017_e2_10","consultant",1,4,3780,"Include",23
"KUO2017_e2","KUO2017_e2_10","aquarium",1,3,1671,"Include",24
"KUO2017_e2","KUO2017_e2_10","magazine",1,3,3096,"Include",25
"KUO2017_e2","KUO2017_e2_10","companion",0,6,1751,"Include",26
"KUO2017_e2","KUO2017_e2_10","pole",1,5,1607,"Include",27
"KUO2017_e2","KUO2017_e2_10","collection",0,4,1216,"Include",28
"KUO2017_e2","KUO2017_e2_10","alignment",1,5,1305,"Include",29
"KUO2017_e2","KUO2017_e2_10","basalt",1,1,3866,"Include",30
"KUO2017_e2","KUO2017_e2_10","runner",0,3,1684,"Include",31
"KUO2017_e2","KUO2017_e2_10","autumn",1,5,1658,"Include",32
"KUO2017_e2","KUO2017_e2_10","conscience",0,5,2465,"Include",33
"KUO2017_e2","KUO2017_e2_10","litigation",0,1,7979,"Include",34
"KUO2017_e2","KUO2017_e2_10","sponsorship",0,1,3033,"Include",35
"KUO2017_e2","KUO2017_e2_10","monk",0,6,1181,"Include",36
"KUO2017_e2","KUO2017_e2_10","visitor",0,6,1755,"Include",37
"KUO2017_e2","KUO2017_e2_10","extent",0,4,2646,"Include",38
"KUO2017_e2","KUO2017_e2_10","trio",0,4,1176,"Include",39
"KUO2017_e2","KUO2017_e2_10","vaccine",1,3,1890,"Include",40
"KUO2017_e2","KUO2017_e2_10","dinner",0,3,2397,"Include",41
"KUO2017_e2","KUO2017_e2_10","replay",0,3,1467,"Include",42
"KUO2017_e2","KUO2017_e2_10","resurrection",1,4,1836,"Include",43
"KUO2017_e2","KUO2017_e2_10","preference",0,5,1774,"Include",44
"KUO2017_e2","KUO2017_e2_10","identity",1,6,806,"Include",45
"KUO2017_e2","KUO2017_e2_10","cinema",1,2,1597,"Include",46
"KUO2017_e2","KUO2017_e2_10","diesel",0,3,1679,"Include",47
"KUO2017_e2","KUO2017_e2_10","hag",1,6,1887,"Include",48
"KUO2017_e2","KUO2017_e2_10","viper",0,6,1174,"Include",49
"KUO2017_e2","KUO2017_e2_10","management",0,4,1500,"Include",50
"KUO2017_e2","KUO2017_e2_10","island",0,6,1768,"Include",51
"KUO2017_e2","KUO2017_e2_10","josh",0,4,2871,"Include",52
"KUO2017_e2","KUO2017_e2_10","marina",0,4,1367,"Include",53
"KUO2017_e2","KUO2017_e2_10","rat",0,6,1304,"Include",54
"KUO2017_e2","KUO2017_e2_10","bankruptcy",1,4,2167,"Include",55
"KUO2017_e2","KUO2017_e2_10","warmth",1,6,1836,"Include",56
"KUO2017_e2","KUO2017_e2_10","chocolate",0,3,1553,"Include",57
"KUO2017_e2","KUO2017_e2_10","researcher",1,6,1214,"Include",58
"KUO2017_e2","KUO2017_e2_10","gargoyle",0,6,5039,"Include",59
"KUO2017_e2","KUO2017_e2_10","conflict",1,4,2175,"Include",60
"KUO2017_e2","KUO2017_e2_10","placement",1,6,5380,"Include",61
"KUO2017_e2","KUO2017_e2_10","tennis",1,3,1273,"Include",62
"KUO2017_e2","KUO2017_e2_10","liaison",1,3,2008,"Include",63
"KUO2017_e2","KUO2017_e2_10","door",0,6,1892,"Include",64
"KUO2017_e2","KUO2017_e2_10","bull",1,4,1240,"Include",65
"KUO2017_e2","KUO2017_e2_10","deduction",1,3,3274,"Include",66
"KUO2017_e2","KUO2017_e2_10","prohibition",1,4,3035,"Include",67
"KUO2017_e2","KUO2017_e2_10","permit",0,6,1444,"Include",68
"KUO2017_e2","KUO2017_e2_10","penguin",0,5,1354,"Include",69
"KUO2017_e2","KUO2017_e2_10","stalker",0,5,1220,"Include",70
"KUO2017_e2","KUO2017_e2_10","kingdom",1,6,1830,"Include",71
"KUO2017_e2","KUO2017_e2_10","expansion",1,6,952,"Include",72
"KUO2017_e2","KUO2017_e2_10","coalition",1,3,1595,"Include",73
"KUO2017_e2","KUO2017_e2_10","connection",1,6,1091,"Include",74
"KUO2017_e2","KUO2017_e2_10","frontier",0,6,1567,"Include",75
"KUO2017_e2","KUO2017_e2_10","disease",0,6,1191,"Include",76
"KUO2017_e2","KUO2017_e2_10","exhibition",0,5,6556,"Include",77
"KUO2017_e2","KUO2017_e2_10","statue",1,5,1029,"Include",78
"KUO2017_e2","KUO2017_e2_10","synthesis",0,2,7146,"Include",79
"KUO2017_e2","KUO2017_e2_10","diameter",1,4,2848,"Include",80
"KUO2017_e2","KUO2017_e2_10","corridor",1,5,5334,"Include",81
"KUO2017_e2","KUO2017_e2_10","principle",1,6,1675,"Include",82
"KUO2017_e2","KUO2017_e2_10","greed",1,6,1351,"Include",83
"KUO2017_e2","KUO2017_e2_10","participation",0,6,982,"Include",84
"KUO2017_e2","KUO2017_e2_10","lemur",1,6,1170,"Include",85
"KUO2017_e2","KUO2017_e2_10","association",1,6,1716,"Include",86
"KUO2017_e2","KUO2017_e2_10","gulf",0,1,2536,"Include",87
"KUO2017_e2","KUO2017_e2_10","sorceress",1,6,3054,"Include",88
"KUO2017_e2","KUO2017_e2_10","orchestra",1,6,5493,"Include",89
"KUO2017_e2","KUO2017_e2_10","proportion",0,4,1841,"Include",90
"KUO2017_e2","KUO2017_e2_10","suspect",0,4,2851,"Include",91
"KUO2017_e2","KUO2017_e2_10","demon",0,1,1738,"Include",92
"KUO2017_e2","KUO2017_e2_10","intake",0,1,1521,"Include",93
"KUO2017_e2","KUO2017_e2_10","globe",0,1,3221,"Include",94
"KUO2017_e2","KUO2017_e2_10","piano",1,6,2903,"Include",95
"KUO2017_e2","KUO2017_e2_10","alto",0,1,1318,"Include",96
"KUO2017_e2","KUO2017_e2_10","discussion",1,4,7614,"Include",97
"KUO2017_e2","KUO2017_e2_10","sunset",0,1,1288,"Include",98
"KUO2017_e2","KUO2017_e2_10","glass",1,6,1371,"Include",99
"KUO2017_e2","KUO2017_e2_10","sucker",1,6,716,"Include",100
"KUO2017_e2","KUO2017_e2_11","soccer",0,2,5297,"Include",1
"KUO2017_e2","KUO2017_e2_11","header",0,5,3682,"Include",2
"KUO2017_e2","KUO2017_e2_11","investment",0,4,3957,"Include",3
"KUO2017_e2","KUO2017_e2_11","commodore",0,1,2836,"Include",4
"KUO2017_e2","KUO2017_e2_11","vitamin",1,6,1567,"Include",5
"KUO2017_e2","KUO2017_e2_11","marker",0,2,2948,"Include",6
"KUO2017_e2","KUO2017_e2_11","latitude",0,1,1546,"Include",7
"KUO2017_e2","KUO2017_e2_11","sovereignty",1,6,3026,"Include",8
"KUO2017_e2","KUO2017_e2_11","withdrawal",0,1,3126,"Include",9
"KUO2017_e2","KUO2017_e2_11","shaw",0,1,1382,"Include",10
"KUO2017_e2","KUO2017_e2_11","polarity",1,5,1826,"Include",11
"KUO2017_e2","KUO2017_e2_11","chorus",1,4,4303,"Include",12
"KUO2017_e2","KUO2017_e2_11","permission",0,3,2783,"Include",13
"KUO2017_e2","KUO2017_e2_11","boyfriend",1,6,1115,"Include",14
"KUO2017_e2","KUO2017_e2_11","wad",0,1,1442,"Include",15
"KUO2017_e2","KUO2017_e2_11","van",0,2,1831,"Include",16
"KUO2017_e2","KUO2017_e2_11","infection",1,5,4586,"Include",17
"KUO2017_e2","KUO2017_e2_11","vessel",1,5,3775,"Include",18
"KUO2017_e2","KUO2017_e2_11","increase",1,6,3829,"Include",19
"KUO2017_e2","KUO2017_e2_11","teeth",1,3,2449,"Include",20
"KUO2017_e2","KUO2017_e2_11","merchandise",1,4,3669,"Include",21
"KUO2017_e2","KUO2017_e2_11","surgery",1,6,2814,"Include",22
"KUO2017_e2","KUO2017_e2_11","marble",0,2,2713,"Include",23
"KUO2017_e2","KUO2017_e2_11","fisher",1,5,3689,"Include",24
"KUO2017_e2","KUO2017_e2_11","physicist",0,3,2204,"Include",25
"KUO2017_e2","KUO2017_e2_11","formula",0,1,1609,"Include",26
"KUO2017_e2","KUO2017_e2_11","railway",1,6,1757,"Include",27
"KUO2017_e2","KUO2017_e2_11","food",0,2,1403,"Include",28
"KUO2017_e2","KUO2017_e2_11","industry",0,3,3135,"Include",29
"KUO2017_e2","KUO2017_e2_11","unification",0,2,7749,"Include",30
"KUO2017_e2","KUO2017_e2_11","coffee",1,6,1669,"Include",31
"KUO2017_e2","KUO2017_e2_11","sensation",1,4,2287,"Include",32
"KUO2017_e2","KUO2017_e2_11","jay",1,6,2423,"Include",33
"KUO2017_e2","KUO2017_e2_11","breakdown",0,5,2188,"Include",34
"KUO2017_e2","KUO2017_e2_11","gasp",1,4,7544,"Include",35
"KUO2017_e2","KUO2017_e2_11","relevance",1,5,2529,"Include",36
"KUO2017_e2","KUO2017_e2_11","orchid",0,2,4073,"Include",37
"KUO2017_e2","KUO2017_e2_11","platform",0,3,2443,"Include",38
"KUO2017_e2","KUO2017_e2_11","vanilla",1,3,2206,"Include",39
"KUO2017_e2","KUO2017_e2_11","doctrine",1,6,2955,"Include",40
"KUO2017_e2","KUO2017_e2_11","altar",1,6,2081,"Include",41
"KUO2017_e2","KUO2017_e2_11","stronghold",1,6,1345,"Include",42
"KUO2017_e2","KUO2017_e2_11","generator",0,2,2666,"Include",43
"KUO2017_e2","KUO2017_e2_11","intelligence",1,4,5514,"Include",44
"KUO2017_e2","KUO2017_e2_11","carrier",0,2,2733,"Include",45
"KUO2017_e2","KUO2017_e2_11","crusade",1,6,1547,"Include",46
"KUO2017_e2","KUO2017_e2_11","footage",0,2,3338,"Include",47
"KUO2017_e2","KUO2017_e2_11","automobile",0,2,4089,"Include",48
"KUO2017_e2","KUO2017_e2_11","insanity",0,4,6281,"Include",49
"KUO2017_e2","KUO2017_e2_11","bibliography",0,1,1492,"Include",50
"KUO2017_e2","KUO2017_e2_11","utilisation",0,3,2604,"Include",51
"KUO2017_e2","KUO2017_e2_11","acceptance",1,5,2138,"Include",52
"KUO2017_e2","KUO2017_e2_11","underwear",1,6,1025,"Include",53
"KUO2017_e2","KUO2017_e2_11","revenue",1,2,3412,"Include",54
"KUO2017_e2","KUO2017_e2_11","exemption",0,2,2785,"Include",55
"KUO2017_e2","KUO2017_e2_11","novice",1,5,2270,"Include",56
"KUO2017_e2","KUO2017_e2_11","tourism",0,1,3911,"Include",57
"KUO2017_e2","KUO2017_e2_11","witch",0,1,2424,"Include",58
"KUO2017_e2","KUO2017_e2_11","moron",1,6,1356,"Include",59
"KUO2017_e2","KUO2017_e2_11","symbol",0,3,3658,"Include",60
"KUO2017_e2","KUO2017_e2_11","valley",1,6,1941,"Include",61
"KUO2017_e2","KUO2017_e2_11","vehicle",0,2,2724,"Include",62
"KUO2017_e2","KUO2017_e2_11","analysis",0,4,1924,"Include",63
"KUO2017_e2","KUO2017_e2_11","mouth",0,2,2379,"Include",64
"KUO2017_e2","KUO2017_e2_11","grief",0,1,2031,"Include",65
"KUO2017_e2","KUO2017_e2_11","child",1,6,2026,"Include",66
"KUO2017_e2","KUO2017_e2_11","role",0,4,3174,"Include",67
"KUO2017_e2","KUO2017_e2_11","frustration",1,3,6772,"Include",68
"KUO2017_e2","KUO2017_e2_11","army",0,1,2579,"Include",69
"KUO2017_e2","KUO2017_e2_11","gallery",0,3,3457,"Include",70
"KUO2017_e2","KUO2017_e2_11","fighter",0,2,1868,"Include",71
"KUO2017_e2","KUO2017_e2_11","anatomy",1,6,3614,"Include",72
"KUO2017_e2","KUO2017_e2_11","province",1,3,3866,"Include",73
"KUO2017_e2","KUO2017_e2_11","tube",1,3,4373,"Include",74
"KUO2017_e2","KUO2017_e2_11","defect",0,2,2075,"Include",75
"KUO2017_e2","KUO2017_e2_11","reader",0,3,2116,"Include",76
"KUO2017_e2","KUO2017_e2_11","deputy",1,4,3804,"Include",77
"KUO2017_e2","KUO2017_e2_11","bride",1,3,2697,"Include",78
"KUO2017_e2","KUO2017_e2_11","retainer",0,2,2850,"Include",79
"KUO2017_e2","KUO2017_e2_11","replay",1,6,1301,"Include",80
"KUO2017_e2","KUO2017_e2_11","success",1,3,4500,"Include",81
"KUO2017_e2","KUO2017_e2_11","laser",1,6,1324,"Include",82
"KUO2017_e2","KUO2017_e2_11","transition",0,4,2676,"Include",83
"KUO2017_e2","KUO2017_e2_11","funeral",0,4,6294,"Include",84
"KUO2017_e2","KUO2017_e2_11","dragon",1,5,4504,"Include",85
"KUO2017_e2","KUO2017_e2_11","recognition",0,4,3714,"Include",86
"KUO2017_e2","KUO2017_e2_11","replacement",1,3,7434,"Include",87
"KUO2017_e2","KUO2017_e2_11","hour",0,2,1351,"Include",88
"KUO2017_e2","KUO2017_e2_11","protein",0,1,2885,"Include",89
"KUO2017_e2","KUO2017_e2_11","headache",1,6,1294,"Include",90
"KUO2017_e2","KUO2017_e2_11","association",1,4,3799,"Include",91
"KUO2017_e2","KUO2017_e2_11","construction",1,2,1580,"Include",92
"KUO2017_e2","KUO2017_e2_11","doe",1,6,2121,"Include",93
"KUO2017_e2","KUO2017_e2_11","demon",1,6,2009,"Include",94
"KUO2017_e2","KUO2017_e2_11","fate",1,4,2205,"Include",95
"KUO2017_e2","KUO2017_e2_11","equality",0,2,1720,"Include",96
"KUO2017_e2","KUO2017_e2_11","manufacturer",0,1,3671,"Include",97
"KUO2017_e2","KUO2017_e2_11","disposal",1,4,3306,"Include",98
"KUO2017_e2","KUO2017_e2_11","hall",0,2,2211,"Include",99
"KUO2017_e2","KUO2017_e2_11","person",1,3,3159,"Include",100
"KUO2017_e2","KUO2017_e2_12","atlas",0,1,5919,"Include",1
"KUO2017_e2","KUO2017_e2_12","outlook",0,1,3701,"Include",2
"KUO2017_e2","KUO2017_e2_12","attorney",0,1,4843,"Include",3
"KUO2017_e2","KUO2017_e2_12","lung",1,6,3412,"Include",4
"KUO2017_e2","KUO2017_e2_12","clergy",0,1,1868,"Include",5
"KUO2017_e2","KUO2017_e2_12","delusion",0,1,1764,"Include",6
"KUO2017_e2","KUO2017_e2_12","petroleum",1,6,1709,"Include",7
"KUO2017_e2","KUO2017_e2_12","torment",0,1,1627,"Include",8
"KUO2017_e2","KUO2017_e2_12","ace",0,1,1059,"Include",9
"KUO2017_e2","KUO2017_e2_12","rainbow",1,6,1867,"Include",10
"KUO2017_e2","KUO2017_e2_12","proxy",0,1,1492,"Include",11
"KUO2017_e2","KUO2017_e2_12","company",1,6,2180,"Include",12
"KUO2017_e2","KUO2017_e2_12","bathroom",1,6,964,"Include",13
"KUO2017_e2","KUO2017_e2_12","parody",1,6,1548,"Include",14
"KUO2017_e2","KUO2017_e2_12","instruction",0,6,4293,"Include",15
"KUO2017_e2","KUO2017_e2_12","mentor",1,6,3475,"Include",16
"KUO2017_e2","KUO2017_e2_12","eruption",0,1,1860,"Include",17
"KUO2017_e2","KUO2017_e2_12","gap",0,1,1020,"Include",18
"KUO2017_e2","KUO2017_e2_12","acceptance",1,2,6796,"Include",19
"KUO2017_e2","KUO2017_e2_12","ion",1,6,2932,"Include",20
"KUO2017_e2","KUO2017_e2_12","assessment",1,6,1195,"Include",21
"KUO2017_e2","KUO2017_e2_12","arrangement",1,6,1067,"Include",22
"KUO2017_e2","KUO2017_e2_12","ambassador",0,1,1804,"Include",23
"KUO2017_e2","KUO2017_e2_12","surgery",0,1,1052,"Include",24
"KUO2017_e2","KUO2017_e2_12","proportion",1,6,1724,"Include",25
"KUO2017_e2","KUO2017_e2_12","regime",0,1,1196,"Include",26
"KUO2017_e2","KUO2017_e2_12","dice",1,1,11212,"Include",27
"KUO2017_e2","KUO2017_e2_12","marble",1,6,1836,"Include",28
"KUO2017_e2","KUO2017_e2_12","sailor",0,1,964,"Include",29
"KUO2017_e2","KUO2017_e2_12","kitty",0,1,780,"Include",30
"KUO2017_e2","KUO2017_e2_12","atom",1,6,1052,"Include",31
"KUO2017_e2","KUO2017_e2_12","syntax",0,1,996,"Include",32
"KUO2017_e2","KUO2017_e2_12","physicist",0,1,981,"Include",33
"KUO2017_e2","KUO2017_e2_12","aviation",0,1,932,"Include",34
"KUO2017_e2","KUO2017_e2_12","invalid",1,1,2715,"Include",35
"KUO2017_e2","KUO2017_e2_12","soccer",0,1,1852,"Include",36
"KUO2017_e2","KUO2017_e2_12","anticipation",1,6,1316,"Include",37
"KUO2017_e2","KUO2017_e2_12","exhibition",0,1,1444,"Include",38
"KUO2017_e2","KUO2017_e2_12","consideration",1,1,4076,"Include",39
"KUO2017_e2","KUO2017_e2_12","paragraph",1,1,1284,"Include",40
"KUO2017_e2","KUO2017_e2_12","correlation",1,6,1524,"Include",41
"KUO2017_e2","KUO2017_e2_12","validity",1,6,931,"Include",42
"KUO2017_e2","KUO2017_e2_12","tennis",0,1,843,"Include",43
"KUO2017_e2","KUO2017_e2_12","scholarship",1,6,1292,"Include",44
"KUO2017_e2","KUO2017_e2_12","thigh",0,1,1052,"Include",45
"KUO2017_e2","KUO2017_e2_12","consequence",1,6,3852,"Include",46
"KUO2017_e2","KUO2017_e2_12","category",0,1,1124,"Include",47
"KUO2017_e2","KUO2017_e2_12","beach",0,1,932,"Include",48
"KUO2017_e2","KUO2017_e2_12","doe",0,1,1316,"Include",49
"KUO2017_e2","KUO2017_e2_12","restriction",0,1,1500,"Include",50
"KUO2017_e2","KUO2017_e2_12","diamond",1,1,1395,"Include",51
"KUO2017_e2","KUO2017_e2_12","suppression",0,1,1451,"Include",52
"KUO2017_e2","KUO2017_e2_12","racism",1,2,1908,"Include",53
"KUO2017_e2","KUO2017_e2_12","improvement",1,1,2452,"Include",54
"KUO2017_e2","KUO2017_e2_12","piety",0,1,924,"Include",55
"KUO2017_e2","KUO2017_e2_12","symptom",1,6,1892,"Include",56
"KUO2017_e2","KUO2017_e2_12","transcript",0,1,2445,"Include",57
"KUO2017_e2","KUO2017_e2_12","absence",0,1,1859,"Include",58
"KUO2017_e2","KUO2017_e2_12","creature",1,6,1427,"Include",59
"KUO2017_e2","KUO2017_e2_12","eagle",1,6,1004,"Include",60
"KUO2017_e2","KUO2017_e2_12","castle",1,6,1020,"Include",61
"KUO2017_e2","KUO2017_e2_12","spacecraft",1,6,1596,"Include",62
"KUO2017_e2","KUO2017_e2_12","road",0,1,932,"Include",63
"KUO2017_e2","KUO2017_e2_12","commodity",0,1,2340,"Include",64
"KUO2017_e2","KUO2017_e2_12","trademark",0,1,1236,"Include",65
"KUO2017_e2","KUO2017_e2_12","belt",1,6,1372,"Include",66
"KUO2017_e2","KUO2017_e2_12","novel",0,1,1029,"Include",67
"KUO2017_e2","KUO2017_e2_12","iris",1,6,915,"Include",68
"KUO2017_e2","KUO2017_e2_12","thorn",1,6,1035,"Include",69
"KUO2017_e2","KUO2017_e2_12","eclipse",1,6,3876,"Include",70
"KUO2017_e2","KUO2017_e2_12","tab",0,1,1180,"Include",71
"KUO2017_e2","KUO2017_e2_12","punishment",1,1,1660,"Include",72
"KUO2017_e2","KUO2017_e2_12","vinyl",0,1,924,"Include",73
"KUO2017_e2","KUO2017_e2_12","agent",1,1,980,"Include",74
"KUO2017_e2","KUO2017_e2_12","tourist",0,1,836,"Include",75
"KUO2017_e2","KUO2017_e2_12","sierra",0,1,821,"Include",76
"KUO2017_e2","KUO2017_e2_12","cat",1,6,1443,"Include",77
"KUO2017_e2","KUO2017_e2_12","warfare",1,6,3979,"Include",78
"KUO2017_e2","KUO2017_e2_12","passport",1,6,1004,"Include",79
"KUO2017_e2","KUO2017_e2_12","classroom",0,1,2684,"Include",80
"KUO2017_e2","KUO2017_e2_12","submarine",0,1,1684,"Include",81
"KUO2017_e2","KUO2017_e2_12","role",0,1,836,"Include",82
"KUO2017_e2","KUO2017_e2_12","newsreader",1,6,1092,"Include",83
"KUO2017_e2","KUO2017_e2_12","creator",1,6,5228,"Include",84
"KUO2017_e2","KUO2017_e2_12","druid",1,6,1595,"Include",85
"KUO2017_e2","KUO2017_e2_12","partnership",1,5,3140,"Include",86
"KUO2017_e2","KUO2017_e2_12","acrobat",0,1,1604,"Include",87
"KUO2017_e2","KUO2017_e2_12","incident",1,6,1508,"Include",88
"KUO2017_e2","KUO2017_e2_12","scorpion",0,1,1604,"Include",89
"KUO2017_e2","KUO2017_e2_12","recession",0,5,5411,"Include",90
"KUO2017_e2","KUO2017_e2_12","pistol",0,1,988,"Include",91
"KUO2017_e2","KUO2017_e2_12","sheet",1,6,1836,"Include",92
"KUO2017_e2","KUO2017_e2_12","length",0,1,1564,"Include",93
"KUO2017_e2","KUO2017_e2_12","conspiracy",1,5,2100,"Include",94
"KUO2017_e2","KUO2017_e2_12","tourism",0,5,1892,"Include",95
"KUO2017_e2","KUO2017_e2_12","incidence",1,1,1685,"Include",96
"KUO2017_e2","KUO2017_e2_12","catalog",0,6,1811,"Include",97
"KUO2017_e2","KUO2017_e2_12","yard",1,6,1371,"Include",98
"KUO2017_e2","KUO2017_e2_12","feminism",1,6,1148,"Include",99
"KUO2017_e2","KUO2017_e2_12","tool",0,1,812,"Include",100
"KUO2017_e2","KUO2017_e2_13","environment",1,6,3185,"Include",1
"KUO2017_e2","KUO2017_e2_13","falcon",1,6,982,"Include",2
"KUO2017_e2","KUO2017_e2_13","disclosure",1,6,1039,"Include",3
"KUO2017_e2","KUO2017_e2_13","invasion",1,1,5146,"Include",4
"KUO2017_e2","KUO2017_e2_13","diamond",0,1,1282,"Include",5
"KUO2017_e2","KUO2017_e2_13","baker",0,1,1030,"Include",6
"KUO2017_e2","KUO2017_e2_13","uncertainty",1,6,1983,"Include",7
"KUO2017_e2","KUO2017_e2_13","tree",1,1,2685,"Include",8
"KUO2017_e2","KUO2017_e2_13","president",0,1,1591,"Include",9
"KUO2017_e2","KUO2017_e2_13","intention",1,6,1231,"Include",10
"KUO2017_e2","KUO2017_e2_13","ale",1,6,1234,"Include",11
"KUO2017_e2","KUO2017_e2_13","astronomy",0,1,1147,"Include",12
"KUO2017_e2","KUO2017_e2_13","archer",0,1,1276,"Include",13
"KUO2017_e2","KUO2017_e2_13","project",0,1,2576,"Include",14
"KUO2017_e2","KUO2017_e2_13","physicist",0,1,922,"Include",15
"KUO2017_e2","KUO2017_e2_13","fiction",1,1,1709,"Include",16
"KUO2017_e2","KUO2017_e2_13","distinction",1,6,1415,"Include",17
"KUO2017_e2","KUO2017_e2_13","bronze",1,6,995,"Include",18
"KUO2017_e2","KUO2017_e2_13","latex",0,1,912,"Include",19
"KUO2017_e2","KUO2017_e2_13","crisis",0,1,1020,"Include",20
"KUO2017_e2","KUO2017_e2_13","device",0,1,863,"Include",21
"KUO2017_e2","KUO2017_e2_13","grandmother",0,1,793,"Include",22
"KUO2017_e2","KUO2017_e2_13","reservation",1,6,1526,"Include",23
"KUO2017_e2","KUO2017_e2_13","supplier",1,6,1023,"Include",24
"KUO2017_e2","KUO2017_e2_13","cassette",1,6,873,"Include",25
"KUO2017_e2","KUO2017_e2_13","globe",0,1,840,"Include",26
"KUO2017_e2","KUO2017_e2_13","brain",0,1,732,"Include",27
"KUO2017_e2","KUO2017_e2_13","dealer",1,1,1779,"Include",28
"KUO2017_e2","KUO2017_e2_13","medicine",1,1,900,"Include",29
"KUO2017_e2","KUO2017_e2_13","entity",1,6,953,"Include",30
"KUO2017_e2","KUO2017_e2_13","safety",1,6,1413,"Include",31
"KUO2017_e2","KUO2017_e2_13","impact",1,1,1473,"Include",32
"KUO2017_e2","KUO2017_e2_13","letter",0,1,1287,"Include",33
"KUO2017_e2","KUO2017_e2_13","river",1,6,1038,"Include",34
"KUO2017_e2","KUO2017_e2_13","anyone",0,1,729,"Include",35
"KUO2017_e2","KUO2017_e2_13","constitution",0,6,1066,"Include",36
"KUO2017_e2","KUO2017_e2_13","yarn",1,6,1017,"Include",37
"KUO2017_e2","KUO2017_e2_13","salary",0,1,737,"Include",38
"KUO2017_e2","KUO2017_e2_13","paragraph",1,1,2197,"Include",39
"KUO2017_e2","KUO2017_e2_13","vinyl",0,1,780,"Include",40
"KUO2017_e2","KUO2017_e2_13","oil",0,1,651,"Include",41
"KUO2017_e2","KUO2017_e2_13","demon",1,6,972,"Include",42
"KUO2017_e2","KUO2017_e2_13","niche",0,1,766,"Include",43
"KUO2017_e2","KUO2017_e2_13","payment",1,1,797,"Include",44
"KUO2017_e2","KUO2017_e2_13","woman",0,1,3997,"Include",45
"KUO2017_e2","KUO2017_e2_13","destination",1,6,1068,"Include",46
"KUO2017_e2","KUO2017_e2_13","avenue",1,1,1821,"Include",47
"KUO2017_e2","KUO2017_e2_13","liver",0,1,3737,"Include",48
"KUO2017_e2","KUO2017_e2_13","bomber",1,6,849,"Include",49
"KUO2017_e2","KUO2017_e2_13","jurisdiction",1,6,848,"Include",50
"KUO2017_e2","KUO2017_e2_13","connection",0,1,931,"Include",51
"KUO2017_e2","KUO2017_e2_13","disk",1,1,1117,"Include",52
"KUO2017_e2","KUO2017_e2_13","vice",1,6,894,"Include",53
"KUO2017_e2","KUO2017_e2_13","anticipation",0,1,1307,"Include",54
"KUO2017_e2","KUO2017_e2_13","parent",0,1,848,"Include",55
"KUO2017_e2","KUO2017_e2_13","spoiler",0,1,674,"Include",56
"KUO2017_e2","KUO2017_e2_13","carrier",0,1,1163,"Include",57
"KUO2017_e2","KUO2017_e2_13","failure",1,6,872,"Include",58
"KUO2017_e2","KUO2017_e2_13","circulation",0,1,842,"Include",59
"KUO2017_e2","KUO2017_e2_13","hall",1,1,567,"Include",60
"KUO2017_e2","KUO2017_e2_13","luxury",0,1,691,"Include",61
"KUO2017_e2","KUO2017_e2_13","illustrator",1,1,1353,"Include",62
"KUO2017_e2","KUO2017_e2_13","detection",1,6,734,"Include",63
"KUO2017_e2","KUO2017_e2_13","jackal",1,6,781,"Include",64
"KUO2017_e2","KUO2017_e2_13","pad",0,1,609,"Include",65
"KUO2017_e2","KUO2017_e2_13","costume",1,1,1329,"Include",66
"KUO2017_e2","KUO2017_e2_13","teacher",0,1,673,"Include",67
"KUO2017_e2","KUO2017_e2_13","column",0,1,612,"Include",68
"KUO2017_e2","KUO2017_e2_13","comedy",1,1,1270,"Include",69
"KUO2017_e2","KUO2017_e2_13","mutation",1,1,903,"Include",70
"KUO2017_e2","KUO2017_e2_13","persecution",0,6,725,"Include",71
"KUO2017_e2","KUO2017_e2_13","transmission",0,1,639,"Include",72
"KUO2017_e2","KUO2017_e2_13","translation",0,1,991,"Include",73
"KUO2017_e2","KUO2017_e2_13","citadel",1,6,810,"Include",74
"KUO2017_e2","KUO2017_e2_13","employer",1,6,812,"Include",75
"KUO2017_e2","KUO2017_e2_13","geography",0,1,577,"Include",76
"KUO2017_e2","KUO2017_e2_13","isolation",1,6,702,"Include",77
"KUO2017_e2","KUO2017_e2_13","digit",0,1,609,"Include",78
"KUO2017_e2","KUO2017_e2_13","chunk",0,1,620,"Include",79
"KUO2017_e2","KUO2017_e2_13","canyon",1,6,991,"Include",80
"KUO2017_e2","KUO2017_e2_13","earl",1,6,945,"Include",81
"KUO2017_e2","KUO2017_e2_13","membership",0,1,815,"Include",82
"KUO2017_e2","KUO2017_e2_13","injustice",0,1,906,"Include",83
"KUO2017_e2","KUO2017_e2_13","harmony",1,1,1264,"Include",84
"KUO2017_e2","KUO2017_e2_13","baron",0,1,681,"Include",85
"KUO2017_e2","KUO2017_e2_13","revenge",1,1,1052,"Include",86
"KUO2017_e2","KUO2017_e2_13","entrance",0,1,754,"Include",87
"KUO2017_e2","KUO2017_e2_13","atlas",0,1,589,"Include",88
"KUO2017_e2","KUO2017_e2_13","transport",0,1,758,"Include",89
"KUO2017_e2","KUO2017_e2_13","plasma",1,1,744,"Include",90
"KUO2017_e2","KUO2017_e2_13","philosophy",1,6,929,"Include",91
"KUO2017_e2","KUO2017_e2_13","kitten",1,1,599,"Include",92
"KUO2017_e2","KUO2017_e2_13","workbench",0,1,901,"Include",93
"KUO2017_e2","KUO2017_e2_13","grenade",1,6,794,"Include",94
"KUO2017_e2","KUO2017_e2_13","tray",0,1,679,"Include",95
"KUO2017_e2","KUO2017_e2_13","ounce",0,1,577,"Include",96
"KUO2017_e2","KUO2017_e2_13","year",0,1,804,"Include",97
"KUO2017_e2","KUO2017_e2_13","gender",0,1,588,"Include",98
"KUO2017_e2","KUO2017_e2_13","happiness",1,6,2122,"Include",99
"KUO2017_e2","KUO2017_e2_13","concept",0,1,574,"Include",100
"KUO2017_e2","KUO2017_e2_14","brochure",1,6,6596,"Include",1
"KUO2017_e2","KUO2017_e2_14","denial",0,1,2042,"Include",2
"KUO2017_e2","KUO2017_e2_14","atmosphere",1,6,2179,"Include",3
"KUO2017_e2","KUO2017_e2_14","drawer",1,6,1260,"Include",4
"KUO2017_e2","KUO2017_e2_14","eruption",1,6,1236,"Include",5
"KUO2017_e2","KUO2017_e2_14","waist",1,6,1450,"Include",6
"KUO2017_e2","KUO2017_e2_14","penny",0,1,1266,"Include",7
"KUO2017_e2","KUO2017_e2_14","threat",0,2,2347,"Include",8
"KUO2017_e2","KUO2017_e2_14","subsidiary",1,6,1564,"Include",9
"KUO2017_e2","KUO2017_e2_14","majority",0,1,1475,"Include",10
"KUO2017_e2","KUO2017_e2_14","alteration",1,6,1059,"Include",11
"KUO2017_e2","KUO2017_e2_14","confusion",0,2,1466,"Include",12
"KUO2017_e2","KUO2017_e2_14","participation",0,6,2051,"Include",13
"KUO2017_e2","KUO2017_e2_14","prayer",0,1,1219,"Include",14
"KUO2017_e2","KUO2017_e2_14","companion",0,1,938,"Include",15
"KUO2017_e2","KUO2017_e2_14","diplomacy",0,1,2130,"Include",16
"KUO2017_e2","KUO2017_e2_14","cattle",1,6,2146,"Include",17
"KUO2017_e2","KUO2017_e2_14","carrion",0,1,1019,"Include",18
"KUO2017_e2","KUO2017_e2_14","emphasis",1,5,2643,"Include",19
"KUO2017_e2","KUO2017_e2_14","uncle",1,6,1619,"Include",20
"KUO2017_e2","KUO2017_e2_14","status",0,1,930,"Include",21
"KUO2017_e2","KUO2017_e2_14","acquisition",1,6,906,"Include",22
"KUO2017_e2","KUO2017_e2_14","confidence",1,6,788,"Include",23
"KUO2017_e2","KUO2017_e2_14","lore",1,6,1346,"Include",24
"KUO2017_e2","KUO2017_e2_14","deer",0,1,1010,"Include",25
"KUO2017_e2","KUO2017_e2_14","etiquette",0,1,1507,"Include",26
"KUO2017_e2","KUO2017_e2_14","pursuit",0,2,1531,"Include",27
"KUO2017_e2","KUO2017_e2_14","truth",0,1,1084,"Include",28
"KUO2017_e2","KUO2017_e2_14","marshall",0,1,1187,"Include",29
"KUO2017_e2","KUO2017_e2_14","existence",0,2,5891,"Include",30
"KUO2017_e2","KUO2017_e2_14","battery",1,5,1770,"Include",31
"KUO2017_e2","KUO2017_e2_14","tyranny",0,1,1146,"Include",32
"KUO2017_e2","KUO2017_e2_14","marriage",0,2,3236,"Include",33
"KUO2017_e2","KUO2017_e2_14","canal",1,6,1083,"Include",34
"KUO2017_e2","KUO2017_e2_14","josh",0,1,2563,"Include",35
"KUO2017_e2","KUO2017_e2_14","pen",0,1,883,"Include",36
"KUO2017_e2","KUO2017_e2_14","identity",0,2,6778,"Include",37
"KUO2017_e2","KUO2017_e2_14","oasis",0,1,1131,"Include",38
"KUO2017_e2","KUO2017_e2_14","prism",1,6,1451,"Include",39
"KUO2017_e2","KUO2017_e2_14","demise",1,2,2059,"Include",40
"KUO2017_e2","KUO2017_e2_14","vitamin",1,6,995,"Include",41
"KUO2017_e2","KUO2017_e2_14","villain",1,6,859,"Include",42
"KUO2017_e2","KUO2017_e2_14","envelope",0,1,1556,"Include",43
"KUO2017_e2","KUO2017_e2_14","blackjack",1,6,899,"Include",44
"KUO2017_e2","KUO2017_e2_14","everyone",1,2,1483,"Include",45
"KUO2017_e2","KUO2017_e2_14","solidarity",1,6,1418,"Include",46
"KUO2017_e2","KUO2017_e2_14","burger",0,1,890,"Include",47
"KUO2017_e2","KUO2017_e2_14","tuition",0,1,907,"Include",48
"KUO2017_e2","KUO2017_e2_14","dancer",0,5,4588,"Include",49
"KUO2017_e2","KUO2017_e2_14","dogma",1,6,1019,"Include",50
"KUO2017_e2","KUO2017_e2_14","replacement",1,5,2451,"Include",51
"KUO2017_e2","KUO2017_e2_14","loss",0,1,939,"Include",52
"KUO2017_e2","KUO2017_e2_14","supervisor",0,1,1131,"Include",53
"KUO2017_e2","KUO2017_e2_14","breakdown",1,5,2026,"Include",54
"KUO2017_e2","KUO2017_e2_14","import",1,6,1194,"Include",55
"KUO2017_e2","KUO2017_e2_14","elf",0,1,1074,"Include",56
"KUO2017_e2","KUO2017_e2_14","judgement",0,1,2036,"Include",57
"KUO2017_e2","KUO2017_e2_14","restaurant",1,5,1667,"Include",58
"KUO2017_e2","KUO2017_e2_14","turkey",1,6,739,"Include",59
"KUO2017_e2","KUO2017_e2_14","sheet",0,1,691,"Include",60
"KUO2017_e2","KUO2017_e2_14","cad",0,1,844,"Include",61
"KUO2017_e2","KUO2017_e2_14","optimisation",1,6,779,"Include",62
"KUO2017_e2","KUO2017_e2_14","spore",1,6,891,"Include",63
"KUO2017_e2","KUO2017_e2_14","velvet",0,1,850,"Include",64
"KUO2017_e2","KUO2017_e2_14","subscription",1,5,2434,"Include",65
"KUO2017_e2","KUO2017_e2_14","footage",0,1,859,"Include",66
"KUO2017_e2","KUO2017_e2_14","examination",0,6,1155,"Include",67
"KUO2017_e2","KUO2017_e2_14","physician",1,6,740,"Include",68
"KUO2017_e2","KUO2017_e2_14","youth",1,6,1355,"Include",69
"KUO2017_e2","KUO2017_e2_14","brigade",1,6,723,"Include",70
"KUO2017_e2","KUO2017_e2_14","chorus",0,1,755,"Include",71
"KUO2017_e2","KUO2017_e2_14","textbook",0,1,915,"Include",72
"KUO2017_e2","KUO2017_e2_14","jumper",1,6,771,"Include",73
"KUO2017_e2","KUO2017_e2_14","journal",0,2,2147,"Include",74
"KUO2017_e2","KUO2017_e2_14","punishment",1,5,3130,"Include",75
"KUO2017_e2","KUO2017_e2_14","elevator",0,1,1116,"Include",76
"KUO2017_e2","KUO2017_e2_14","shaman",1,6,1130,"Include",77
"KUO2017_e2","KUO2017_e2_14","detection",0,2,1819,"Include",78
"KUO2017_e2","KUO2017_e2_14","prevention",1,5,1731,"Include",79
"KUO2017_e2","KUO2017_e2_14","representation",0,5,2051,"Include",80
"KUO2017_e2","KUO2017_e2_14","reflection",1,5,1628,"Include",81
"KUO2017_e2","KUO2017_e2_14","locus",1,1,2282,"Include",82
"KUO2017_e2","KUO2017_e2_14","spokesman",1,6,1107,"Include",83
"KUO2017_e2","KUO2017_e2_14","airport",1,2,3539,"Include",84
"KUO2017_e2","KUO2017_e2_14","pointer",1,6,1011,"Include",85
"KUO2017_e2","KUO2017_e2_14","cookie",1,1,1939,"Include",86
"KUO2017_e2","KUO2017_e2_14","meal",0,1,851,"Include",87
"KUO2017_e2","KUO2017_e2_14","offspring",0,1,883,"Include",88
"KUO2017_e2","KUO2017_e2_14","alliance",1,6,3371,"Include",89
"KUO2017_e2","KUO2017_e2_14","revenue",0,1,5243,"Include",90
"KUO2017_e2","KUO2017_e2_14","cafe",1,6,946,"Include",91
"KUO2017_e2","KUO2017_e2_14","boulder",1,6,851,"Include",92
"KUO2017_e2","KUO2017_e2_14","intake",1,6,915,"Include",93
"KUO2017_e2","KUO2017_e2_14","seeker",1,6,707,"Include",94
"KUO2017_e2","KUO2017_e2_14","recipe",0,1,2747,"Include",95
"KUO2017_e2","KUO2017_e2_14","resurrection",1,1,1101,"Include",96
"KUO2017_e2","KUO2017_e2_14","scrutiny",0,2,2163,"Include",97
"KUO2017_e2","KUO2017_e2_14","bench",0,1,1147,"Include",98
"KUO2017_e2","KUO2017_e2_14","character",0,1,1139,"Include",99
"KUO2017_e2","KUO2017_e2_14","iris",0,1,786,"Include",100
"KUO2017_e2","KUO2017_e2_15","goal",1,6,4238,"Include",1
"KUO2017_e2","KUO2017_e2_15","drake",1,6,3833,"Include",2
"KUO2017_e2","KUO2017_e2_15","armour",1,6,1898,"Include",3
"KUO2017_e2","KUO2017_e2_15","hunter",0,1,1977,"Include",4
"KUO2017_e2","KUO2017_e2_15","ceiling",1,6,2019,"Include",5
"KUO2017_e2","KUO2017_e2_15","controller",1,1,3628,"Include",6
"KUO2017_e2","KUO2017_e2_15","chick",0,1,1355,"Include",7
"KUO2017_e2","KUO2017_e2_15","extract",1,6,1363,"Include",8
"KUO2017_e2","KUO2017_e2_15","handbook",0,1,1964,"Include",9
"KUO2017_e2","KUO2017_e2_15","flesh",1,6,1072,"Include",10
"KUO2017_e2","KUO2017_e2_15","parent",1,1,3190,"Include",11
"KUO2017_e2","KUO2017_e2_15","artifact",1,6,1657,"Include",12
"KUO2017_e2","KUO2017_e2_15","increase",0,5,5714,"Include",13
"KUO2017_e2","KUO2017_e2_15","civilisation",0,1,1629,"Include",14
"KUO2017_e2","KUO2017_e2_15","retrieval",1,6,1653,"Include",15
"KUO2017_e2","KUO2017_e2_15","heather",1,6,947,"Include",16
"KUO2017_e2","KUO2017_e2_15","appendix",0,1,1198,"Include",17
"KUO2017_e2","KUO2017_e2_15","jazz",0,1,838,"Include",18
"KUO2017_e2","KUO2017_e2_15","terrier",0,1,2508,"Include",19
"KUO2017_e2","KUO2017_e2_15","senator",1,1,1479,"Include",20
"KUO2017_e2","KUO2017_e2_15","scene",0,1,1198,"Include",21
"KUO2017_e2","KUO2017_e2_15","beer",0,1,972,"Include",22
"KUO2017_e2","KUO2017_e2_15","bathroom",0,1,1431,"Include",23
"KUO2017_e2","KUO2017_e2_15","delivery",0,1,4475,"Include",24
"KUO2017_e2","KUO2017_e2_15","unification",0,1,1322,"Include",25
"KUO2017_e2","KUO2017_e2_15","circulation",1,6,1181,"Include",26
"KUO2017_e2","KUO2017_e2_15","adobe",1,6,734,"Include",27
"KUO2017_e2","KUO2017_e2_15","roller",0,1,912,"Include",28
"KUO2017_e2","KUO2017_e2_15","weakness",0,1,963,"Include",29
"KUO2017_e2","KUO2017_e2_15","ribbon",0,1,1476,"Include",30
"KUO2017_e2","KUO2017_e2_15","island",1,6,714,"Include",31
"KUO2017_e2","KUO2017_e2_15","lawn",1,6,644,"Include",32
"KUO2017_e2","KUO2017_e2_15","tiff",1,6,712,"Include",33
"KUO2017_e2","KUO2017_e2_15","cereal",0,2,4532,"Include",34
"KUO2017_e2","KUO2017_e2_15","luxury",0,1,2084,"Include",35
"KUO2017_e2","KUO2017_e2_15","office",1,5,3732,"Include",36
"KUO2017_e2","KUO2017_e2_15","anniversary",1,6,2104,"Include",37
"KUO2017_e2","KUO2017_e2_15","compression",0,1,4320,"Include",38
"KUO2017_e2","KUO2017_e2_15","bout",0,1,2420,"Include",39
"KUO2017_e2","KUO2017_e2_15","clay",1,6,1916,"Include",40
"KUO2017_e2","KUO2017_e2_15","hemp",1,6,851,"Include",41
"KUO2017_e2","KUO2017_e2_15","desert",1,6,697,"Include",42
"KUO2017_e2","KUO2017_e2_15","atlas",1,6,654,"Include",43
"KUO2017_e2","KUO2017_e2_15","fort",1,5,4198,"Include",44
"KUO2017_e2","KUO2017_e2_15","excerpt",1,5,3767,"Include",45
"KUO2017_e2","KUO2017_e2_15","complaint",1,6,1132,"Include",46
"KUO2017_e2","KUO2017_e2_15","invitation",0,1,2057,"Include",47
"KUO2017_e2","KUO2017_e2_15","throughput",1,6,1179,"Include",48
"KUO2017_e2","KUO2017_e2_15","crime",1,5,6982,"Include",49
"KUO2017_e2","KUO2017_e2_15","friction",0,1,1143,"Include",50
"KUO2017_e2","KUO2017_e2_15","dough",1,6,1156,"Include",51
"KUO2017_e2","KUO2017_e2_15","notebook",0,1,1184,"Include",52
"KUO2017_e2","KUO2017_e2_15","creed",1,6,974,"Include",53
"KUO2017_e2","KUO2017_e2_15","devil",1,6,837,"Include",54
"KUO2017_e2","KUO2017_e2_15","railroad",0,1,800,"Include",55
"KUO2017_e2","KUO2017_e2_15","ratio",0,1,1547,"Include",56
"KUO2017_e2","KUO2017_e2_15","maker",0,1,961,"Include",57
"KUO2017_e2","KUO2017_e2_15","tsunami",1,6,839,"Include",58
"KUO2017_e2","KUO2017_e2_15","exposure",1,6,973,"Include",59
"KUO2017_e2","KUO2017_e2_15","electricity",0,4,7971,"Include",60
"KUO2017_e2","KUO2017_e2_15","lid",1,6,1040,"Include",61
"KUO2017_e2","KUO2017_e2_15","supplement",0,1,899,"Include",62
"KUO2017_e2","KUO2017_e2_15","confusion",0,5,2728,"Include",63
"KUO2017_e2","KUO2017_e2_15","motivation",0,1,869,"Include",64
"KUO2017_e2","KUO2017_e2_15","beach",1,6,1070,"Include",65
"KUO2017_e2","KUO2017_e2_15","morale",0,6,1228,"Include",66
"KUO2017_e2","KUO2017_e2_15","intelligence",1,5,2995,"Include",67
"KUO2017_e2","KUO2017_e2_15","year",0,2,1877,"Include",68
"KUO2017_e2","KUO2017_e2_15","suicide",0,1,1240,"Include",69
"KUO2017_e2","KUO2017_e2_15","necessity",0,1,883,"Include",70
"KUO2017_e2","KUO2017_e2_15","shark",0,1,4058,"Include",71
"KUO2017_e2","KUO2017_e2_15","yeast",0,6,3163,"Include",72
"KUO2017_e2","KUO2017_e2_15","lotus",1,6,775,"Include",73
"KUO2017_e2","KUO2017_e2_15","teddy",1,6,640,"Include",74
"KUO2017_e2","KUO2017_e2_15","defect",1,6,1806,"Include",75
"KUO2017_e2","KUO2017_e2_15","pipeline",1,6,837,"Include",76
"KUO2017_e2","KUO2017_e2_15","intersection",1,5,5020,"Include",77
"KUO2017_e2","KUO2017_e2_15","trinity",0,2,1964,"Include",78
"KUO2017_e2","KUO2017_e2_15","entropy",0,1,2205,"Include",79
"KUO2017_e2","KUO2017_e2_15","temperature",1,6,5654,"Include",80
"KUO2017_e2","KUO2017_e2_15","goodness",1,1,1337,"Include",81
"KUO2017_e2","KUO2017_e2_15","haven",1,6,3709,"Include",82
"KUO2017_e2","KUO2017_e2_15","interaction",1,1,2753,"Include",83
"KUO2017_e2","KUO2017_e2_15","behaviour",1,6,1376,"Include",84
"KUO2017_e2","KUO2017_e2_15","torso",1,6,1195,"Include",85
"KUO2017_e2","KUO2017_e2_15","territory",1,6,5683,"Include",86
"KUO2017_e2","KUO2017_e2_15","oven",0,1,1086,"Include",87
"KUO2017_e2","KUO2017_e2_15","pork",1,6,1098,"Include",88
"KUO2017_e2","KUO2017_e2_15","resistor",0,1,1650,"Include",89
"KUO2017_e2","KUO2017_e2_15","decency",0,2,2211,"Include",90
"KUO2017_e2","KUO2017_e2_15","dealer",0,6,2611,"Include",91
"KUO2017_e2","KUO2017_e2_15","literature",0,2,4544,"Include",92
"KUO2017_e2","KUO2017_e2_15","direction",0,1,1198,"Include",93
"KUO2017_e2","KUO2017_e2_15","jurisdiction",0,1,900,"Include",94
"KUO2017_e2","KUO2017_e2_15","liner",0,1,3201,"Include",95
"KUO2017_e2","KUO2017_e2_15","furniture",0,1,1215,"Include",96
"KUO2017_e2","KUO2017_e2_15","percent",0,2,1621,"Include",97
"KUO2017_e2","KUO2017_e2_15","illness",1,6,1685,"Include",98
"KUO2017_e2","KUO2017_e2_15","notification",0,1,4294,"Include",99
"KUO2017_e2","KUO2017_e2_15","lady",0,1,1494,"Include",100
"KUO2017_e2","KUO2017_e2_16","header",1,5,8517,"Include",1
"KUO2017_e2","KUO2017_e2_16","existence",1,6,3285,"Include",2
"KUO2017_e2","KUO2017_e2_16","treaty",0,6,2621,"Include",3
"KUO2017_e2","KUO2017_e2_16","dean",0,1,4054,"Include",4
"KUO2017_e2","KUO2017_e2_16","clause",1,6,2562,"Include",5
"KUO2017_e2","KUO2017_e2_16","paradise",1,6,1772,"Include",6
"KUO2017_e2","KUO2017_e2_16","attacker",1,6,1585,"Include",7
"KUO2017_e2","KUO2017_e2_16","impulse",1,6,1808,"Include",8
"KUO2017_e2","KUO2017_e2_16","laurel",0,1,1531,"Include",9
"KUO2017_e2","KUO2017_e2_16","arrow",1,4,4845,"Include",10
"KUO2017_e2","KUO2017_e2_16","trunk",0,1,2409,"Include",11
"KUO2017_e2","KUO2017_e2_16","gallery",1,6,1773,"Include",12
"KUO2017_e2","KUO2017_e2_16","happiness",0,1,2383,"Include",13
"KUO2017_e2","KUO2017_e2_16","locus",0,4,2262,"Include",14
"KUO2017_e2","KUO2017_e2_16","instruction",1,5,2150,"Include",15
"KUO2017_e2","KUO2017_e2_16","altar",0,1,2018,"Include",16
"KUO2017_e2","KUO2017_e2_16","buster",1,5,1849,"Include",17
"KUO2017_e2","KUO2017_e2_16","latex",1,6,1733,"Include",18
"KUO2017_e2","KUO2017_e2_16","matrix",1,6,1604,"Include",19
"KUO2017_e2","KUO2017_e2_16","par",1,6,1450,"Include",20
"KUO2017_e2","KUO2017_e2_16","revenge",0,1,1997,"Include",21
"KUO2017_e2","KUO2017_e2_16","seminar",0,4,2107,"Include",22
"KUO2017_e2","KUO2017_e2_16","contribution",1,6,1923,"Include",23
"KUO2017_e2","KUO2017_e2_16","acrobat",0,2,2186,"Include",24
"KUO2017_e2","KUO2017_e2_16","voyager",0,1,1387,"Include",25
"KUO2017_e2","KUO2017_e2_16","capacity",0,5,1636,"Include",26
"KUO2017_e2","KUO2017_e2_16","festival",0,4,1880,"Include",27
"KUO2017_e2","KUO2017_e2_16","guardian",1,5,1137,"Include",28
"KUO2017_e2","KUO2017_e2_16","uncle",0,5,1306,"Include",29
"KUO2017_e2","KUO2017_e2_16","marathon",0,5,1289,"Include",30
"KUO2017_e2","KUO2017_e2_16","taxpayer",1,5,1138,"Include",31
"KUO2017_e2","KUO2017_e2_16","opera",1,6,1261,"Include",32
"KUO2017_e2","KUO2017_e2_16","gem",1,6,1017,"Include",33
"KUO2017_e2","KUO2017_e2_16","winner",1,5,1141,"Include",34
"KUO2017_e2","KUO2017_e2_16","competition",0,6,1100,"Include",35
"KUO2017_e2","KUO2017_e2_16","mouth",0,2,2979,"Include",36
"KUO2017_e2","KUO2017_e2_16","glory",1,5,1443,"Include",37
"KUO2017_e2","KUO2017_e2_16","tandem",0,4,1715,"Include",38
"KUO2017_e2","KUO2017_e2_16","jungle",0,2,1946,"Include",39
"KUO2017_e2","KUO2017_e2_16","genie",0,2,1680,"Include",40
"KUO2017_e2","KUO2017_e2_16","spouse",0,2,1650,"Include",41
"KUO2017_e2","KUO2017_e2_16","repository",0,1,1566,"Include",42
"KUO2017_e2","KUO2017_e2_16","surname",0,1,991,"Include",43
"KUO2017_e2","KUO2017_e2_16","transformation",1,6,1330,"Include",44
"KUO2017_e2","KUO2017_e2_16","booklet",1,6,1207,"Include",45
"KUO2017_e2","KUO2017_e2_16","darling",0,2,1854,"Include",46
"KUO2017_e2","KUO2017_e2_16","flyer",1,4,1682,"Include",47
"KUO2017_e2","KUO2017_e2_16","plasma",1,5,1130,"Include",48
"KUO2017_e2","KUO2017_e2_16","conviction",1,6,1069,"Include",49
"KUO2017_e2","KUO2017_e2_16","cigarette",0,1,1560,"Include",50
"KUO2017_e2","KUO2017_e2_16","fate",1,5,1411,"Include",51
"KUO2017_e2","KUO2017_e2_16","degree",1,5,1117,"Include",52
"KUO2017_e2","KUO2017_e2_16","scientist",1,6,1035,"Include",53
"KUO2017_e2","KUO2017_e2_16","invention",1,6,1081,"Include",54
"KUO2017_e2","KUO2017_e2_16","moron",0,5,1289,"Include",55
"KUO2017_e2","KUO2017_e2_16","admiral",1,6,1112,"Include",56
"KUO2017_e2","KUO2017_e2_16","tourist",0,1,1616,"Include",57
"KUO2017_e2","KUO2017_e2_16","food",1,6,1341,"Include",58
"KUO2017_e2","KUO2017_e2_16","declaration",1,6,1098,"Include",59
"KUO2017_e2","KUO2017_e2_16","prosecution",0,1,1484,"Include",60
"KUO2017_e2","KUO2017_e2_16","vendor",0,5,1247,"Include",61
"KUO2017_e2","KUO2017_e2_16","dilemma",1,6,1207,"Include",62
"KUO2017_e2","KUO2017_e2_16","explosion",1,6,1063,"Include",63
"KUO2017_e2","KUO2017_e2_16","normalisation",1,6,1019,"Include",64
"KUO2017_e2","KUO2017_e2_16","calculation",0,1,1591,"Include",65
"KUO2017_e2","KUO2017_e2_16","scanner",1,5,1219,"Include",66
"KUO2017_e2","KUO2017_e2_16","keeper",0,1,1375,"Include",67
"KUO2017_e2","KUO2017_e2_16","jewelry",1,6,1205,"Include",68
"KUO2017_e2","KUO2017_e2_16","courier",0,1,1555,"Include",69
"KUO2017_e2","KUO2017_e2_16","spine",0,1,1112,"Include",70
"KUO2017_e2","KUO2017_e2_16","perfection",1,5,1411,"Include",71
"KUO2017_e2","KUO2017_e2_16","cage",0,4,1353,"Include",72
"KUO2017_e2","KUO2017_e2_16","complement",0,1,1294,"Include",73
"KUO2017_e2","KUO2017_e2_16","factory",0,3,2628,"Include",74
"KUO2017_e2","KUO2017_e2_16","decade",1,5,1402,"Include",75
"KUO2017_e2","KUO2017_e2_16","monk",1,6,1108,"Include",76
"KUO2017_e2","KUO2017_e2_16","strength",1,6,1847,"Include",77
"KUO2017_e2","KUO2017_e2_16","gym",0,6,1462,"Include",78
"KUO2017_e2","KUO2017_e2_16","coffin",1,6,1212,"Include",79
"KUO2017_e2","KUO2017_e2_16","nothing",0,1,1248,"Include",80
"KUO2017_e2","KUO2017_e2_16","welfare",0,5,1246,"Include",81
"KUO2017_e2","KUO2017_e2_16","collaboration",1,6,1241,"Include",82
"KUO2017_e2","KUO2017_e2_16","heather",1,5,1327,"Include",83
"KUO2017_e2","KUO2017_e2_16","camera",0,1,1267,"Include",84
"KUO2017_e2","KUO2017_e2_16","clay",0,1,1151,"Include",85
"KUO2017_e2","KUO2017_e2_16","city",0,1,1024,"Include",86
"KUO2017_e2","KUO2017_e2_16","mechanism",0,1,1194,"Include",87
"KUO2017_e2","KUO2017_e2_16","response",0,5,1494,"Include",88
"KUO2017_e2","KUO2017_e2_16","flair",0,3,1750,"Include",89
"KUO2017_e2","KUO2017_e2_16","insight",1,2,1221,"Include",90
"KUO2017_e2","KUO2017_e2_16","companion",0,1,1430,"Include",91
"KUO2017_e2","KUO2017_e2_16","battery",1,6,1311,"Include",92
"KUO2017_e2","KUO2017_e2_16","warren",1,6,1212,"Include",93
"KUO2017_e2","KUO2017_e2_16","druid",0,1,1666,"Include",94
"KUO2017_e2","KUO2017_e2_16","perspective",0,2,1290,"Include",95
"KUO2017_e2","KUO2017_e2_16","bonus",1,5,1195,"Include",96
"KUO2017_e2","KUO2017_e2_16","meat",1,6,1250,"Include",97
"KUO2017_e2","KUO2017_e2_16","violin",0,1,2369,"Include",98
"KUO2017_e2","KUO2017_e2_16","object",1,6,1288,"Include",99
"KUO2017_e2","KUO2017_e2_16","planet",0,4,1205,"Include",100
"KUO2017_e2","KUO2017_e2_17","fin",0,1,2339,"Include",1
"KUO2017_e2","KUO2017_e2_17","sunlight",1,1,1763,"Include",2
"KUO2017_e2","KUO2017_e2_17","lid",0,1,771,"Include",3
"KUO2017_e2","KUO2017_e2_17","blacksmith",0,1,799,"Include",4
"KUO2017_e2","KUO2017_e2_17","terrain",0,1,1833,"Include",5
"KUO2017_e2","KUO2017_e2_17","consultant",0,4,4057,"Include",6
"KUO2017_e2","KUO2017_e2_17","impact",1,6,2003,"Include",7
"KUO2017_e2","KUO2017_e2_17","chamber",0,1,879,"Include",8
"KUO2017_e2","KUO2017_e2_17","juice",1,6,930,"Include",9
"KUO2017_e2","KUO2017_e2_17","accuracy",0,6,1407,"Include",10
"KUO2017_e2","KUO2017_e2_17","gender",0,1,847,"Include",11
"KUO2017_e2","KUO2017_e2_17","bullet",1,6,758,"Include",12
"KUO2017_e2","KUO2017_e2_17","servant",1,6,664,"Include",13
"KUO2017_e2","KUO2017_e2_17","stronghold",1,6,662,"Include",14
"KUO2017_e2","KUO2017_e2_17","chorus",0,1,1220,"Include",15
"KUO2017_e2","KUO2017_e2_17","specialist",1,6,830,"Include",16
"KUO2017_e2","KUO2017_e2_17","chisel",0,1,937,"Include",17
"KUO2017_e2","KUO2017_e2_17","genre",1,6,873,"Include",18
"KUO2017_e2","KUO2017_e2_17","portion",1,6,870,"Include",19
"KUO2017_e2","KUO2017_e2_17","commitment",1,6,617,"Include",20
"KUO2017_e2","KUO2017_e2_17","colonel",1,6,743,"Include",21
"KUO2017_e2","KUO2017_e2_17","programmer",0,6,1804,"Include",22
"KUO2017_e2","KUO2017_e2_17","ranger",0,1,1096,"Include",23
"KUO2017_e2","KUO2017_e2_17","commissioner",1,6,1317,"Include",24
"KUO2017_e2","KUO2017_e2_17","rag",0,1,972,"Include",25
"KUO2017_e2","KUO2017_e2_17","compatibility",1,6,1050,"Include",26
"KUO2017_e2","KUO2017_e2_17","reputation",1,6,843,"Include",27
"KUO2017_e2","KUO2017_e2_17","herb",0,1,1242,"Include",28
"KUO2017_e2","KUO2017_e2_17","brine",1,6,932,"Include",29
"KUO2017_e2","KUO2017_e2_17","variation",0,1,1863,"Include",30
"KUO2017_e2","KUO2017_e2_17","joystick",1,6,778,"Include",31
"KUO2017_e2","KUO2017_e2_17","emergency",0,5,4018,"Include",32
"KUO2017_e2","KUO2017_e2_17","directory",1,6,1547,"Include",33
"KUO2017_e2","KUO2017_e2_17","salesman",0,1,2220,"Include",34
"KUO2017_e2","KUO2017_e2_17","environment",0,4,4872,"Include",35
"KUO2017_e2","KUO2017_e2_17","tale",0,1,2108,"Include",36
"KUO2017_e2","KUO2017_e2_17","node",0,1,954,"Include",37
"KUO2017_e2","KUO2017_e2_17","removal",0,1,1688,"Include",38
"KUO2017_e2","KUO2017_e2_17","dove",1,6,1045,"Include",39
"KUO2017_e2","KUO2017_e2_17","reservation",0,6,1058,"Include",40
"KUO2017_e2","KUO2017_e2_17","cereal",1,6,722,"Include",41
"KUO2017_e2","KUO2017_e2_17","unemployment",1,6,709,"Include",42
"KUO2017_e2","KUO2017_e2_17","parody",0,1,929,"Include",43
"KUO2017_e2","KUO2017_e2_17","dictionary",0,1,1290,"Include",44
"KUO2017_e2","KUO2017_e2_17","exodus",0,1,705,"Include",45
"KUO2017_e2","KUO2017_e2_17","profession",1,6,4152,"Include",46
"KUO2017_e2","KUO2017_e2_17","resident",0,1,2149,"Include",47
"KUO2017_e2","KUO2017_e2_17","justice",1,5,3967,"Include",48
"KUO2017_e2","KUO2017_e2_17","forehead",0,1,1825,"Include",49
"KUO2017_e2","KUO2017_e2_17","sarcasm",0,1,788,"Include",50
"KUO2017_e2","KUO2017_e2_17","maintenance",1,6,969,"Include",51
"KUO2017_e2","KUO2017_e2_17","violence",0,1,841,"Include",52
"KUO2017_e2","KUO2017_e2_17","subsidiary",1,6,910,"Include",53
"KUO2017_e2","KUO2017_e2_17","falcon",1,6,829,"Include",54
