"exp","id","item","isold","rating","RT","excluding","trial"
"KY2011_e1","KY2011_e1_2","RESPONSE",0,6,1619,"Include",1
"KY2011_e1","KY2011_e1_2","OUTCOME",1,6,2804,"Include",2
"KY2011_e1","KY2011_e1_2","BEAUTY",0,1,1312,"Include",3
"KY2011_e1","KY2011_e1_2","BUREAU",1,6,1166,"Include",4
"KY2011_e1","KY2011_e1_2","PRESENTS",0,1,2787,"Include",5
"KY2011_e1","KY2011_e1_2","RHYTHM",0,2,4537,"Include",6
"KY2011_e1","KY2011_e1_2","LISTENERS",0,6,1764,"Include",7
"KY2011_e1","KY2011_e1_2","MOVEMENTS",1,6,1439,"Include",8
"KY2011_e1","KY2011_e1_2","NOISE",0,1,1306,"Include",9
"KY2011_e1","KY2011_e1_2","POVERTY",1,3,1431,"Include",10
"KY2011_e1","KY2011_e1_2","TONS",1,6,1050,"Include",11
"KY2011_e1","KY2011_e1_2","SHIRT",0,6,3067,"Include",12
"KY2011_e1","KY2011_e1_2","TUBE",0,1,1080,"Include",13
"KY2011_e1","KY2011_e1_2","COMPOSER",0,1,2039,"Include",14
"KY2011_e1","KY2011_e1_2","VOTERS",1,6,1321,"Include",15
"KY2011_e1","KY2011_e1_2","AXIS",1,6,917,"Include",16
"KY2011_e1","KY2011_e1_2","TRACTOR",0,1,1103,"Include",17
"KY2011_e1","KY2011_e1_2","SALARY",1,6,968,"Include",18
"KY2011_e1","KY2011_e1_2","RELATION",0,1,1014,"Include",19
"KY2011_e1","KY2011_e1_2","HOSPITALS",0,1,1448,"Include",20
"KY2011_e1","KY2011_e1_2","PRESTIGE",1,6,941,"Include",21
"KY2011_e1","KY2011_e1_2","OBSERVERS",1,6,1231,"Include",22
"KY2011_e1","KY2011_e1_2","BEHALF",0,6,791,"Include",23
"KY2011_e1","KY2011_e1_2","TALENT",1,1,2340,"Include",24
"KY2011_e1","KY2011_e1_2","TREATY",1,6,1019,"Include",25
"KY2011_e1","KY2011_e1_2","MILLIONS",1,6,850,"Include",26
"KY2011_e1","KY2011_e1_2","RANCH",0,1,960,"Include",27
"KY2011_e1","KY2011_e1_2","REALITY",0,3,1681,"Include",28
"KY2011_e1","KY2011_e1_2","TRIBUTE",1,6,1015,"Include",29
"KY2011_e1","KY2011_e1_2","MANTLE",1,6,989,"Include",30
"KY2011_e1","KY2011_e1_2","DIRT",1,1,1182,"Include",31
"KY2011_e1","KY2011_e1_2","FACTS",0,2,2031,"Include",32
"KY2011_e1","KY2011_e1_2","WIVES",0,2,2379,"Include",33
"KY2011_e1","KY2011_e1_2","GOODS",1,6,1586,"Include",34
"KY2011_e1","KY2011_e1_2","WEALTH",0,1,2976,"Include",35
"KY2011_e1","KY2011_e1_2","COMMERCE",1,6,908,"Include",36
"KY2011_e1","KY2011_e1_2","DILEMMA",0,1,2419,"Include",37
"KY2011_e1","KY2011_e1_2","PRODUCT",1,6,803,"Include",38
"KY2011_e1","KY2011_e1_2","VEIN",1,6,683,"Include",39
"KY2011_e1","KY2011_e1_2","NEIGHBORS",1,6,662,"Include",40
"KY2011_e1","KY2011_e1_2","MEAT",0,1,1117,"Include",41
"KY2011_e1","KY2011_e1_2","VICE",0,1,1173,"Include",42
"KY2011_e1","KY2011_e1_2","BEHAVIOR",1,6,686,"Include",43
"KY2011_e1","KY2011_e1_2","WARMTH",0,1,960,"Include",44
"KY2011_e1","KY2011_e1_2","VISITORS",1,6,1027,"Include",45
"KY2011_e1","KY2011_e1_2","PUPIL",1,6,711,"Include",46
"KY2011_e1","KY2011_e1_2","PROTEIN",1,1,1540,"Include",47
"KY2011_e1","KY2011_e1_2","LOTS",0,6,1228,"Include",48
"KY2011_e1","KY2011_e1_2","INNOCENCE",0,3,3159,"Include",49
"KY2011_e1","KY2011_e1_2","MATURITY",1,4,1524,"Include",50
"KY2011_e1","KY2011_e1_2","PROJECT",1,6,1451,"Include",51
"KY2011_e1","KY2011_e1_2","DIFFUSION",1,6,1540,"Include",52
"KY2011_e1","KY2011_e1_2","ACTIONS",0,5,1712,"Include",53
"KY2011_e1","KY2011_e1_2","CAPE",0,1,1467,"Include",54
"KY2011_e1","KY2011_e1_2","WRITER",0,6,795,"Include",55
"KY2011_e1","KY2011_e1_2","EMERGENCY",0,2,1260,"Include",56
"KY2011_e1","KY2011_e1_2","HORIZON",1,2,1288,"Include",57
"KY2011_e1","KY2011_e1_2","BEACH",1,6,826,"Include",58
"KY2011_e1","KY2011_e1_2","PASSION",0,6,1177,"Include",59
"KY2011_e1","KY2011_e1_2","CRYSTAL",1,6,801,"Include",60
"KY2011_e1","KY2011_e1_2","FLIGHT",1,6,987,"Include",61
"KY2011_e1","KY2011_e1_2","BULLET",1,6,777,"Include",62
"KY2011_e1","KY2011_e1_2","PROVISION",0,2,1919,"Include",63
"KY2011_e1","KY2011_e1_2","ARRIVAL",0,2,1386,"Include",64
"KY2011_e1","KY2011_e1_2","CONCERT",1,6,988,"Include",65
"KY2011_e1","KY2011_e1_2","HARMONY",1,1,1254,"Include",66
"KY2011_e1","KY2011_e1_2","TREND",0,6,746,"Include",67
"KY2011_e1","KY2011_e1_2","LEAGUE",1,6,1118,"Include",68
"KY2011_e1","KY2011_e1_2","VILLAGE",1,6,699,"Include",69
"KY2011_e1","KY2011_e1_2","ARCHITECT",0,1,1768,"Include",70
"KY2011_e1","KY2011_e1_2","CERTAINTY",0,6,2598,"Include",71
"KY2011_e1","KY2011_e1_2","ABILITY",1,6,708,"Include",72
"KY2011_e1","KY2011_e1_2","ENTRANCE",0,6,1008,"Include",73
"KY2011_e1","KY2011_e1_2","CRIME",1,6,1269,"Include",74
"KY2011_e1","KY2011_e1_2","PHYSICS",0,1,1320,"Include",75
"KY2011_e1","KY2011_e1_2","HAPPINESS",0,1,831,"Include",76
"KY2011_e1","KY2011_e1_2","STYLE",0,1,1164,"Include",77
"KY2011_e1","KY2011_e1_2","SUPREME",0,1,952,"Include",78
"KY2011_e1","KY2011_e1_2","OPERATOR",0,6,853,"Include",79
"KY2011_e1","KY2011_e1_2","INSTANCE",1,1,1717,"Include",80
"KY2011_e1","KY2011_e1_2","SOLUTION",0,6,798,"Include",81
"KY2011_e1","KY2011_e1_2","CREATION",0,6,945,"Include",82
"KY2011_e1","KY2011_e1_2","SEWAGE",0,1,1115,"Include",83
"KY2011_e1","KY2011_e1_2","GLORY",1,6,772,"Include",84
"KY2011_e1","KY2011_e1_2","VERSE",0,1,1694,"Include",85
"KY2011_e1","KY2011_e1_2","COLONEL",1,1,1307,"Include",86
"KY2011_e1","KY2011_e1_2","STAIRS",1,6,758,"Include",87
"KY2011_e1","KY2011_e1_2","PATIENCE",0,6,1089,"Include",88
"KY2011_e1","KY2011_e1_2","FOOTBALL",1,6,671,"Include",89
"KY2011_e1","KY2011_e1_2","CITIZEN",1,6,653,"Include",90
"KY2011_e1","KY2011_e1_2","PRAYER",1,6,944,"Include",91
"KY2011_e1","KY2011_e1_2","EDITION",1,6,795,"Include",92
"KY2011_e1","KY2011_e1_2","HONEY",0,1,762,"Include",93
"KY2011_e1","KY2011_e1_2","PHENOMENA",0,1,1037,"Include",94
"KY2011_e1","KY2011_e1_2","APPARATUS",1,1,956,"Include",95
"KY2011_e1","KY2011_e1_2","FOREST",0,1,1455,"Include",96
"KY2011_e1","KY2011_e1_2","BREAD",1,1,1097,"Include",97
"KY2011_e1","KY2011_e1_2","DRIVER",1,1,1628,"Include",98
"KY2011_e1","KY2011_e1_2","BENCH",1,6,1666,"Include",99
"KY2011_e1","KY2011_e1_2","ROOF",1,6,806,"Include",100
"KY2011_e1","KY2011_e1_2","DISEASE",1,6,912,"Include",101
"KY2011_e1","KY2011_e1_2","ABSENCE",0,6,1365,"Include",102
"KY2011_e1","KY2011_e1_2","CHAPEL",0,6,989,"Include",103
"KY2011_e1","KY2011_e1_2","FRACTION",0,6,1294,"Include",104
"KY2011_e1","KY2011_e1_2","JUDGMENT",1,1,1003,"Include",105
"KY2011_e1","KY2011_e1_2","MASON",1,6,682,"Include",106
"KY2011_e1","KY2011_e1_2","EXCEPTION",0,1,2951,"Include",107
"KY2011_e1","KY2011_e1_2","EXCUSE",1,6,1263,"Include",108
"KY2011_e1","KY2011_e1_2","MISSILE",1,6,1364,"Include",109
"KY2011_e1","KY2011_e1_2","ATTORNEY",0,6,1065,"Include",110
"KY2011_e1","KY2011_e1_2","SECRETS",0,6,1548,"Include",111
"KY2011_e1","KY2011_e1_2","PROMOTION",0,5,2469,"Include",112
"KY2011_e1","KY2011_e1_2","MAYOR",1,4,3849,"Include",113
"KY2011_e1","KY2011_e1_2","DISK",1,6,1047,"Include",114
"KY2011_e1","KY2011_e1_2","NOTION",1,6,1206,"Include",115
"KY2011_e1","KY2011_e1_2","CLERK",0,6,1699,"Include",116
"KY2011_e1","KY2011_e1_2","DEPTH",0,2,2334,"Include",117
"KY2011_e1","KY2011_e1_2","NOVEL",0,6,1425,"Include",118
"KY2011_e1","KY2011_e1_2","INSIGHT",0,2,2185,"Include",119
"KY2011_e1","KY2011_e1_2","CONTRAST",0,6,5122,"Include",120
"KY2011_e1","KY2011_e1_2","TREASURY",0,6,1222,"Include",121
"KY2011_e1","KY2011_e1_2","ARTIST",0,6,1052,"Include",122
"KY2011_e1","KY2011_e1_2","TEACHER",1,6,696,"Include",123
"KY2011_e1","KY2011_e1_2","TRUSTEES",1,6,1245,"Include",124
"KY2011_e1","KY2011_e1_2","DENSITY",0,1,952,"Include",125
"KY2011_e1","KY2011_e1_2","JAZZ",1,6,786,"Include",126
"KY2011_e1","KY2011_e1_2","ANGELS",1,6,1460,"Include",127
"KY2011_e1","KY2011_e1_2","STRATEGY",0,1,797,"Include",128
"KY2011_e1","KY2011_e1_2","OXIDATION",1,6,898,"Include",129
"KY2011_e1","KY2011_e1_2","BIRTH",0,1,1017,"Include",130
"KY2011_e1","KY2011_e1_2","NERVES",0,1,991,"Include",131
"KY2011_e1","KY2011_e1_2","IMPULSE",1,6,891,"Include",132
"KY2011_e1","KY2011_e1_2","TISSUE",1,1,961,"Include",133
"KY2011_e1","KY2011_e1_2","PERMIT",1,1,1164,"Include",134
"KY2011_e1","KY2011_e1_2","VALLEY",0,1,738,"Include",135
"KY2011_e1","KY2011_e1_2","VIOLENCE",1,6,861,"Include",136
"KY2011_e1","KY2011_e1_2","YARD",0,6,1064,"Include",137
"KY2011_e1","KY2011_e1_2","MOVIE",1,6,1119,"Include",138
"KY2011_e1","KY2011_e1_2","WEEKEND",0,1,847,"Include",139
"KY2011_e1","KY2011_e1_2","CORN",1,6,754,"Include",140
"KY2011_e1","KY2011_e1_2","DECADE",0,1,1044,"Include",141
"KY2011_e1","KY2011_e1_2","GOVERNOR",0,1,1956,"Include",142
"KY2011_e1","KY2011_e1_2","BEDROOM",1,6,749,"Include",143
"KY2011_e1","KY2011_e1_2","ADDRESS",0,6,643,"Include",144
"KY2011_e1","KY2011_e1_2","BASEMENT",1,6,730,"Include",145
"KY2011_e1","KY2011_e1_2","TACTICS",1,6,826,"Include",146
"KY2011_e1","KY2011_e1_2","DEMOCRACY",0,1,898,"Include",147
"KY2011_e1","KY2011_e1_2","EQUATION",1,6,1233,"Include",148
"KY2011_e1","KY2011_e1_2","TREE",0,6,1653,"Include",149
"KY2011_e1","KY2011_e1_2","QUEEN",0,6,1042,"Include",150
"KY2011_e1","KY2011_e1_2","PAINTER",0,1,1064,"Include",151
"KY2011_e1","KY2011_e1_2","RADIATION",0,6,1033,"Include",152
"KY2011_e1","KY2011_e1_2","BREATH",1,1,879,"Include",153
"KY2011_e1","KY2011_e1_2","THEME",1,6,911,"Include",154
"KY2011_e1","KY2011_e1_2","MESSAGE",0,1,1412,"Include",155
"KY2011_e1","KY2011_e1_2","RECORDS",0,1,2302,"Include",156
"KY2011_e1","KY2011_e1_2","MONUMENT",0,1,1566,"Include",157
"KY2011_e1","KY2011_e1_2","SUBMARINE",0,1,1644,"Include",158
"KY2011_e1","KY2011_e1_2","SCHOLARS",0,1,1369,"Include",159
"KY2011_e1","KY2011_e1_2","INCREASES",0,1,1374,"Include",160
"KY2011_e1","KY2011_e1_2","VEHICLE",1,6,945,"Include",161
"KY2011_e1","KY2011_e1_2","SALE",0,6,2809,"Include",162
"KY2011_e1","KY2011_e1_2","MARSHALL",0,6,982,"Include",163
"KY2011_e1","KY2011_e1_2","ENVELOPE",1,1,4559,"Include",164
"KY2011_e1","KY2011_e1_2","LIBRARY",1,6,802,"Include",165
"KY2011_e1","KY2011_e1_2","FINDINGS",1,6,1691,"Include",166
"KY2011_e1","KY2011_e1_2","SPECIMEN",0,1,1184,"Include",167
"KY2011_e1","KY2011_e1_2","SESSION",1,6,974,"Include",168
"KY2011_e1","KY2011_e1_2","STILE",0,6,837,"Include",169
"KY2011_e1","KY2011_e1_2","FORMULA",1,6,700,"Include",170
"KY2011_e1","KY2011_e1_2","GUEST",1,6,764,"Include",171
"KY2011_e1","KY2011_e1_2","WEAPON",1,6,910,"Include",172
"KY2011_e1","KY2011_e1_2","GIANTS",0,1,1093,"Include",173
"KY2011_e1","KY2011_e1_2","BUILDER",1,1,1103,"Include",174
"KY2011_e1","KY2011_e1_2","JUNIORS",0,1,1247,"Include",175
"KY2011_e1","KY2011_e1_2","SOCIETIES",1,1,1065,"Include",176
"KY2011_e1","KY2011_e1_2","ANODE",1,6,1423,"Include",177
"KY2011_e1","KY2011_e1_2","DUTY",0,1,1999,"Include",178
"KY2011_e1","KY2011_e1_2","GENTLEMAN",1,6,1244,"Include",179
"KY2011_e1","KY2011_e1_2","TECHNIQUE",1,6,933,"Include",180
"KY2011_e1","KY2011_e1_2","DESTINY",0,6,1009,"Include",181
"KY2011_e1","KY2011_e1_2","INSECTS",0,1,1755,"Include",182
"KY2011_e1","KY2011_e1_2","PORTION",1,6,906,"Include",183
"KY2011_e1","KY2011_e1_2","DISASTER",0,1,868,"Include",184
"KY2011_e1","KY2011_e1_2","BLUES",1,1,1096,"Include",185
"KY2011_e1","KY2011_e1_2","GOLF",1,6,836,"Include",186
"KY2011_e1","KY2011_e1_2","NOBODY",1,1,1128,"Include",187
"KY2011_e1","KY2011_e1_2","ATOM",0,6,1474,"Include",188
"KY2011_e1","KY2011_e1_2","PARTICLE",0,1,2308,"Include",189
"KY2011_e1","KY2011_e1_2","INTENSITY",1,1,2401,"Include",190
"KY2011_e1","KY2011_e1_2","TRIALS",0,6,975,"Include",191
"KY2011_e1","KY2011_e1_2","PEAS",0,1,1480,"Include",192
"KY2011_e1","KY2011_e1_2","THICKNESS",1,1,4393,"Include",193
"KY2011_e1","KY2011_e1_2","CANCER",1,6,1285,"Include",194
"KY2011_e1","KY2011_e1_2","VIRTUE",0,1,847,"Include",195
"KY2011_e1","KY2011_e1_2","LAWYER",0,6,951,"Include",196
"KY2011_e1","KY2011_e1_2","TSUNAMI",0,1,898,"Include",197
"KY2011_e1","KY2011_e1_2","DEVIL",1,6,827,"Include",198
"KY2011_e1","KY2011_e1_2","THROAT",1,6,980,"Include",199
"KY2011_e1","KY2011_e1_2","SCOPE",1,6,720,"Include",200
"KY2011_e1","KY2011_e1_2","RESIDENCE",1,6,1435,"Include",201
"KY2011_e1","KY2011_e1_2","FABRICS",1,1,1167,"Include",202
"KY2011_e1","KY2011_e1_2","SUBSTANCE",0,6,767,"Include",203
"KY2011_e1","KY2011_e1_2","REPORTER",0,6,1104,"Include",204
"KY2011_e1","KY2011_e1_2","SKILLS",0,6,760,"Include",205
"KY2011_e1","KY2011_e1_2","EXPOSURE",1,6,881,"Include",206
"KY2011_e1","KY2011_e1_2","FURNITURE",0,1,1288,"Include",207
"KY2011_e1","KY2011_e1_2","ENEMY",1,6,858,"Include",208
"KY2011_e1","KY2011_e1_2","CONDUCTOR",0,6,817,"Include",209
"KY2011_e1","KY2011_e1_2","RADAR",0,1,940,"Include",210
"KY2011_e1","KY2011_e1_2","RELIEF",1,1,1272,"Include",211
"KY2011_e1","KY2011_e1_2","TRAFFIC",0,6,874,"Include",212
"KY2011_e1","KY2011_e1_2","HEELS",0,1,921,"Include",213
"KY2011_e1","KY2011_e1_2","LOYALTY",1,6,892,"Include",214
"KY2011_e1","KY2011_e1_2","MEAL",0,1,1488,"Include",215
"KY2011_e1","KY2011_e1_2","PANEL",1,1,1406,"Include",216
"KY2011_e1","KY2011_e1_2","CLAY",1,6,839,"Include",217
"KY2011_e1","KY2011_e1_2","ASSEMBLY",1,6,2052,"Include",218
"KY2011_e1","KY2011_e1_2","PATTERNS",1,6,1075,"Include",219
"KY2011_e1","KY2011_e1_2","EARS",0,6,888,"Include",220
"KY2011_e1","KY2011_e1_2","MECHANISM",1,6,899,"Include",221
"KY2011_e1","KY2011_e1_2","MARTEN",1,1,4510,"Include",222
"KY2011_e1","KY2011_e1_2","CARD",0,6,793,"Include",223
"KY2011_e1","KY2011_e1_2","GIFT",1,6,687,"Include",224
"KY2011_e1","KY2011_e1_2","DECISIONS",0,6,2424,"Include",225
"KY2011_e1","KY2011_e1_2","PROSPECT",0,1,1031,"Include",226
"KY2011_e1","KY2011_e1_2","PITCHER",1,6,1685,"Include",227
"KY2011_e1","KY2011_e1_2","BAKER",0,6,1189,"Include",228
"KY2011_e1","KY2011_e1_2","LADY",1,6,907,"Include",229
"KY2011_e1","KY2011_e1_2","ADULTS",1,1,1955,"Include",230
"KY2011_e1","KY2011_e1_2","PORCH",0,1,728,"Include",231
"KY2011_e1","KY2011_e1_2","MIDNIGHT",0,1,950,"Include",232
"KY2011_e1","KY2011_e1_2","LAKE",0,6,1429,"Include",233
"KY2011_e1","KY2011_e1_2","WALLS",0,6,811,"Include",234
"KY2011_e1","KY2011_e1_2","GUIDANCE",1,6,948,"Include",235
"KY2011_e1","KY2011_e1_2","OPINION",1,6,722,"Include",236
"KY2011_e1","KY2011_e1_2","RAILROAD",0,1,1059,"Include",237
"KY2011_e1","KY2011_e1_2","LEADER",1,6,947,"Include",238
"KY2011_e1","KY2011_e1_2","SAFETY",1,6,788,"Include",239
"KY2011_e1","KY2011_e1_2","DEGREES",0,6,1466,"Include",240
"KY2011_e1","KY2011_e1_2","CAFE",0,6,1632,"Include",241
"KY2011_e1","KY2011_e1_2","PLANET",1,6,1840,"Include",242
"KY2011_e1","KY2011_e1_2","PENNY",1,1,1325,"Include",243
"KY2011_e1","KY2011_e1_2","MILE",0,1,1881,"Include",244
"KY2011_e1","KY2011_e1_2","MIXTURE",1,6,929,"Include",245
"KY2011_e1","KY2011_e1_2","SENTIMENT",1,6,1440,"Include",246
"KY2011_e1","KY2011_e1_2","ASSISTANT",0,6,1202,"Include",247
"KY2011_e1","KY2011_e1_2","PASSAGE",1,1,1313,"Include",248
"KY2011_e1","KY2011_e1_2","EXPENSE",1,1,1315,"Include",249
"KY2011_e1","KY2011_e1_2","CHEST",1,6,1034,"Include",250
"KY2011_e1","KY2011_e1_2","POEM",0,1,1938,"Include",251
"KY2011_e1","KY2011_e1_2","LESSON",1,1,990,"Include",252
"KY2011_e1","KY2011_e1_2","STORAGE",0,1,1229,"Include",253
"KY2011_e1","KY2011_e1_2","RATIO",1,6,1159,"Include",254
"KY2011_e1","KY2011_e1_2","INTERVALS",0,6,913,"Include",255
"KY2011_e1","KY2011_e1_2","PROFESSOR",1,6,906,"Include",256
"KY2011_e1","KY2011_e1_2","FIST",0,1,930,"Include",257
"KY2011_e1","KY2011_e1_2","SUBSTRATE",0,1,2223,"Include",258
"KY2011_e1","KY2011_e1_2","YOUTH",1,6,1146,"Include",259
"KY2011_e1","KY2011_e1_2","PACKAGE",0,6,1675,"Include",260
"KY2011_e1","KY2011_e1_2","CHEEK",0,1,1910,"Include",261
"KY2011_e1","KY2011_e1_2","DIGNITY",0,1,1800,"Include",262
"KY2011_e1","KY2011_e1_2","SPITE",1,1,1179,"Include",263
"KY2011_e1","KY2011_e1_2","VARIABLES",0,6,1171,"Include",264
"KY2011_e1","KY2011_e1_2","SUITCASE",0,1,1144,"Include",265
"KY2011_e1","KY2011_e1_2","RICE",0,1,1119,"Include",266
"KY2011_e1","KY2011_e1_2","ACADEMY",0,1,1355,"Include",267
"KY2011_e1","KY2011_e1_2","IMITATION",1,6,1016,"Include",268
"KY2011_e1","KY2011_e1_2","ISLANDS",0,6,1961,"Include",269
"KY2011_e1","KY2011_e1_2","KILLER",1,1,1157,"Include",270
"KY2011_e1","KY2011_e1_2","LUNCHEON",1,6,1064,"Include",271
"KY2011_e1","KY2011_e1_2","MILLS",0,1,1180,"Include",272
"KY2011_e1","KY2011_e1_2","TENDENCY",0,6,1137,"Include",273
"KY2011_e1","KY2011_e1_2","EMISSION",1,1,1439,"Include",274
"KY2011_e1","KY2011_e1_2","BALLET",1,6,1341,"Include",275
"KY2011_e1","KY2011_e1_2","TOOL",0,6,1035,"Include",276
"KY2011_e1","KY2011_e1_2","GRAIN",0,6,1397,"Include",277
"KY2011_e1","KY2011_e1_2","CUSTOMER",1,6,1605,"Include",278
"KY2011_e1","KY2011_e1_2","CRITIC",0,1,939,"Include",279
"KY2011_e1","KY2011_e1_2","PERCENT",1,6,1352,"Include",280
"KY2011_e1","KY2011_e1_2","FESTIVAL",0,1,959,"Include",281
"KY2011_e1","KY2011_e1_2","HOTELS",0,1,1005,"Include",282
"KY2011_e1","KY2011_e1_2","INSURANCE",0,1,1233,"Include",283
"KY2011_e1","KY2011_e1_2","WAGON",0,1,870,"Include",284
"KY2011_e1","KY2011_e1_2","TERROR",0,6,1132,"Include",285
"KY2011_e1","KY2011_e1_2","FUNERAL",1,6,1665,"Include",286
"KY2011_e1","KY2011_e1_2","ROADS",1,6,1022,"Include",287
"KY2011_e1","KY2011_e1_2","DINNER",1,6,1268,"Include",288
"KY2011_e1","KY2011_e1_2","DARKNESS",1,1,818,"Include",289
"KY2011_e1","KY2011_e1_2","MARBLE",1,6,898,"Include",290
"KY2011_e1","KY2011_e1_2","INJURY",0,6,932,"Include",291
"KY2011_e1","KY2011_e1_2","SURVIVAL",0,1,1178,"Include",292
"KY2011_e1","KY2011_e1_2","COLONY",1,6,1420,"Include",293
"KY2011_e1","KY2011_e1_2","HABIT",1,6,1168,"Include",294
"KY2011_e1","KY2011_e1_2","AGENT",1,6,869,"Include",295
"KY2011_e1","KY2011_e1_2","ILLNESS",1,6,1040,"Include",296
"KY2011_e1","KY2011_e1_2","OWNER",0,1,1280,"Include",297
"KY2011_e1","KY2011_e1_2","RECEPTION",0,5,2339,"Include",298
"KY2011_e1","KY2011_e1_2","SAVINGS",0,3,3188,"Include",299
"KY2011_e1","KY2011_e1_2","ENERGY",0,6,1777,"Include",300
"KY2011_e1","KY2011_e1_2","INVENTORY",0,1,1012,"Include",301
"KY2011_e1","KY2011_e1_2","FICTION",1,6,1161,"Include",302
"KY2011_e1","KY2011_e1_2","WARREN",0,1,2359,"Include",303
"KY2011_e1","KY2011_e1_2","TRADITION",0,1,1310,"Include",304
"KY2011_e1","KY2011_e1_2","PAYMENT",1,1,975,"Include",305
"KY2011_e1","KY2011_e1_2","PIKE",0,1,865,"Include",306
"KY2011_e1","KY2011_e1_2","MAGNITUDE",0,6,984,"Include",307
"KY2011_e1","KY2011_e1_2","CLOCK",0,6,1275,"Include",308
"KY2011_e1","KY2011_e1_2","SYMPATHY",1,6,1231,"Include",309
"KY2011_e1","KY2011_e1_2","SAUCE",1,6,1207,"Include",310
"KY2011_e1","KY2011_e1_2","THOUGHTS",0,6,3761,"Include",311
"KY2011_e1","KY2011_e1_2","SUMMARY",1,6,1585,"Include",312
"KY2011_e1","KY2011_e1_2","MANAGER",0,6,915,"Include",313
"KY2011_e1","KY2011_e1_2","REACTIONS",1,6,1260,"Include",314
"KY2011_e1","KY2011_e1_2","BLANKET",1,6,924,"Include",315
"KY2011_e1","KY2011_e1_2","PRISON",1,6,815,"Include",316
"KY2011_e1","KY2011_e1_2","THYROID",0,1,1076,"Include",317
"KY2011_e1","KY2011_e1_2","STADIUM",1,1,1221,"Include",318
"KY2011_e1","KY2011_e1_2","ACCURACY",1,6,768,"Include",319
"KY2011_e1","KY2011_e1_2","ARTICLE",0,6,878,"Include",320
"KY2011_e1","KY2011_e1_2","FREQUENCY",1,6,1046,"Include",321
"KY2011_e1","KY2011_e1_2","JACKET",0,6,765,"Include",322
"KY2011_e1","KY2011_e1_2","APPROVAL",1,6,950,"Include",323
"KY2011_e1","KY2011_e1_2","BELIEF",0,6,812,"Include",324
"KY2011_e1","KY2011_e1_2","PALFREY",1,1,1841,"Include",325
"KY2011_e1","KY2011_e1_2","FORMATION",1,6,2736,"Include",326
"KY2011_e1","KY2011_e1_2","CONSUMER",1,6,4954,"Include",327
"KY2011_e1","KY2011_e1_2","COFFEE",1,6,9648,"Include",328
"KY2011_e1","KY2011_e1_2","MAXIMUM",1,6,16911,"Include",329
"KY2011_e1","KY2011_e1_2","LEATHER",1,6,18192,"Include",330
"KY2011_e1","KY2011_e1_2","EXPANSION",1,6,941,"Include",331
"KY2011_e1","KY2011_e1_2","ADMISSION",0,1,1194,"Include",332
"KY2011_e1","KY2011_e1_2","ACRES",0,6,1135,"Include",333
"KY2011_e1","KY2011_e1_2","SERGEANT",1,6,923,"Include",334
"KY2011_e1","KY2011_e1_2","AVENUE",0,1,3135,"Include",335
"KY2011_e1","KY2011_e1_2","FACULTY",0,6,984,"Include",336
"KY2011_e1","KY2011_e1_2","LANE",0,1,1026,"Include",337
"KY2011_e1","KY2011_e1_2","THEORIES",0,6,1408,"Include",338
"KY2011_e1","KY2011_e1_2","MUSTARD",0,1,1132,"Include",339
"KY2011_e1","KY2011_e1_2","ILLUSION",1,6,1030,"Include",340
"KY2011_e1","KY2011_e1_2","CHANDLER",0,1,1143,"Include",341
"KY2011_e1","KY2011_e1_2","ALLIANCE",0,6,1117,"Include",342
"KY2011_e1","KY2011_e1_2","MINUTE",1,6,1089,"Include",343
"KY2011_e1","KY2011_e1_2","FIRMS",0,6,827,"Include",344
"KY2011_e1","KY2011_e1_2","DISPOSAL",0,1,856,"Include",345
"KY2011_e1","KY2011_e1_2","INTENTION",0,1,1702,"Include",346
"KY2011_e1","KY2011_e1_2","DOLLAR",1,6,860,"Include",347
"KY2011_e1","KY2011_e1_2","COMPANIES",1,6,953,"Include",348
"KY2011_e1","KY2011_e1_2","SECURITY",1,6,780,"Include",349
"KY2011_e1","KY2011_e1_2","STORIES",1,6,1645,"Include",350
"KY2011_e1","KY2011_e1_2","THOUSANDS",1,6,1192,"Include",351
"KY2011_e1","KY2011_e1_2","PARENTS",0,6,813,"Include",352
"KY2011_e1","KY2011_e1_2","FEES",0,1,885,"Include",353
"KY2011_e1","KY2011_e1_2","FEELINGS",1,1,820,"Include",354
"KY2011_e1","KY2011_e1_2","SERVANTS",0,6,1241,"Include",355
"KY2011_e1","KY2011_e1_2","PERSONNEL",1,6,1027,"Include",356
"KY2011_e1","KY2011_e1_2","DETECTIVE",1,1,1570,"Include",357
"KY2011_e1","KY2011_e1_2","AIRCRAFT",1,1,1037,"Include",358
"KY2011_e1","KY2011_e1_2","MEETINGS",0,6,3429,"Include",359
"KY2011_e1","KY2011_e1_2","EDITOR",1,6,1359,"Include",360
"KY2011_e1","KY2011_e1_2","LOCATION",0,6,1399,"Include",361
"KY2011_e1","KY2011_e1_2","TEARS",1,6,877,"Include",362
"KY2011_e1","KY2011_e1_2","MISSION",0,6,1044,"Include",363
"KY2011_e1","KY2011_e1_2","HEIGHT",1,6,914,"Include",364
"KY2011_e1","KY2011_e1_2","DAUGHTER",1,6,789,"Include",365
"KY2011_e1","KY2011_e1_2","EVENT",1,1,1502,"Include",366
"KY2011_e1","KY2011_e1_2","MEDICINE",1,6,630,"Include",367
"KY2011_e1","KY2011_e1_2","TRANSFER",1,6,757,"Include",368
"KY2011_e1","KY2011_e1_2","KITCHEN",0,1,709,"Include",369
"KY2011_e1","KY2011_e1_2","REVENUE",1,1,1792,"Include",370
"KY2011_e1","KY2011_e1_2","SOLUTION",1,6,1217,"Include",371
"KY2011_e1","KY2011_e1_2","CANDIDATE",0,6,1048,"Include",372
"KY2011_e1","KY2011_e1_2","HILL",0,1,775,"Include",373
"KY2011_e1","KY2011_e1_2","TASKS",0,1,1183,"Include",374
"KY2011_e1","KY2011_e1_2","ONSET",0,1,966,"Include",375
"KY2011_e1","KY2011_e1_2","READER",0,6,785,"Include",376
"KY2011_e1","KY2011_e1_2","ORIGIN",1,6,931,"Include",377
"KY2011_e1","KY2011_e1_2","DOZEN",0,1,829,"Include",378
"KY2011_e1","KY2011_e1_2","DRAMA",1,1,1099,"Include",379
"KY2011_e1","KY2011_e1_2","SUCCESS",1,6,822,"Include",380
"KY2011_e1","KY2011_e1_2","LENGTHS",1,1,1490,"Include",381
"KY2011_e1","KY2011_e1_2","CULTURE",0,1,1161,"Include",382
"KY2011_e1","KY2011_e1_2","OBJECT",1,1,2446,"Include",383
"KY2011_e1","KY2011_e1_2","MOOD",0,1,3148,"Include",384
"KY2011_e1","KY2011_e1_2","SISTER",0,6,937,"Include",385
"KY2011_e1","KY2011_e1_2","FRONTIER",1,6,973,"Include",386
"KY2011_e1","KY2011_e1_2","ENGINE",0,1,1548,"Include",387
"KY2011_e1","KY2011_e1_2","BATH",0,1,747,"Include",388
"KY2011_e1","KY2011_e1_2","TEXTILE",0,1,967,"Include",389
"KY2011_e1","KY2011_e1_2","LANGUAGES",0,1,1075,"Include",390
"KY2011_e1","KY2011_e1_2","TOOTH",0,1,698,"Include",391
"KY2011_e1","KY2011_e1_2","APARTMENT",0,1,972,"Include",392
"KY2011_e1","KY2011_e1_2","AUNT",0,1,1185,"Include",393
"KY2011_e1","KY2011_e1_2","AWARENESS",1,6,924,"Include",394
"KY2011_e1","KY2011_e1_2","HEAVEN",0,1,1689,"Include",395
"KY2011_e1","KY2011_e1_2","SHOTS",0,1,1009,"Include",396
"KY2011_e1","KY2011_e1_2","VICTORY",0,1,836,"Include",397
"KY2011_e1","KY2011_e1_2","HORN",1,6,1029,"Include",398
"KY2011_e1","KY2011_e1_2","COCKTAIL",1,6,1837,"Include",399
"KY2011_e1","KY2011_e1_2","SPEAKER",0,6,1666,"Include",400
"KY2011_e1","KY2011_e1_2","VELOCITY",1,1,1378,"Include",401
"KY2011_e1","KY2011_e1_2","LEGEND",0,1,1505,"Include",402
"KY2011_e1","KY2011_e1_2","COMMANDER",0,6,2219,"Include",403
"KY2011_e1","KY2011_e1_2","WEAKNESS",0,1,918,"Include",404
"KY2011_e1","KY2011_e1_2","BIRD",1,1,1154,"Include",405
"KY2011_e1","KY2011_e1_2","ELECTRON",1,1,1059,"Include",406
"KY2011_e1","KY2011_e1_2","BELT",1,6,1534,"Include",407
"KY2011_e1","KY2011_e1_2","HEARTS",0,6,1120,"Include",408
"KY2011_e1","KY2011_e1_2","ANIMAL",1,1,1010,"Include",409
"KY2011_e1","KY2011_e1_2","POLITICS",0,6,1595,"Include",410
"KY2011_e1","KY2011_e1_2","MAID",1,6,2167,"Include",411
"KY2011_e1","KY2011_e1_2","RECOVERY",1,6,1382,"Include",412
"KY2011_e1","KY2011_e1_2","TERRITORY",1,6,1149,"Include",413
"KY2011_e1","KY2011_e1_2","MEANINGS",1,1,1883,"Include",414
"KY2011_e1","KY2011_e1_2","HIGHWAY",0,1,5838,"Include",415
"KY2011_e1","KY2011_e1_2","LUCK",0,6,1354,"Include",416
"KY2011_e1","KY2011_e1_2","SIDEWALK",0,3,1052,"Include",417
"KY2011_e1","KY2011_e1_2","BASEBALL",0,5,1361,"Include",418
"KY2011_e1","KY2011_e1_2","CONFUSION",0,4,916,"Include",419
"KY2011_e1","KY2011_e1_2","VISION",1,3,1399,"Include",420
"KY2011_e1","KY2011_e1_2","CRISIS",1,2,1184,"Include",421
"KY2011_e1","KY2011_e1_2","ROLES",1,5,1551,"Include",422
"KY2011_e1","KY2011_e1_2","REFERENCE",1,2,1390,"Include",423
"KY2011_e1","KY2011_e1_2","ASPECT",1,6,1484,"Include",424
"KY2011_e1","KY2011_e1_2","KINDS",0,1,893,"Include",425
"KY2011_e1","KY2011_e1_2","SENATOR",0,5,1744,"Include",426
"KY2011_e1","KY2011_e1_2","CHURCHES",1,6,1761,"Include",427
"KY2011_e1","KY2011_e1_2","MYTH",0,4,1295,"Include",428
"KY2011_e1","KY2011_e1_2","COMEDY",1,6,1502,"Include",429
"KY2011_e1","KY2011_e1_2","CELL",0,2,1882,"Include",430
"KY2011_e1","KY2011_e1_2","ALLOTMENT",1,2,2091,"Include",431
"KY2011_e1","KY2011_e1_2","OUTLOOK",1,6,1680,"Include",432
"KY2011_e1","KY2011_e1_2","MYSTERY",0,6,974,"Include",433
"KY2011_e1","KY2011_e1_2","MAGAZINE",1,6,1339,"Include",434
"KY2011_e1","KY2011_e1_2","CURIOSITY",1,6,1075,"Include",435
"KY2011_e1","KY2011_e1_2","FLUX",0,2,1305,"Include",436
"KY2011_e1","KY2011_e1_2","TALE",1,2,2056,"Include",437
"KY2011_e1","KY2011_e1_2","EXPERT",1,6,821,"Include",438
"KY2011_e1","KY2011_e1_2","AFFAIR",1,6,659,"Include",439
"KY2011_e1","KY2011_e1_2","PERIODS",0,2,727,"Include",440
"KY2011_e1","KY2011_e1_2","GENIUS",0,2,651,"Include",441
"KY2011_e1","KY2011_e1_2","MOTIVE",0,6,735,"Include",442
"KY2011_e1","KY2011_e1_2","RETAIL",1,6,981,"Include",443
"KY2011_e1","KY2011_e1_2","SUSPECT",1,6,702,"Include",444
"KY2011_e1","KY2011_e1_2","REVEREND",1,6,941,"Include",445
"KY2011_e1","KY2011_e1_2","PATHOLOGY",1,2,1039,"Include",446
"KY2011_e1","KY2011_e1_2","REPUBLIC",1,2,1304,"Include",447
"KY2011_e1","KY2011_e1_2","DISCOVERY",0,6,4063,"Include",448
"KY2011_e1","KY2011_e1_2","FARMER",0,2,1496,"Include",449
"KY2011_e1","KY2011_e1_2","SEQUENCE",1,6,957,"Include",450
"KY2011_e1","KY2011_e1_2","MATERIALS",1,6,2001,"Include",451
"KY2011_e1","KY2011_e1_2","CLIMATE",0,6,2460,"Include",452
"KY2011_e1","KY2011_e1_2","DEAN",1,6,797,"Include",453
"KY2011_e1","KY2011_e1_2","LIBERTY",0,6,1285,"Include",454
"KY2011_e1","KY2011_e1_2","PLENTY",1,6,905,"Include",455
"KY2011_e1","KY2011_e1_2","MUSICIAN",1,2,1049,"Include",456
"KY2011_e1","KY2011_e1_2","TRADERS",1,6,2253,"Include",457
"KY2011_e1","KY2011_e1_2","SALINE",0,1,1179,"Include",458
"KY2011_e1","KY2011_e1_2","GALLERY",0,1,1478,"Include",459
"KY2011_e1","KY2011_e1_2","TOWNS",1,1,909,"Include",460
"KY2011_e1","KY2011_e1_2","STREETS",0,1,1015,"Include",461
"KY2011_e1","KY2011_e1_2","HATRED",0,1,4748,"Include",462
"KY2011_e1","KY2011_e1_2","LIPS",1,6,901,"Include",463
"KY2011_e1","KY2011_e1_2","VICTIM",0,6,2189,"Include",464
"KY2011_e1","KY2011_e1_2","CONTENT",1,6,796,"Include",465
"KY2011_e1","KY2011_e1_2","WINDOWS",0,1,1169,"Include",466
"KY2011_e1","KY2011_e1_2","PRINCE",1,1,1497,"Include",467
"KY2011_e1","KY2011_e1_2","AMENDMENT",0,6,1244,"Include",468
"KY2011_e1","KY2011_e1_2","NUTS",1,6,874,"Include",469
"KY2011_e1","KY2011_e1_2","ATTITUDES",1,6,1666,"Include",470
"KY2011_e1","KY2011_e1_2","COUNTIES",0,1,1372,"Include",471
"KY2011_e1","KY2011_e1_2","WELFARE",0,6,1430,"Include",472
"KY2011_e1","KY2011_e1_2","LUXURY",0,6,1060,"Include",473
"KY2011_e1","KY2011_e1_2","ACCIDENT",1,6,2310,"Include",474
"KY2011_e1","KY2011_e1_2","FIBER",0,1,1008,"Include",475
"KY2011_e1","KY2011_e1_2","ACTOR",0,1,798,"Include",476
"KY2011_e1","KY2011_e1_2","ASTRONOMY",0,1,1224,"Include",477
"KY2011_e1","KY2011_e1_2","FLESH",0,1,997,"Include",478
"KY2011_e1","KY2011_e1_2","FAMILIES",1,1,1021,"Include",479
"KY2011_e1","KY2011_e1_2","THEATER",1,1,3220,"Include",480
"KY2011_e1","KY2011_e1_2","TENSION",0,1,3900,"Include",481
"KY2011_e1","KY2011_e1_2","PIANO",1,6,1090,"Include",482
"KY2011_e1","KY2011_e1_2","ERRORS",0,2,940,"Include",483
"KY2011_e1","KY2011_e1_2","MINORITY",0,3,362,"Include",484
"KY2011_e1","KY2011_e1_2","JUNGLE",0,6,257,"Include",485
"KY2011_e1","KY2011_e1_2","DEALER",1,4,108,"Include",486
"KY2011_e1","KY2011_e1_2","MERCER",0,6,230,"Include",487
"KY2011_e1","KY2011_e1_2","FRUIT",0,1,220,"Include",488
"KY2011_e1","KY2011_e1_2","FACTORY",0,6,250,"Include",489
"KY2011_e1","KY2011_e1_2","VARIETY",0,6,453,"Include",490
"KY2011_e1","KY2011_e1_2","SONG",0,6,424,"Include",491
"KY2011_e1","KY2011_e1_2","BEINGS",1,6,1030,"Include",492
"KY2011_e1","KY2011_e1_2","MERCY",1,6,1022,"Include",493
"KY2011_e1","KY2011_e1_2","FAILURE",1,6,732,"Include",494
"KY2011_e1","KY2011_e1_2","JOURNAL",0,6,652,"Include",495
"KY2011_e1","KY2011_e1_2","SHEEP",0,2,1125,"Include",496
"KY2011_e1","KY2011_e1_2","STUDIO",1,6,580,"Include",497
"KY2011_e1","KY2011_e1_2","NOON",1,6,657,"Include",498
"KY2011_e1","KY2011_e1_2","OCEAN",0,6,794,"Include",499
"KY2011_e1","KY2011_e1_2","TRAGEDY",1,6,789,"Include",500
"KY2011_e1","KY2011_e1_2","PLASTICS",1,4,1424,"Include",501
"KY2011_e1","KY2011_e1_2","AUTO",1,6,791,"Include",502
"KY2011_e1","KY2011_e1_2","CHILDHOOD",0,3,2825,"Include",503
"KY2011_e1","KY2011_e1_2","BOAT",0,6,806,"Include",504
"KY2011_e1","KY2011_e1_2","MAJORITY",1,6,966,"Include",505
"KY2011_e1","KY2011_e1_2","FORT",0,3,1485,"Include",506
"KY2011_e1","KY2011_e1_2","NIGHTS",0,6,2111,"Include",507
"KY2011_e1","KY2011_e1_2","COUSIN",0,3,1735,"Include",508
"KY2011_e1","KY2011_e1_2","REALISM",1,6,1736,"Include",509
"KY2011_e1","KY2011_e1_2","COMBAT",1,6,1338,"Include",510
"KY2011_e1","KY2011_e1_2","QUANTITY",1,6,762,"Include",511
"KY2011_e1","KY2011_e1_2","HISTORIAN",1,2,1356,"Include",512
"KY2011_e1","KY2011_e1_2","MACHINERY",1,1,1724,"Include",513
"KY2011_e1","KY2011_e1_2","MARRIAGE",0,6,842,"Include",514
"KY2011_e1","KY2011_e1_2","EXAMPLES",0,1,1669,"Include",515
"KY2011_e1","KY2011_e1_2","MELODY",0,6,1537,"Include",516
"KY2011_e1","KY2011_e1_2","DRAWINGS",1,6,781,"Include",517
"KY2011_e1","KY2011_e1_2","SUPPER",1,6,956,"Include",518
"KY2011_e1","KY2011_e1_2","CAMPUS",1,6,931,"Include",519
"KY2011_e1","KY2011_e1_2","COURAGE",0,6,659,"Include",520
"KY2011_e1","KY2011_e1_2","RESOURCES",0,1,907,"Include",521
"KY2011_e1","KY2011_e1_2","DESK",0,6,601,"Include",522
"KY2011_e1","KY2011_e1_2","MODE",0,1,611,"Include",523
"KY2011_e1","KY2011_e1_2","MERCHANT",0,6,975,"Include",524
"KY2011_e1","KY2011_e1_2","CAPACITY",0,6,1619,"Include",525
"KY2011_e1","KY2011_e1_2","PRECISION",0,6,831,"Include",526
"KY2011_e1","KY2011_e1_2","UNCLE",1,6,804,"Include",527
"KY2011_e1","KY2011_e1_2","LAUGHTER",1,6,669,"Include",528
"KY2011_e1","KY2011_e1_2","ORCHESTRA",0,6,550,"Include",529
"KY2011_e1","KY2011_e1_2","CEILING",1,1,540,"Include",530
"KY2011_e1","KY2011_e1_2","PISTOL",1,6,1109,"Include",531
"KY2011_e1","KY2011_e1_2","REFUND",0,6,606,"Include",532
"KY2011_e1","KY2011_e1_2","WINE",1,6,636,"Include",533
"KY2011_e1","KY2011_e1_2","WORKER",1,6,1430,"Include",534
"KY2011_e1","KY2011_e1_2","GUILT",0,6,1575,"Include",535
"KY2011_e1","KY2011_e1_2","PLATFORM",0,1,979,"Include",536
"KY2011_e1","KY2011_e1_2","MEDIUM",1,5,2946,"Include",537
"KY2011_e1","KY2011_e1_2","PUBLICITY",0,4,1331,"Include",538
"KY2011_e1","KY2011_e1_2","PROCEDURE",0,1,750,"Include",539
"KY2011_e1","KY2011_e1_2","IDENTITY",1,6,907,"Include",540
"KY2011_e1","KY2011_e1_2","STATUS",0,6,675,"Include",541
"KY2011_e1","KY2011_e1_2","PLAYER",0,6,1390,"Include",542
"KY2011_e1","KY2011_e1_2","REDUCTION",1,3,1632,"Include",543
"KY2011_e1","KY2011_e1_2","CAPITAL",1,6,1098,"Include",544
"KY2011_e1","KY2011_e1_2","PATH",1,6,1508,"Include",545
"KY2011_e1","KY2011_e1_2","DEVICE",1,6,1896,"Include",546
"KY2011_e1","KY2011_e1_2","PROPOSAL",1,6,977,"Include",547
"KY2011_e1","KY2011_e1_2","RITUAL",1,6,2773,"Include",548
"KY2011_e1","KY2011_e1_2","METAL",0,6,1368,"Include",549
"KY2011_e1","KY2011_e1_2","GAMES",1,6,1719,"Include",550
"KY2011_e1","KY2011_e1_2","CABIN",1,6,1118,"Include",551
"KY2011_e1","KY2011_e1_2","ARTERY",0,1,2423,"Include",552
"KY2011_e1","KY2011_e1_2","CATTLE",1,1,2751,"Include",553
"KY2011_e1","KY2011_e1_2","SPIRITS",0,1,2503,"Include",554
"KY2011_e1","KY2011_e1_2","AUTHORITY",0,6,2427,"Include",555
"KY2011_e1","KY2011_e1_2","BEARD",0,1,1443,"Include",556
"KY2011_e1","KY2011_e1_2","SCENES",1,1,1308,"Include",557
"KY2011_e1","KY2011_e1_2","ENJOYMENT",0,1,1311,"Include",558
"KY2011_e1","KY2011_e1_2","TENT",1,6,1331,"Include",559
"KY2011_e1","KY2011_e1_2","EXTENSION",0,6,1089,"Include",560
"KY2011_e1","KY2011_e1_2","ECONOMY",0,1,1463,"Include",561
"KY2011_e1","KY2011_e1_2","FOLKLORE",1,6,1389,"Include",562
"KY2011_e1","KY2011_e1_2","UTILITY",1,1,1234,"Include",563
"KY2011_e1","KY2011_e1_2","EMPIRE",1,6,950,"Include",564
"KY2011_e1","KY2011_e1_2","GLASS",1,1,963,"Include",565
"KY2011_e1","KY2011_e1_2","NECESSITY",1,1,997,"Include",566
"KY2011_e1","KY2011_e1_2","GOAL",0,1,809,"Include",567
"KY2011_e1","KY2011_e1_2","LANDSCAPE",1,1,1670,"Include",568
"KY2011_e1","KY2011_e1_2","HERITAGE",1,1,981,"Include",569
"KY2011_e1","KY2011_e1_2","WISDOM",1,6,693,"Include",570
"KY2011_e1","KY2011_e1_2","CHAPTER",0,1,1060,"Include",571
"KY2011_e1","KY2011_e1_2","SALVATION",1,6,879,"Include",572
"KY2011_e1","KY2011_e1_2","TESTAMENT",0,1,1363,"Include",573
"KY2011_e1","KY2011_e1_2","JERSEY",1,1,1186,"Include",574
"KY2011_e1","KY2011_e1_2","DANCER",0,1,1461,"Include",575
"KY2011_e1","KY2011_e1_2","HERO",0,6,815,"Include",576
"KY2011_e1","KY2011_e1_2","JURY",0,6,812,"Include",577
"KY2011_e1","KY2011_e1_2","ADVICE",0,6,924,"Include",578
"KY2011_e1","KY2011_e1_2","ARGUMENT",1,6,1112,"Include",579
"KY2011_e1","KY2011_e1_2","ELECTION",1,6,982,"Include",580
"KY2011_e1","KY2011_e1_2","MUSEUM",0,6,877,"Include",581
"KY2011_e1","KY2011_e1_2","SOUL",0,6,994,"Include",582
"KY2011_e1","KY2011_e1_2","CAMERA",1,1,1061,"Include",583
"KY2011_e1","KY2011_e1_2","VERSION",0,1,754,"Include",584
"KY2011_e1","KY2011_e1_2","MOMENTS",0,1,876,"Include",585
"KY2011_e1","KY2011_e1_2","FATE",0,6,798,"Include",586
"KY2011_e1","KY2011_e1_2","REMOVAL",1,1,794,"Include",587
"KY2011_e1","KY2011_e1_2","INCIDENT",1,1,807,"Include",588
"KY2011_e1","KY2011_e1_2","DANGER",0,1,564,"Include",589
"KY2011_e1","KY2011_e1_2","BRAIN",1,1,2510,"Include",590
"KY2011_e1","KY2011_e1_2","REGION",1,1,2565,"Include",591
"KY2011_e1","KY2011_e1_2","SHERIFF",1,6,1557,"Include",592
"KY2011_e1","KY2011_e1_2","HUMANITY",0,6,741,"Include",593
"KY2011_e1","KY2011_e1_2","DOORS",1,6,957,"Include",594
"KY2011_e1","KY2011_e1_2","SYMBOL",0,6,424,"Include",595
"KY2011_e1","KY2011_e1_2","TONGUE",1,6,719,"Include",596
"KY2011_e1","KY2011_e1_2","UTOPIA",1,6,867,"Include",597
"KY2011_e1","KY2011_e1_2","MILLER",0,1,1130,"Include",598
"KY2011_e1","KY2011_e1_2","CHAMBER",1,1,1595,"Include",599
"KY2011_e1","KY2011_e1_2","DIAMETER",0,3,1042,"Include",600
"KY2011_e1","KY2011_e1_3","VEIN",0,1,3536,"Include",1
"KY2011_e1","KY2011_e1_3","FRACTION",1,6,1469,"Include",2
"KY2011_e1","KY2011_e1_3","PRINCE",0,1,1684,"Include",3
"KY2011_e1","KY2011_e1_3","COUSIN",0,1,1815,"Include",4
"KY2011_e1","KY2011_e1_3","MAGNITUDE",0,6,2018,"Include",5
"KY2011_e1","KY2011_e1_3","STORIES",0,2,3412,"Include",6
"KY2011_e1","KY2011_e1_3","RETAIL",0,5,3379,"Include",7
"KY2011_e1","KY2011_e1_3","ANGELS",0,1,2144,"Include",8
"KY2011_e1","KY2011_e1_3","SESSION",0,5,2842,"Include",9
"KY2011_e1","KY2011_e1_3","EDITOR",1,3,4805,"Include",10
"KY2011_e1","KY2011_e1_3","TOOTH",1,6,1584,"Include",11
"KY2011_e1","KY2011_e1_3","REALITY",1,6,1628,"Include",12
"KY2011_e1","KY2011_e1_3","PROTEIN",0,1,1567,"Include",13
"KY2011_e1","KY2011_e1_3","DISPOSAL",1,6,3130,"Include",14
"KY2011_e1","KY2011_e1_3","PRISON",0,2,3255,"Include",15
"KY2011_e1","KY2011_e1_3","DILEMMA",1,6,1821,"Include",16
"KY2011_e1","KY2011_e1_3","LEGEND",0,6,1232,"Include",17
"KY2011_e1","KY2011_e1_3","ACTOR",1,6,1369,"Include",18
"KY2011_e1","KY2011_e1_3","PAYMENT",1,2,3385,"Include",19
"KY2011_e1","KY2011_e1_3","REACTIONS",1,6,1584,"Include",20
"KY2011_e1","KY2011_e1_3","PASSION",1,6,1810,"Include",21
"KY2011_e1","KY2011_e1_3","SPEAKER",1,6,1351,"Include",22
"KY2011_e1","KY2011_e1_3","PROJECT",0,2,4786,"Include",23
"KY2011_e1","KY2011_e1_3","MEANINGS",0,3,3498,"Include",24
"KY2011_e1","KY2011_e1_3","VEHICLE",1,6,2314,"Include",25
"KY2011_e1","KY2011_e1_3","COUNTIES",1,6,3201,"Include",26
"KY2011_e1","KY2011_e1_3","SALVATION",1,6,1180,"Include",27
"KY2011_e1","KY2011_e1_3","PISTOL",0,1,3578,"Include",28
"KY2011_e1","KY2011_e1_3","DESTINY",1,6,1488,"Include",29
"KY2011_e1","KY2011_e1_3","OUTCOME",1,6,2937,"Include",30
"KY2011_e1","KY2011_e1_3","PERCENT",0,5,3422,"Include",31
"KY2011_e1","KY2011_e1_3","ILLNESS",0,4,5038,"Include",32
"KY2011_e1","KY2011_e1_3","RADAR",0,2,1975,"Include",33
"KY2011_e1","KY2011_e1_3","JERSEY",0,1,1633,"Include",34
"KY2011_e1","KY2011_e1_3","CHAPEL",0,1,1968,"Include",35
"KY2011_e1","KY2011_e1_3","TRUSTEES",1,6,1535,"Include",36
"KY2011_e1","KY2011_e1_3","YOUTH",1,6,982,"Include",37
"KY2011_e1","KY2011_e1_3","MESSAGE",1,6,2153,"Include",38
"KY2011_e1","KY2011_e1_3","HONEY",0,1,1979,"Include",39
"KY2011_e1","KY2011_e1_3","STUDIO",1,6,1252,"Include",40
"KY2011_e1","KY2011_e1_3","COLONEL",0,2,1813,"Include",41
"KY2011_e1","KY2011_e1_3","TRIALS",0,5,4032,"Include",42
"KY2011_e1","KY2011_e1_3","TOOL",0,6,1253,"Include",43
"KY2011_e1","KY2011_e1_3","MERCY",1,6,1188,"Include",44
"KY2011_e1","KY2011_e1_3","OBSERVERS",0,6,1115,"Include",45
"KY2011_e1","KY2011_e1_3","MONUMENT",0,1,2675,"Include",46
"KY2011_e1","KY2011_e1_3","VELOCITY",1,6,1442,"Include",47
"KY2011_e1","KY2011_e1_3","HORN",1,6,1161,"Include",48
"KY2011_e1","KY2011_e1_3","FACULTY",0,4,5115,"Include",49
"KY2011_e1","KY2011_e1_3","POVERTY",0,2,2405,"Include",50
"KY2011_e1","KY2011_e1_3","BASEBALL",0,1,1954,"Include",51
"KY2011_e1","KY2011_e1_3","LENGTHS",0,4,3913,"Include",52
"KY2011_e1","KY2011_e1_3","GAMES",1,1,1412,"Include",53
"KY2011_e1","KY2011_e1_3","TEACHER",1,6,2947,"Include",54
"KY2011_e1","KY2011_e1_3","NOBODY",0,1,1798,"Include",55
"KY2011_e1","KY2011_e1_3","RICE",0,2,3007,"Include",56
"KY2011_e1","KY2011_e1_3","FOOTBALL",1,6,1318,"Include",57
"KY2011_e1","KY2011_e1_3","SAFETY",1,6,1511,"Include",58
"KY2011_e1","KY2011_e1_3","BEACH",0,1,1722,"Include",59
"KY2011_e1","KY2011_e1_3","RESIDENCE",0,2,2181,"Include",60
"KY2011_e1","KY2011_e1_3","MODE",1,6,1261,"Include",61
"KY2011_e1","KY2011_e1_3","INNOCENCE",0,6,2146,"Include",62
"KY2011_e1","KY2011_e1_3","SCHOLARS",0,1,2193,"Include",63
"KY2011_e1","KY2011_e1_3","EMPIRE",1,5,3292,"Include",64
"KY2011_e1","KY2011_e1_3","SAUCE",0,1,1387,"Include",65
"KY2011_e1","KY2011_e1_3","MAGAZINE",0,2,2383,"Include",66
"KY2011_e1","KY2011_e1_3","MILLER",1,6,2050,"Include",67
"KY2011_e1","KY2011_e1_3","HEAVEN",1,6,1050,"Include",68
"KY2011_e1","KY2011_e1_3","THEORIES",1,6,4023,"Include",69
"KY2011_e1","KY2011_e1_3","WIVES",1,6,1317,"Include",70
"KY2011_e1","KY2011_e1_3","ARTIST",1,6,1057,"Include",71
"KY2011_e1","KY2011_e1_3","SHERIFF",1,6,965,"Include",72
"KY2011_e1","KY2011_e1_3","MIDNIGHT",0,2,4180,"Include",73
"KY2011_e1","KY2011_e1_3","PHENOMENA",0,1,3747,"Include",74
"KY2011_e1","KY2011_e1_3","MATERIALS",1,6,1516,"Include",75
"KY2011_e1","KY2011_e1_3","DEGREES",1,6,1195,"Include",76
"KY2011_e1","KY2011_e1_3","ASSISTANT",1,6,3176,"Include",77
"KY2011_e1","KY2011_e1_3","WRITER",1,5,2592,"Include",78
"KY2011_e1","KY2011_e1_3","MINORITY",0,4,6052,"Include",79
"KY2011_e1","KY2011_e1_3","ADVICE",0,6,2849,"Include",80
"KY2011_e1","KY2011_e1_3","CRITIC",1,2,3034,"Include",81
"KY2011_e1","KY2011_e1_3","CONDUCTOR",0,6,3152,"Include",82
"KY2011_e1","KY2011_e1_3","MISSION",1,6,1981,"Include",83
"KY2011_e1","KY2011_e1_3","TESTAMENT",0,2,4482,"Include",84
"KY2011_e1","KY2011_e1_3","STILE",0,1,1570,"Include",85
"KY2011_e1","KY2011_e1_3","ACCURACY",1,6,1429,"Include",86
"KY2011_e1","KY2011_e1_3","LANDSCAPE",0,1,1323,"Include",87
"KY2011_e1","KY2011_e1_3","LIBRARY",1,6,1096,"Include",88
"KY2011_e1","KY2011_e1_3","SOLUTION",1,2,8401,"Include",89
"KY2011_e1","KY2011_e1_3","LEADER",0,1,2107,"Include",90
"KY2011_e1","KY2011_e1_3","BEAUTY",1,6,1134,"Include",91
"KY2011_e1","KY2011_e1_3","FRONTIER",1,6,1402,"Include",92
"KY2011_e1","KY2011_e1_3","INSTANCE",1,4,2221,"Include",93
"KY2011_e1","KY2011_e1_3","AXIS",1,6,1263,"Include",94
"KY2011_e1","KY2011_e1_3","ABILITY",0,6,2418,"Include",95
"KY2011_e1","KY2011_e1_3","DIAMETER",0,1,1415,"Include",96
"KY2011_e1","KY2011_e1_3","HORIZON",1,6,1194,"Include",97
"KY2011_e1","KY2011_e1_3","FAMILIES",0,2,2107,"Include",98
"KY2011_e1","KY2011_e1_3","SUBSTRATE",1,1,6632,"Include",99
"KY2011_e1","KY2011_e1_3","CONTENT",0,5,4006,"Include",100
"KY2011_e1","KY2011_e1_3","TEXTILE",0,4,2047,"Include",101
"KY2011_e1","KY2011_e1_3","EMERGENCY",1,6,1021,"Include",102
"KY2011_e1","KY2011_e1_3","ALLOTMENT",1,6,3641,"Include",103
"KY2011_e1","KY2011_e1_3","GOVERNOR",0,1,2690,"Include",104
"KY2011_e1","KY2011_e1_3","WEAKNESS",1,6,1198,"Include",105
"KY2011_e1","KY2011_e1_3","QUEEN",0,1,2508,"Include",106
"KY2011_e1","KY2011_e1_3","MANTLE",1,6,1192,"Include",107
"KY2011_e1","KY2011_e1_3","ARGUMENT",1,6,1907,"Include",108
"KY2011_e1","KY2011_e1_3","BELIEF",1,6,1047,"Include",109
"KY2011_e1","KY2011_e1_3","CONFUSION",0,6,1840,"Include",110
"KY2011_e1","KY2011_e1_3","DEVICE",1,6,1020,"Include",111
"KY2011_e1","KY2011_e1_3","JUDGMENT",0,4,2103,"Include",112
"KY2011_e1","KY2011_e1_3","TACTICS",0,6,1424,"Include",113
"KY2011_e1","KY2011_e1_3","REVENUE",0,6,1306,"Include",114
"KY2011_e1","KY2011_e1_3","PASSAGE",0,2,2960,"Include",115
"KY2011_e1","KY2011_e1_3","UTOPIA",0,6,1735,"Include",116
"KY2011_e1","KY2011_e1_3","BEHAVIOR",1,6,1860,"Include",117
"KY2011_e1","KY2011_e1_3","INCREASES",0,1,1890,"Include",118
"KY2011_e1","KY2011_e1_3","ROOF",1,6,1087,"Include",119
"KY2011_e1","KY2011_e1_3","SISTER",1,6,862,"Include",120
"KY2011_e1","KY2011_e1_3","INTENTION",1,2,2825,"Include",121
"KY2011_e1","KY2011_e1_3","PLASTICS",1,6,1162,"Include",122
"KY2011_e1","KY2011_e1_3","WEEKEND",1,6,2773,"Include",123
"KY2011_e1","KY2011_e1_3","TREATY",0,6,2174,"Include",124
"KY2011_e1","KY2011_e1_3","HISTORIAN",0,6,2597,"Include",125
"KY2011_e1","KY2011_e1_3","LIPS",1,6,876,"Include",126
"KY2011_e1","KY2011_e1_3","SHOTS",0,5,2752,"Include",127
"KY2011_e1","KY2011_e1_3","ENVELOPE",1,1,1387,"Include",128
"KY2011_e1","KY2011_e1_3","DRIVER",1,6,728,"Include",129
"KY2011_e1","KY2011_e1_3","GLASS",1,6,2531,"Include",130
"KY2011_e1","KY2011_e1_3","HERO",0,1,2109,"Include",131
"KY2011_e1","KY2011_e1_3","PRESTIGE",0,2,2305,"Include",132
"KY2011_e1","KY2011_e1_3","WELFARE",0,5,2251,"Include",133
"KY2011_e1","KY2011_e1_3","DANGER",0,5,6018,"Include",134
"KY2011_e1","KY2011_e1_3","DEPTH",1,6,977,"Include",135
"KY2011_e1","KY2011_e1_3","SIDEWALK",0,1,1808,"Include",136
"KY2011_e1","KY2011_e1_3","CAFE",0,2,1826,"Include",137
"KY2011_e1","KY2011_e1_3","SALE",0,3,8815,"Include",138
"KY2011_e1","KY2011_e1_3","TALE",1,6,1994,"Include",139
"KY2011_e1","KY2011_e1_3","FORT",1,6,847,"Include",140
"KY2011_e1","KY2011_e1_3","PORTION",1,4,3789,"Include",141
"KY2011_e1","KY2011_e1_3","VISION",0,5,2949,"Include",142
"KY2011_e1","KY2011_e1_3","CHURCHES",1,6,1754,"Include",143
"KY2011_e1","KY2011_e1_3","MERCHANT",0,6,3286,"Include",144
"KY2011_e1","KY2011_e1_3","ARTERY",0,1,3508,"Include",145
"KY2011_e1","KY2011_e1_3","ORCHESTRA",1,6,1021,"Include",146
"KY2011_e1","KY2011_e1_3","CHANDLER",1,6,808,"Include",147
"KY2011_e1","KY2011_e1_3","EMISSION",0,1,1840,"Include",148
"KY2011_e1","KY2011_e1_3","PERMIT",1,6,4706,"Include",149
"KY2011_e1","KY2011_e1_3","EXPERT",0,2,2047,"Include",150
"KY2011_e1","KY2011_e1_3","JACKET",0,1,2622,"Include",151
"KY2011_e1","KY2011_e1_3","ADMISSION",1,2,2484,"Include",152
"KY2011_e1","KY2011_e1_3","CAPITAL",1,6,1166,"Include",153
"KY2011_e1","KY2011_e1_3","PRAYER",1,6,806,"Include",154
"KY2011_e1","KY2011_e1_3","BOAT",1,4,2347,"Include",155
"KY2011_e1","KY2011_e1_3","ENGINE",1,6,883,"Include",156
"KY2011_e1","KY2011_e1_3","ENTRANCE",1,2,6600,"Include",157
"KY2011_e1","KY2011_e1_3","SALARY",0,2,14179,"Include",158
"KY2011_e1","KY2011_e1_3","PROCEDURE",0,6,3303,"Include",159
"KY2011_e1","KY2011_e1_3","ARRIVAL",0,4,2131,"Include",160
"KY2011_e1","KY2011_e1_3","CAPE",0,4,1563,"Include",161
"KY2011_e1","KY2011_e1_3","FORMULA",1,5,2465,"Include",162
"KY2011_e1","KY2011_e1_3","RITUAL",1,6,1631,"Include",163
"KY2011_e1","KY2011_e1_3","COFFEE",0,1,1632,"Include",164
"KY2011_e1","KY2011_e1_3","AMENDMENT",0,4,4864,"Include",165
"KY2011_e1","KY2011_e1_3","FURNITURE",1,6,1112,"Include",166
"KY2011_e1","KY2011_e1_3","AFFAIR",0,2,1797,"Include",167
"KY2011_e1","KY2011_e1_3","SUMMARY",1,6,2085,"Include",168
"KY2011_e1","KY2011_e1_3","CANDIDATE",0,6,1949,"Include",169
"KY2011_e1","KY2011_e1_3","MINUTE",1,6,1371,"Include",170
"KY2011_e1","KY2011_e1_3","LOYALTY",0,6,1235,"Include",171
"KY2011_e1","KY2011_e1_3","HEELS",0,2,3670,"Include",172
"KY2011_e1","KY2011_e1_3","STADIUM",1,6,788,"Include",173
"KY2011_e1","KY2011_e1_3","MISSILE",0,4,2846,"Include",174
"KY2011_e1","KY2011_e1_3","SECURITY",1,6,927,"Include",175
"KY2011_e1","KY2011_e1_3","THEATER",0,2,2202,"Include",176
"KY2011_e1","KY2011_e1_3","PALFREY",0,1,1452,"Include",177
"KY2011_e1","KY2011_e1_3","COURAGE",1,6,1164,"Include",178
"KY2011_e1","KY2011_e1_3","TEARS",0,1,3078,"Include",179
"KY2011_e1","KY2011_e1_3","SPIRITS",0,5,4783,"Include",180
"KY2011_e1","KY2011_e1_3","DRAWINGS",0,2,2782,"Include",181
"KY2011_e1","KY2011_e1_3","RESOURCES",0,6,2750,"Include",182
"KY2011_e1","KY2011_e1_3","CLAY",0,1,2383,"Include",183
"KY2011_e1","KY2011_e1_3","GOAL",0,2,2228,"Include",184
"KY2011_e1","KY2011_e1_3","EXTENSION",0,3,3088,"Include",185
"KY2011_e1","KY2011_e1_3","TALENT",0,1,1969,"Include",186
"KY2011_e1","KY2011_e1_3","FACTORY",0,6,1480,"Include",187
"KY2011_e1","KY2011_e1_3","PLAYER",0,2,3591,"Include",188
"KY2011_e1","KY2011_e1_3","WISDOM",1,6,1264,"Include",189
"KY2011_e1","KY2011_e1_3","SECRETS",1,6,3898,"Include",190
"KY2011_e1","KY2011_e1_3","TENSION",1,4,2832,"Include",191
"KY2011_e1","KY2011_e1_3","JUNGLE",0,2,1813,"Include",192
"KY2011_e1","KY2011_e1_3","BALLET",0,1,2890,"Include",193
"KY2011_e1","KY2011_e1_3","APARTMENT",0,2,2389,"Include",194
"KY2011_e1","KY2011_e1_3","OCEAN",1,3,2161,"Include",195
"KY2011_e1","KY2011_e1_3","REPUBLIC",1,5,2252,"Include",196
"KY2011_e1","KY2011_e1_3","SCENES",1,2,2927,"Include",197
"KY2011_e1","KY2011_e1_3","SALINE",1,6,1595,"Include",198
"KY2011_e1","KY2011_e1_3","MANAGER",0,4,3760,"Include",199
"KY2011_e1","KY2011_e1_3","ANIMAL",1,6,2451,"Include",200
"KY2011_e1","KY2011_e1_3","TRANSFER",1,6,4809,"Include",201
"KY2011_e1","KY2011_e1_3","GUIDANCE",1,2,3023,"Include",202
"KY2011_e1","KY2011_e1_3","MARRIAGE",1,6,1641,"Include",203
"KY2011_e1","KY2011_e1_3","TRAFFIC",0,2,3925,"Include",204
"KY2011_e1","KY2011_e1_3","IDENTITY",1,5,3729,"Include",205
"KY2011_e1","KY2011_e1_3","OUTLOOK",0,1,1410,"Include",206
"KY2011_e1","KY2011_e1_3","COMMANDER",1,6,1484,"Include",207
"KY2011_e1","KY2011_e1_3","GALLERY",1,6,2699,"Include",208
"KY2011_e1","KY2011_e1_3","RAILROAD",0,2,3941,"Include",209
"KY2011_e1","KY2011_e1_3","PROMOTION",0,4,5008,"Include",210
"KY2011_e1","KY2011_e1_3","MAXIMUM",1,1,3676,"Include",211
"KY2011_e1","KY2011_e1_3","OXIDATION",1,6,1333,"Include",212
"KY2011_e1","KY2011_e1_3","INTERVALS",1,6,1292,"Include",213
"KY2011_e1","KY2011_e1_3","ATOM",0,1,1792,"Include",214
"KY2011_e1","KY2011_e1_3","MUSEUM",0,5,3494,"Include",215
"KY2011_e1","KY2011_e1_3","SEWAGE",1,6,899,"Include",216
"KY2011_e1","KY2011_e1_3","LUXURY",0,2,6078,"Include",217
"KY2011_e1","KY2011_e1_3","EXCUSE",0,3,2908,"Include",218
"KY2011_e1","KY2011_e1_3","MUSTARD",0,1,1508,"Include",219
"KY2011_e1","KY2011_e1_3","TRIBUTE",0,5,3970,"Include",220
"KY2011_e1","KY2011_e1_3","LAUGHTER",1,4,3874,"Include",221
"KY2011_e1","KY2011_e1_3","ALLIANCE",1,6,1853,"Include",222
"KY2011_e1","KY2011_e1_3","SONG",0,1,2246,"Include",223
"KY2011_e1","KY2011_e1_3","SAVINGS",0,2,1739,"Include",224
"KY2011_e1","KY2011_e1_3","ARCHITECT",0,5,2106,"Include",225
"KY2011_e1","KY2011_e1_3","BLUES",1,6,1295,"Include",226
"KY2011_e1","KY2011_e1_3","ATTORNEY",1,2,3135,"Include",227
"KY2011_e1","KY2011_e1_3","HUMANITY",1,6,1196,"Include",228
"KY2011_e1","KY2011_e1_3","PLENTY",1,6,1766,"Include",229
"KY2011_e1","KY2011_e1_3","DARKNESS",1,6,1118,"Include",230
"KY2011_e1","KY2011_e1_3","HABIT",0,3,2210,"Include",231
"KY2011_e1","KY2011_e1_3","GENIUS",0,5,2005,"Include",232
"KY2011_e1","KY2011_e1_3","PITCHER",1,6,1780,"Include",233
"KY2011_e1","KY2011_e1_3","TSUNAMI",1,6,1149,"Include",234
"KY2011_e1","KY2011_e1_3","MASON",0,1,2616,"Include",235
"KY2011_e1","KY2011_e1_3","RELIEF",1,2,1828,"Include",236
"KY2011_e1","KY2011_e1_3","FLESH",0,1,1957,"Include",237
"KY2011_e1","KY2011_e1_3","PATIENCE",1,6,1433,"Include",238
"KY2011_e1","KY2011_e1_3","FOREST",1,6,1130,"Include",239
"KY2011_e1","KY2011_e1_3","AWARENESS",1,6,1214,"Include",240
"KY2011_e1","KY2011_e1_3","PATH",1,1,1987,"Include",241
"KY2011_e1","KY2011_e1_3","MAYOR",1,6,2803,"Include",242
"KY2011_e1","KY2011_e1_3","SOUL",1,6,1087,"Include",243
"KY2011_e1","KY2011_e1_3","COMPOSER",1,6,1803,"Include",244
"KY2011_e1","KY2011_e1_3","GOLF",0,2,2281,"Include",245
"KY2011_e1","KY2011_e1_3","CITIZEN",1,4,1670,"Include",246
"KY2011_e1","KY2011_e1_3","INVENTORY",0,4,2137,"Include",247
"KY2011_e1","KY2011_e1_3","SOLUTION",0,2,5184,"Include",248
"KY2011_e1","KY2011_e1_3","SPITE",1,1,3328,"Include",249
"KY2011_e1","KY2011_e1_3","ASTRONOMY",1,6,1503,"Include",250
"KY2011_e1","KY2011_e1_3","PEAS",1,6,1113,"Include",251
"KY2011_e1","KY2011_e1_3","FIRMS",0,1,2864,"Include",252
"KY2011_e1","KY2011_e1_3","FOLKLORE",0,1,1716,"Include",253
"KY2011_e1","KY2011_e1_3","GRAIN",1,6,1161,"Include",254
"KY2011_e1","KY2011_e1_3","RECORDS",1,6,1287,"Include",255
"KY2011_e1","KY2011_e1_3","INSIGHT",0,4,2224,"Include",256
"KY2011_e1","KY2011_e1_3","PORCH",1,6,1441,"Include",257
"KY2011_e1","KY2011_e1_3","STORAGE",0,6,922,"Include",258
"KY2011_e1","KY2011_e1_3","INJURY",0,3,2798,"Include",259
"KY2011_e1","KY2011_e1_3","SOCIETIES",0,6,1331,"Include",260
"KY2011_e1","KY2011_e1_3","GUEST",1,6,1224,"Include",261
"KY2011_e1","KY2011_e1_3","CERTAINTY",1,2,3042,"Include",262
"KY2011_e1","KY2011_e1_3","NECESSITY",0,2,3183,"Include",263
"KY2011_e1","KY2011_e1_3","DEMOCRACY",0,4,2630,"Include",264
"KY2011_e1","KY2011_e1_3","VICE",1,6,1275,"Include",265
"KY2011_e1","KY2011_e1_3","FIBER",1,6,1693,"Include",266
"KY2011_e1","KY2011_e1_3","ACADEMY",1,6,942,"Include",267
"KY2011_e1","KY2011_e1_3","PLATFORM",0,3,2470,"Include",268
"KY2011_e1","KY2011_e1_3","STAIRS",0,6,1258,"Include",269
"KY2011_e1","KY2011_e1_3","SUITCASE",0,1,2836,"Include",270
"KY2011_e1","KY2011_e1_3","PROSPECT",0,2,1653,"Include",271
"KY2011_e1","KY2011_e1_3","JOURNAL",1,6,999,"Include",272
"KY2011_e1","KY2011_e1_3","DEALER",1,4,8579,"Include",273
"KY2011_e1","KY2011_e1_3","TREASURY",1,1,4166,"Include",274
"KY2011_e1","KY2011_e1_3","SUSPECT",1,2,4924,"Include",275
"KY2011_e1","KY2011_e1_3","TONGUE",1,6,1643,"Include",276
"KY2011_e1","KY2011_e1_3","LEAGUE",1,6,1857,"Include",277
"KY2011_e1","KY2011_e1_3","CURIOSITY",1,6,1174,"Include",278
"KY2011_e1","KY2011_e1_3","KITCHEN",1,6,1355,"Include",279
"KY2011_e1","KY2011_e1_3","TREND",1,6,3652,"Include",280
"KY2011_e1","KY2011_e1_3","COCKTAIL",0,1,1604,"Include",281
"KY2011_e1","KY2011_e1_3","ASSEMBLY",1,2,1926,"Include",282
"KY2011_e1","KY2011_e1_3","PANEL",0,4,2353,"Include",283
"KY2011_e1","KY2011_e1_3","SUCCESS",1,5,4654,"Include",284
"KY2011_e1","KY2011_e1_3","HEIGHT",0,1,1372,"Include",285
"KY2011_e1","KY2011_e1_3","REFERENCE",1,4,2981,"Include",286
"KY2011_e1","KY2011_e1_3","PIKE",1,1,3072,"Include",287
"KY2011_e1","KY2011_e1_3","MAID",1,6,1207,"Include",288
"KY2011_e1","KY2011_e1_3","TISSUE",0,1,2776,"Include",289
"KY2011_e1","KY2011_e1_3","NERVES",1,6,1422,"Include",290
"KY2011_e1","KY2011_e1_3","BEARD",1,6,1299,"Include",291
"KY2011_e1","KY2011_e1_3","BEHALF",0,1,1369,"Include",292
"KY2011_e1","KY2011_e1_3","HEARTS",1,6,1298,"Include",293
"KY2011_e1","KY2011_e1_3","ARTICLE",1,6,1190,"Include",294
"KY2011_e1","KY2011_e1_3","CULTURE",1,6,1077,"Include",295
"KY2011_e1","KY2011_e1_3","PUPIL",1,6,990,"Include",296
"KY2011_e1","KY2011_e1_3","PUBLICITY",0,1,2381,"Include",297
"KY2011_e1","KY2011_e1_3","CONCERT",0,2,2312,"Include",298
"KY2011_e1","KY2011_e1_3","THOUGHTS",0,2,1596,"Include",299
"KY2011_e1","KY2011_e1_3","STRATEGY",1,4,2298,"Include",300
"KY2011_e1","KY2011_e1_3","EXPOSURE",1,2,4811,"Include",301
"KY2011_e1","KY2011_e1_3","JURY",1,6,3619,"Include",302
"KY2011_e1","KY2011_e1_3","FINDINGS",0,2,2047,"Include",303
"KY2011_e1","KY2011_e1_3","WEALTH",0,1,5027,"Include",304
"KY2011_e1","KY2011_e1_3","AUTHORITY",0,4,3365,"Include",305
"KY2011_e1","KY2011_e1_3","BEINGS",1,6,1494,"Include",306
"KY2011_e1","KY2011_e1_3","THICKNESS",0,3,2314,"Include",307
"KY2011_e1","KY2011_e1_3","VALLEY",0,1,1358,"Include",308
"KY2011_e1","KY2011_e1_3","THOUSANDS",0,1,1716,"Include",309
"KY2011_e1","KY2011_e1_3","BAKER",0,5,2423,"Include",310
"KY2011_e1","KY2011_e1_3","UNCLE",1,5,1727,"Include",311
"KY2011_e1","KY2011_e1_3","ABSENCE",0,2,1703,"Include",312
"KY2011_e1","KY2011_e1_3","BRAIN",0,1,2242,"Include",313
"KY2011_e1","KY2011_e1_3","COMMERCE",0,3,2295,"Include",314
"KY2011_e1","KY2011_e1_3","GIFT",0,5,1750,"Include",315
"KY2011_e1","KY2011_e1_3","TERROR",0,2,2119,"Include",316
"KY2011_e1","KY2011_e1_3","HOSPITALS",1,6,1139,"Include",317
"KY2011_e1","KY2011_e1_3","COMPANIES",0,1,3244,"Include",318
"KY2011_e1","KY2011_e1_3","MOVIE",0,2,1258,"Include",319
"KY2011_e1","KY2011_e1_3","FEES",0,2,2526,"Include",320
"KY2011_e1","KY2011_e1_3","CONSUMER",0,3,2743,"Include",321
"KY2011_e1","KY2011_e1_3","MEDICINE",0,1,1565,"Include",322
"KY2011_e1","KY2011_e1_3","FRUIT",0,1,2326,"Include",323
"KY2011_e1","KY2011_e1_3","WINE",0,1,1334,"Include",324
"KY2011_e1","KY2011_e1_3","POEM",0,4,3030,"Include",325
"KY2011_e1","KY2011_e1_3","THROAT",0,4,3121,"Include",326
"KY2011_e1","KY2011_e1_3","MIXTURE",1,6,1914,"Include",327
"KY2011_e1","KY2011_e1_3","REDUCTION",1,4,3315,"Include",328
"KY2011_e1","KY2011_e1_3","SYMPATHY",1,5,2979,"Include",329
"KY2011_e1","KY2011_e1_3","ENERGY",1,6,1119,"Include",330
"KY2011_e1","KY2011_e1_3","VOTERS",0,5,1838,"Include",331
"KY2011_e1","KY2011_e1_3","DRAMA",0,1,2505,"Include",332
"KY2011_e1","KY2011_e1_3","SENTIMENT",1,2,2641,"Include",333
"KY2011_e1","KY2011_e1_3","PARENTS",1,1,3267,"Include",334
"KY2011_e1","KY2011_e1_3","DIRT",1,6,5772,"Include",335
"KY2011_e1","KY2011_e1_3","VISITORS",1,6,1120,"Include",336
"KY2011_e1","KY2011_e1_3","LIBERTY",0,5,2001,"Include",337
"KY2011_e1","KY2011_e1_3","RESPONSE",1,2,5398,"Include",338
"KY2011_e1","KY2011_e1_3","DUTY",1,6,5115,"Include",339
"KY2011_e1","KY2011_e1_3","MEAT",0,2,1578,"Include",340
"KY2011_e1","KY2011_e1_3","WARMTH",0,1,1324,"Include",341
"KY2011_e1","KY2011_e1_3","BIRD",0,4,2024,"Include",342
"KY2011_e1","KY2011_e1_3","DECADE",0,2,3751,"Include",343
"KY2011_e1","KY2011_e1_3","TENT",0,3,2159,"Include",344
"KY2011_e1","KY2011_e1_3","CABIN",1,6,1397,"Include",345
"KY2011_e1","KY2011_e1_3","LOTS",0,6,1432,"Include",346
"KY2011_e1","KY2011_e1_3","VIOLENCE",0,4,2932,"Include",347
"KY2011_e1","KY2011_e1_3","CHILDHOOD",1,2,1833,"Include",348
"KY2011_e1","KY2011_e1_3","MACHINERY",1,6,1151,"Include",349
"KY2011_e1","KY2011_e1_3","MARBLE",0,1,1903,"Include",350
"KY2011_e1","KY2011_e1_3","BUREAU",1,6,1098,"Include",351
"KY2011_e1","KY2011_e1_3","IMITATION",0,2,2299,"Include",352
"KY2011_e1","KY2011_e1_3","ERRORS",0,6,1559,"Include",353
"KY2011_e1","KY2011_e1_3","CORN",0,1,1511,"Include",354
"KY2011_e1","KY2011_e1_3","CANCER",0,2,1121,"Include",355
"KY2011_e1","KY2011_e1_3","SENATOR",1,6,982,"Include",356
"KY2011_e1","KY2011_e1_3","ACRES",1,6,1141,"Include",357
"KY2011_e1","KY2011_e1_3","GIANTS",1,6,967,"Include",358
"KY2011_e1","KY2011_e1_3","FREQUENCY",1,2,1985,"Include",359
"KY2011_e1","KY2011_e1_3","ELECTRON",0,1,1942,"Include",360
"KY2011_e1","KY2011_e1_3","CREATION",0,1,3586,"Include",361
"KY2011_e1","KY2011_e1_3","ORIGIN",1,2,1511,"Include",362
"KY2011_e1","KY2011_e1_3","PROPOSAL",0,4,1753,"Include",363
"KY2011_e1","KY2011_e1_3","PARTICLE",1,6,1543,"Include",364
"KY2011_e1","KY2011_e1_3","MEAL",1,2,2201,"Include",365
"KY2011_e1","KY2011_e1_3","EQUATION",1,6,1261,"Include",366
"KY2011_e1","KY2011_e1_3","AUTO",1,6,3058,"Include",367
"KY2011_e1","KY2011_e1_3","CHEEK",1,6,728,"Include",368
"KY2011_e1","KY2011_e1_3","HIGHWAY",0,1,2060,"Include",369
"KY2011_e1","KY2011_e1_3","TREE",1,6,999,"Include",370
"KY2011_e1","KY2011_e1_3","EVENT",1,2,2891,"Include",371
"KY2011_e1","KY2011_e1_3","MOMENTS",0,3,2812,"Include",372
"KY2011_e1","KY2011_e1_3","SUBSTANCE",0,6,1207,"Include",373
"KY2011_e1","KY2011_e1_3","TRACTOR",1,6,1095,"Include",374
"KY2011_e1","KY2011_e1_3","THEME",1,2,8514,"Include",375
"KY2011_e1","KY2011_e1_3","LUNCHEON",1,6,1270,"Include",376
"KY2011_e1","KY2011_e1_3","DIGNITY",0,4,1948,"Include",377
"KY2011_e1","KY2011_e1_3","ROADS",0,6,2601,"Include",378
"KY2011_e1","KY2011_e1_3","LADY",1,6,1189,"Include",379
"KY2011_e1","KY2011_e1_3","DANCER",1,6,1377,"Include",380
"KY2011_e1","KY2011_e1_3","DINNER",1,3,2444,"Include",381
"KY2011_e1","KY2011_e1_3","HAPPINESS",0,1,1182,"Include",382
"KY2011_e1","KY2011_e1_3","CELL",0,1,3106,"Include",383
"KY2011_e1","KY2011_e1_3","ELECTION",1,5,2156,"Include",384
"KY2011_e1","KY2011_e1_3","ATTITUDES",0,2,2569,"Include",385
"KY2011_e1","KY2011_e1_3","VARIETY",0,1,2410,"Include",386
"KY2011_e1","KY2011_e1_3","INSURANCE",0,1,1845,"Include",387
"KY2011_e1","KY2011_e1_3","LAWYER",0,6,1686,"Include",388
"KY2011_e1","KY2011_e1_3","APPROVAL",0,4,2358,"Include",389
"KY2011_e1","KY2011_e1_3","ISLANDS",0,1,1140,"Include",390
"KY2011_e1","KY2011_e1_3","BULLET",0,2,1636,"Include",391
"KY2011_e1","KY2011_e1_3","BREATH",0,2,2072,"Include",392
"KY2011_e1","KY2011_e1_3","SPECIMEN",0,1,1146,"Include",393
"KY2011_e1","KY2011_e1_3","TENDENCY",1,4,2136,"Include",394
"KY2011_e1","KY2011_e1_3","CHAPTER",0,1,1303,"Include",395
"KY2011_e1","KY2011_e1_3","CLOCK",1,6,1253,"Include",396
"KY2011_e1","KY2011_e1_3","TRAGEDY",1,6,1515,"Include",397
"KY2011_e1","KY2011_e1_3","PENNY",0,1,1175,"Include",398
"KY2011_e1","KY2011_e1_3","ENJOYMENT",0,2,3403,"Include",399
"KY2011_e1","KY2011_e1_3","TASKS",0,1,2478,"Include",400
"KY2011_e1","KY2011_e1_3","FAILURE",1,4,1516,"Include",401
"KY2011_e1","KY2011_e1_3","ADDRESS",1,1,1095,"Include",402
"KY2011_e1","KY2011_e1_3","MARTEN",0,1,1597,"Include",403
"KY2011_e1","KY2011_e1_3","PRODUCT",0,2,1587,"Include",404
"KY2011_e1","KY2011_e1_3","RATIO",0,3,2032,"Include",405
"KY2011_e1","KY2011_e1_3","CRISIS",0,2,1500,"Include",406
"KY2011_e1","KY2011_e1_3","EXPENSE",0,2,3627,"Include",407
"KY2011_e1","KY2011_e1_3","SCOPE",0,3,6223,"Include",408
"KY2011_e1","KY2011_e1_3","BEDROOM",1,4,2457,"Include",409
"KY2011_e1","KY2011_e1_3","WALLS",0,6,5930,"Include",410
"KY2011_e1","KY2011_e1_3","KINDS",0,1,2165,"Include",411
"KY2011_e1","KY2011_e1_3","LANGUAGES",1,3,4619,"Include",412
"KY2011_e1","KY2011_e1_3","READER",1,6,3043,"Include",413
"KY2011_e1","KY2011_e1_3","MOTIVE",1,4,2334,"Include",414
"KY2011_e1","KY2011_e1_3","MILLS",0,5,2596,"Include",415
"KY2011_e1","KY2011_e1_3","PATTERNS",0,4,5890,"Include",416
"KY2011_e1","KY2011_e1_3","CRYSTAL",0,1,1425,"Include",417
"KY2011_e1","KY2011_e1_3","PACKAGE",0,3,2616,"Include",418
"KY2011_e1","KY2011_e1_3","DEVIL",0,3,1111,"Include",419
"KY2011_e1","KY2011_e1_3","DISCOVERY",1,6,2044,"Include",420
"KY2011_e1","KY2011_e1_3","RELATION",1,5,1458,"Include",421
"KY2011_e1","KY2011_e1_3","WINDOWS",1,6,985,"Include",422
"KY2011_e1","KY2011_e1_3","YARD",0,2,1521,"Include",423
"KY2011_e1","KY2011_e1_3","WORKER",1,6,1333,"Include",424
"KY2011_e1","KY2011_e1_3","PRECISION",0,1,2178,"Include",425
"KY2011_e1","KY2011_e1_3","DOZEN",1,1,1672,"Include",426
"KY2011_e1","KY2011_e1_3","TERRITORY",1,6,1114,"Include",427
"KY2011_e1","KY2011_e1_3","MEDIUM",1,6,1100,"Include",428
"KY2011_e1","KY2011_e1_3","FLUX",1,6,1035,"Include",429
"KY2011_e1","KY2011_e1_3","CEILING",1,6,912,"Include",430
"KY2011_e1","KY2011_e1_3","ADULTS",1,6,858,"Include",431
"KY2011_e1","KY2011_e1_3","COMEDY",0,4,2202,"Include",432
"KY2011_e1","KY2011_e1_3","PERSONNEL",1,3,1662,"Include",433
"KY2011_e1","KY2011_e1_3","DETECTIVE",1,6,1812,"Include",434
"KY2011_e1","KY2011_e1_3","PIANO",1,6,849,"Include",435
"KY2011_e1","KY2011_e1_3","CLERK",0,2,2961,"Include",436
"KY2011_e1","KY2011_e1_3","COLONY",1,3,3651,"Include",437
"KY2011_e1","KY2011_e1_3","MILE",1,6,1197,"Include",438
"KY2011_e1","KY2011_e1_3","TOWNS",0,4,3785,"Include",439
"KY2011_e1","KY2011_e1_3","VARIABLES",1,6,1987,"Include",440
"KY2011_e1","KY2011_e1_3","RECEPTION",0,2,3937,"Include",441
"KY2011_e1","KY2011_e1_3","OBJECT",0,1,1398,"Include",442
"KY2011_e1","KY2011_e1_3","INCIDENT",0,3,1806,"Include",443
"KY2011_e1","KY2011_e1_3","DISEASE",0,5,1503,"Include",444
"KY2011_e1","KY2011_e1_3","BASEMENT",1,5,1760,"Include",445
"KY2011_e1","KY2011_e1_3","ENEMY",0,4,2152,"Include",446
"KY2011_e1","KY2011_e1_3","ACCIDENT",1,2,2283,"Include",447
"KY2011_e1","KY2011_e1_3","MELODY",0,4,3742,"Include",448
"KY2011_e1","KY2011_e1_3","SUBMARINE",0,1,1165,"Include",449
"KY2011_e1","KY2011_e1_3","RADIATION",0,1,1059,"Include",450
"KY2011_e1","KY2011_e1_3","AVENUE",1,1,1918,"Include",451
"KY2011_e1","KY2011_e1_3","AGENT",0,1,1098,"Include",452
"KY2011_e1","KY2011_e1_3","FIST",0,1,1878,"Include",453
"KY2011_e1","KY2011_e1_3","NOTION",0,1,1647,"Include",454
"KY2011_e1","KY2011_e1_3","LEATHER",1,6,1331,"Include",455
"KY2011_e1","KY2011_e1_3","UTILITY",1,6,3007,"Include",456
"KY2011_e1","KY2011_e1_3","GOODS",0,2,3480,"Include",457
"KY2011_e1","KY2011_e1_3","TUBE",1,6,1294,"Include",458
"KY2011_e1","KY2011_e1_3","CLIMATE",1,5,3663,"Include",459
"KY2011_e1","KY2011_e1_3","SERGEANT",0,1,1641,"Include",460
"KY2011_e1","KY2011_e1_3","SUPREME",1,2,2019,"Include",461
"KY2011_e1","KY2011_e1_3","CHEST",1,6,2579,"Include",462
"KY2011_e1","KY2011_e1_3","GLORY",1,6,1364,"Include",463
"KY2011_e1","KY2011_e1_3","SHEEP",0,1,2221,"Include",464
"KY2011_e1","KY2011_e1_3","CARD",1,6,1343,"Include",465
"KY2011_e1","KY2011_e1_3","LANE",1,6,1242,"Include",466
"KY2011_e1","KY2011_e1_3","MECHANISM",0,6,1166,"Include",467
"KY2011_e1","KY2011_e1_3","STYLE",0,1,1660,"Include",468
"KY2011_e1","KY2011_e1_3","INSECTS",1,6,2055,"Include",469
"KY2011_e1","KY2011_e1_3","DOORS",1,6,1219,"Include",470
"KY2011_e1","KY2011_e1_3","RHYTHM",0,3,2046,"Include",471
"KY2011_e1","KY2011_e1_3","FESTIVAL",1,6,2524,"Include",472
"KY2011_e1","KY2011_e1_3","PLANET",0,2,1801,"Include",473
"KY2011_e1","KY2011_e1_3","MUSICIAN",1,5,1495,"Include",474
"KY2011_e1","KY2011_e1_3","COMBAT",1,6,1588,"Include",475
"KY2011_e1","KY2011_e1_3","NOISE",1,5,6230,"Include",476
"KY2011_e1","KY2011_e1_3","PROVISION",0,1,3876,"Include",477
"KY2011_e1","KY2011_e1_3","REPORTER",1,6,3307,"Include",478
"KY2011_e1","KY2011_e1_3","DISASTER",1,6,2268,"Include",479
"KY2011_e1","KY2011_e1_3","HATRED",0,1,6128,"Include",480
"KY2011_e1","KY2011_e1_3","CATTLE",0,2,5570,"Include",481
"KY2011_e1","KY2011_e1_3","OWNER",0,1,2600,"Include",482
"KY2011_e1","KY2011_e1_3","BATH",1,2,1630,"Include",483
"KY2011_e1","KY2011_e1_3","SEQUENCE",0,2,1688,"Include",484
"KY2011_e1","KY2011_e1_3","VERSE",0,2,2480,"Include",485
"KY2011_e1","KY2011_e1_3","FACTS",0,1,1329,"Include",486
"KY2011_e1","KY2011_e1_3","OPINION",1,3,1210,"Include",487
"KY2011_e1","KY2011_e1_3","CAMPUS",0,2,1551,"Include",488
"KY2011_e1","KY2011_e1_3","IMPULSE",1,3,4938,"Include",489
"KY2011_e1","KY2011_e1_3","DESK",0,4,3628,"Include",490
"KY2011_e1","KY2011_e1_3","LAKE",0,3,2197,"Include",491
"KY2011_e1","KY2011_e1_3","MYSTERY",1,2,3644,"Include",492
"KY2011_e1","KY2011_e1_3","AIRCRAFT",1,6,1544,"Include",493
"KY2011_e1","KY2011_e1_3","HARMONY",1,4,1911,"Include",494
"KY2011_e1","KY2011_e1_3","MYTH",0,2,2845,"Include",495
"KY2011_e1","KY2011_e1_3","NIGHTS",1,6,2157,"Include",496
"KY2011_e1","KY2011_e1_3","DIFFUSION",1,6,1012,"Include",497
"KY2011_e1","KY2011_e1_3","NEIGHBORS",1,6,990,"Include",498
"KY2011_e1","KY2011_e1_3","SYMBOL",1,6,1266,"Include",499
"KY2011_e1","KY2011_e1_3","HILL",1,6,1039,"Include",500
"KY2011_e1","KY2011_e1_3","ASPECT",1,1,1895,"Include",501
"KY2011_e1","KY2011_e1_3","ECONOMY",0,1,1208,"Include",502
"KY2011_e1","KY2011_e1_3","ILLUSION",1,6,1103,"Include",503
"KY2011_e1","KY2011_e1_3","NOON",0,5,2526,"Include",504
"KY2011_e1","KY2011_e1_3","CONTRAST",1,4,2243,"Include",505
"KY2011_e1","KY2011_e1_3","VICTORY",0,5,1321,"Include",506
"KY2011_e1","KY2011_e1_3","OPERATOR",1,6,1022,"Include",507
"KY2011_e1","KY2011_e1_3","MOVEMENTS",0,2,1607,"Include",508
"KY2011_e1","KY2011_e1_3","ACTIONS",1,3,1443,"Include",509
"KY2011_e1","KY2011_e1_3","EDITION",1,2,1792,"Include",510
"KY2011_e1","KY2011_e1_3","SHIRT",0,1,2762,"Include",511
"KY2011_e1","KY2011_e1_3","INTENSITY",0,4,1762,"Include",512
"KY2011_e1","KY2011_e1_3","HOTELS",0,5,1557,"Include",513
"KY2011_e1","KY2011_e1_3","REVEREND",1,6,1328,"Include",514
"KY2011_e1","KY2011_e1_3","SERVANTS",0,2,1763,"Include",515
"KY2011_e1","KY2011_e1_3","BENCH",0,1,1146,"Include",516
"KY2011_e1","KY2011_e1_3","FLIGHT",1,4,3335,"Include",517
"KY2011_e1","KY2011_e1_3","ONSET",1,6,1091,"Include",518
"KY2011_e1","KY2011_e1_3","RECOVERY",1,5,1386,"Include",519
"KY2011_e1","KY2011_e1_3","DISK",1,6,1070,"Include",520
"KY2011_e1","KY2011_e1_3","DECISIONS",0,2,3303,"Include",521
"KY2011_e1","KY2011_e1_3","FORMATION",1,1,2128,"Include",522
"KY2011_e1","KY2011_e1_3","BLANKET",0,1,4655,"Include",523
"KY2011_e1","KY2011_e1_3","SKILLS",0,3,4406,"Include",524
"KY2011_e1","KY2011_e1_3","DEAN",1,6,1650,"Include",525
"KY2011_e1","KY2011_e1_3","REALISM",0,1,2162,"Include",526
"KY2011_e1","KY2011_e1_3","CRIME",1,4,2257,"Include",527
"KY2011_e1","KY2011_e1_3","MARSHALL",1,6,1349,"Include",528
"KY2011_e1","KY2011_e1_3","EXAMPLES",1,6,3854,"Include",529
"KY2011_e1","KY2011_e1_3","EXCEPTION",0,4,1917,"Include",530
"KY2011_e1","KY2011_e1_3","DAUGHTER",1,6,1413,"Include",531
"KY2011_e1","KY2011_e1_3","PAINTER",1,6,1183,"Include",532
"KY2011_e1","KY2011_e1_3","MATURITY",0,3,1670,"Include",533
"KY2011_e1","KY2011_e1_3","GUILT",1,5,1908,"Include",534
"KY2011_e1","KY2011_e1_3","KILLER",1,6,1079,"Include",535
"KY2011_e1","KY2011_e1_3","REFUND",0,1,1670,"Include",536
"KY2011_e1","KY2011_e1_3","GENTLEMAN",0,2,5166,"Include",537
"KY2011_e1","KY2011_e1_3","VILLAGE",0,6,1350,"Include",538
"KY2011_e1","KY2011_e1_3","AUNT",0,1,1572,"Include",539
"KY2011_e1","KY2011_e1_3","EARS",0,1,2649,"Include",540
"KY2011_e1","KY2011_e1_3","LOCATION",0,2,1931,"Include",541
"KY2011_e1","KY2011_e1_3","VERSION",0,4,1728,"Include",542
"KY2011_e1","KY2011_e1_3","LUCK",0,1,1941,"Include",543
"KY2011_e1","KY2011_e1_3","MAJORITY",0,1,5812,"Include",544
"KY2011_e1","KY2011_e1_3","RANCH",1,5,1399,"Include",545
"KY2011_e1","KY2011_e1_3","PROFESSOR",1,6,1631,"Include",546
"KY2011_e1","KY2011_e1_3","JAZZ",1,6,724,"Include",547
"KY2011_e1","KY2011_e1_3","WAGON",0,1,1574,"Include",548
"KY2011_e1","KY2011_e1_3","SUPPER",1,6,962,"Include",549
"KY2011_e1","KY2011_e1_3","FARMER",1,6,1538,"Include",550
"KY2011_e1","KY2011_e1_3","PERIODS",0,2,1978,"Include",551
"KY2011_e1","KY2011_e1_3","FEELINGS",1,1,1553,"Include",552
"KY2011_e1","KY2011_e1_3","BUILDER",0,4,1520,"Include",553
"KY2011_e1","KY2011_e1_3","QUANTITY",1,3,1361,"Include",554
"KY2011_e1","KY2011_e1_3","METAL",0,3,965,"Include",555
"KY2011_e1","KY2011_e1_3","REMOVAL",0,2,2048,"Include",556
"KY2011_e1","KY2011_e1_3","APPARATUS",0,1,1588,"Include",557
"KY2011_e1","KY2011_e1_3","PATHOLOGY",0,1,922,"Include",558
"KY2011_e1","KY2011_e1_3","ROLES",1,4,1395,"Include",559
"KY2011_e1","KY2011_e1_3","CHAMBER",1,6,1302,"Include",560
"KY2011_e1","KY2011_e1_3","STATUS",1,5,1378,"Include",561
"KY2011_e1","KY2011_e1_3","BELT",0,2,1541,"Include",562
"KY2011_e1","KY2011_e1_3","REGION",1,6,1240,"Include",563
"KY2011_e1","KY2011_e1_3","TECHNIQUE",0,1,1365,"Include",564
"KY2011_e1","KY2011_e1_3","STREETS",0,6,2337,"Include",565
"KY2011_e1","KY2011_e1_3","NOVEL",1,6,1020,"Include",566
"KY2011_e1","KY2011_e1_3","DOLLAR",1,6,1073,"Include",567
"KY2011_e1","KY2011_e1_3","PHYSICS",1,6,2364,"Include",568
"KY2011_e1","KY2011_e1_3","CUSTOMER",0,2,2189,"Include",569
"KY2011_e1","KY2011_e1_3","CAPACITY",0,2,3192,"Include",570
"KY2011_e1","KY2011_e1_3","EXPANSION",1,2,1580,"Include",571
"KY2011_e1","KY2011_e1_3","ANODE",0,1,1297,"Include",572
"KY2011_e1","KY2011_e1_3","FATE",1,6,1188,"Include",573
"KY2011_e1","KY2011_e1_3","NUTS",0,1,1410,"Include",574
"KY2011_e1","KY2011_e1_3","VICTIM",1,4,1644,"Include",575
"KY2011_e1","KY2011_e1_3","FABRICS",0,1,4600,"Include",576
"KY2011_e1","KY2011_e1_3","MEETINGS",1,4,1537,"Include",577
"KY2011_e1","KY2011_e1_3","MERCER",1,2,2240,"Include",578
"KY2011_e1","KY2011_e1_3","CAMERA",0,1,991,"Include",579
"KY2011_e1","KY2011_e1_3","FICTION",1,6,1626,"Include",580
"KY2011_e1","KY2011_e1_3","SURVIVAL",1,5,1883,"Include",581
"KY2011_e1","KY2011_e1_3","TONS",1,6,1069,"Include",582
"KY2011_e1","KY2011_e1_3","BIRTH",0,3,1971,"Include",583
"KY2011_e1","KY2011_e1_3","FUNERAL",0,6,1907,"Include",584
"KY2011_e1","KY2011_e1_3","POLITICS",1,1,1807,"Include",585
"KY2011_e1","KY2011_e1_3","VIRTUE",0,2,1363,"Include",586
"KY2011_e1","KY2011_e1_3","LISTENERS",1,6,2356,"Include",587
"KY2011_e1","KY2011_e1_3","TRADERS",0,4,2338,"Include",588
"KY2011_e1","KY2011_e1_3","PRESENTS",0,2,3254,"Include",589
"KY2011_e1","KY2011_e1_3","THYROID",1,6,1093,"Include",590
"KY2011_e1","KY2011_e1_3","WEAPON",1,6,1454,"Include",591
"KY2011_e1","KY2011_e1_3","MILLIONS",0,1,1308,"Include",592
"KY2011_e1","KY2011_e1_3","LESSON",0,2,2818,"Include",593
"KY2011_e1","KY2011_e1_3","TRADITION",0,5,2114,"Include",594
"KY2011_e1","KY2011_e1_3","DENSITY",1,1,2265,"Include",595
"KY2011_e1","KY2011_e1_3","MOOD",0,1,1377,"Include",596
"KY2011_e1","KY2011_e1_3","WARREN",1,6,1217,"Include",597
"KY2011_e1","KY2011_e1_3","HERITAGE",0,2,1488,"Include",598
"KY2011_e1","KY2011_e1_3","BREAD",1,5,1641,"Include",599
"KY2011_e1","KY2011_e1_3","JUNIORS",0,1,1318,"Include",600
"KY2011_e1","KY2011_e1_4","MIXTURE",1,6,1191,"Include",1
"KY2011_e1","KY2011_e1_4","PORCH",0,2,1263,"Include",2
"KY2011_e1","KY2011_e1_4","MATURITY",0,2,1256,"Include",3
"KY2011_e1","KY2011_e1_4","EXPENSE",0,2,1237,"Include",4
"KY2011_e1","KY2011_e1_4","COURAGE",1,6,786,"Include",5
"KY2011_e1","KY2011_e1_4","MOVEMENTS",0,4,1673,"Include",6
"KY2011_e1","KY2011_e1_4","DIFFUSION",0,4,1743,"Include",7
"KY2011_e1","KY2011_e1_4","PANEL",0,4,1065,"Include",8
"KY2011_e1","KY2011_e1_4","EXAMPLES",1,6,616,"Include",9
"KY2011_e1","KY2011_e1_4","VISITORS",1,6,709,"Include",10
"KY2011_e1","KY2011_e1_4","BASEBALL",1,6,667,"Include",11
"KY2011_e1","KY2011_e1_4","PRINCE",0,2,2093,"Include",12
"KY2011_e1","KY2011_e1_4","GRAIN",1,6,892,"Include",13
"KY2011_e1","KY2011_e1_4","TOWNS",1,6,951,"Include",14
"KY2011_e1","KY2011_e1_4","RECEPTION",1,6,805,"Include",15
"KY2011_e1","KY2011_e1_4","ARTERY",0,2,2254,"Include",16
"KY2011_e1","KY2011_e1_4","CRITIC",1,2,1205,"Include",17
"KY2011_e1","KY2011_e1_4","RESPONSE",1,3,1727,"Include",18
"KY2011_e1","KY2011_e1_4","MODE",1,6,672,"Include",19
"KY2011_e1","KY2011_e1_4","ARTIST",0,2,2233,"Include",20
"KY2011_e1","KY2011_e1_4","ENTRANCE",1,6,757,"Include",21
"KY2011_e1","KY2011_e1_4","MARSHALL",1,6,644,"Include",22
"KY2011_e1","KY2011_e1_4","TUBE",1,6,604,"Include",23
"KY2011_e1","KY2011_e1_4","SURVIVAL",0,3,1936,"Include",24
"KY2011_e1","KY2011_e1_4","GENIUS",1,6,961,"Include",25
"KY2011_e1","KY2011_e1_4","SPIRITS",1,6,1732,"Include",26
"KY2011_e1","KY2011_e1_4","VEHICLE",0,2,831,"Include",27
"KY2011_e1","KY2011_e1_4","COMMERCE",1,6,848,"Include",28
"KY2011_e1","KY2011_e1_4","METAL",0,2,742,"Include",29
"KY2011_e1","KY2011_e1_4","NOBODY",0,1,990,"Include",30
"KY2011_e1","KY2011_e1_4","MEAL",0,4,2872,"Include",31
"KY2011_e1","KY2011_e1_4","DARKNESS",0,3,1809,"Include",32
"KY2011_e1","KY2011_e1_4","AUNT",0,2,2830,"Include",33
"KY2011_e1","KY2011_e1_4","HILL",1,3,1847,"Include",34
"KY2011_e1","KY2011_e1_4","CRIME",1,6,598,"Include",35
"KY2011_e1","KY2011_e1_4","STUDIO",0,2,839,"Include",36
"KY2011_e1","KY2011_e1_4","CHEEK",0,3,1773,"Include",37
"KY2011_e1","KY2011_e1_4","TREE",1,6,776,"Include",38
"KY2011_e1","KY2011_e1_4","PROTEIN",0,3,2243,"Include",39
"KY2011_e1","KY2011_e1_4","HISTORIAN",1,3,1240,"Include",40
"KY2011_e1","KY2011_e1_4","BREATH",1,6,735,"Include",41
"KY2011_e1","KY2011_e1_4","FEES",1,6,834,"Include",42
"KY2011_e1","KY2011_e1_4","REVENUE",1,6,677,"Include",43
"KY2011_e1","KY2011_e1_4","CAMPUS",1,6,608,"Include",44
"KY2011_e1","KY2011_e1_4","CATTLE",0,3,1291,"Include",45
"KY2011_e1","KY2011_e1_4","MISSION",0,6,1026,"Include",46
"KY2011_e1","KY2011_e1_4","LAWYER",0,1,1357,"Include",47
"KY2011_e1","KY2011_e1_4","OPERATOR",1,6,859,"Include",48
"KY2011_e1","KY2011_e1_4","PRAYER",1,6,683,"Include",49
"KY2011_e1","KY2011_e1_4","GIANTS",1,6,729,"Include",50
"KY2011_e1","KY2011_e1_4","MINORITY",0,2,1278,"Include",51
"KY2011_e1","KY2011_e1_4","TRAGEDY",1,6,726,"Include",52
"KY2011_e1","KY2011_e1_4","PATHOLOGY",0,6,925,"Include",53
"KY2011_e1","KY2011_e1_4","TENSION",1,6,1380,"Include",54
"KY2011_e1","KY2011_e1_4","MISSILE",1,4,1802,"Include",55
"KY2011_e1","KY2011_e1_4","PARTICLE",1,6,1069,"Include",56
"KY2011_e1","KY2011_e1_4","BLANKET",1,6,621,"Include",57
"KY2011_e1","KY2011_e1_4","ENERGY",1,6,748,"Include",58
"KY2011_e1","KY2011_e1_4","COFFEE",1,6,601,"Include",59
"KY2011_e1","KY2011_e1_4","ONSET",1,6,824,"Include",60
"KY2011_e1","KY2011_e1_4","BOAT",1,6,533,"Include",61
"KY2011_e1","KY2011_e1_4","ENGINE",0,2,1811,"Include",62
"KY2011_e1","KY2011_e1_4","LAUGHTER",0,3,1405,"Include",63
"KY2011_e1","KY2011_e1_4","HORIZON",1,6,645,"Include",64
"KY2011_e1","KY2011_e1_4","PORTION",1,6,1061,"Include",65
"KY2011_e1","KY2011_e1_4","TERROR",0,1,1809,"Include",66
"KY2011_e1","KY2011_e1_4","TRAFFIC",0,1,1348,"Include",67
"KY2011_e1","KY2011_e1_4","BULLET",0,2,962,"Include",68
"KY2011_e1","KY2011_e1_4","TESTAMENT",1,6,990,"Include",69
"KY2011_e1","KY2011_e1_4","UTILITY",1,6,715,"Include",70
"KY2011_e1","KY2011_e1_4","SALINE",0,3,2190,"Include",71
"KY2011_e1","KY2011_e1_4","CONDUCTOR",1,6,999,"Include",72
"KY2011_e1","KY2011_e1_4","SKILLS",1,6,690,"Include",73
"KY2011_e1","KY2011_e1_4","MILLER",0,6,867,"Include",74
"KY2011_e1","KY2011_e1_4","DOZEN",1,6,749,"Include",75
"KY2011_e1","KY2011_e1_4","INCIDENT",0,6,1154,"Include",76
"KY2011_e1","KY2011_e1_4","SERGEANT",0,1,1685,"Include",77
"KY2011_e1","KY2011_e1_4","FAMILIES",0,1,1002,"Include",78
"KY2011_e1","KY2011_e1_4","CREATION",1,4,1912,"Include",79
"KY2011_e1","KY2011_e1_4","PERMIT",0,4,1173,"Include",80
"KY2011_e1","KY2011_e1_4","TACTICS",0,2,1576,"Include",81
"KY2011_e1","KY2011_e1_4","ORIGIN",1,6,905,"Include",82
"KY2011_e1","KY2011_e1_4","ENJOYMENT",0,1,1053,"Include",83
"KY2011_e1","KY2011_e1_4","DISCOVERY",0,1,821,"Include",84
"KY2011_e1","KY2011_e1_4","CURIOSITY",0,1,890,"Include",85
"KY2011_e1","KY2011_e1_4","BATH",0,1,821,"Include",86
"KY2011_e1","KY2011_e1_4","SPITE",0,1,723,"Include",87
"KY2011_e1","KY2011_e1_4","GOLF",1,6,806,"Include",88
"KY2011_e1","KY2011_e1_4","CULTURE",0,2,1174,"Include",89
"KY2011_e1","KY2011_e1_4","MOOD",0,2,1609,"Include",90
"KY2011_e1","KY2011_e1_4","WELFARE",1,6,922,"Include",91
"KY2011_e1","KY2011_e1_4","WEALTH",0,1,2157,"Include",92
"KY2011_e1","KY2011_e1_4","TENT",1,6,859,"Include",93
"KY2011_e1","KY2011_e1_4","SUITCASE",0,1,1008,"Include",94
"KY2011_e1","KY2011_e1_4","SHOTS",0,1,1249,"Include",95
"KY2011_e1","KY2011_e1_4","AWARENESS",1,1,749,"Include",96
"KY2011_e1","KY2011_e1_4","CHANDLER",0,2,1913,"Include",97
"KY2011_e1","KY2011_e1_4","SECURITY",0,2,1117,"Include",98
"KY2011_e1","KY2011_e1_4","ENVELOPE",1,6,893,"Include",99
"KY2011_e1","KY2011_e1_4","EQUATION",1,6,676,"Include",100
"KY2011_e1","KY2011_e1_4","JERSEY",1,6,549,"Include",101
"KY2011_e1","KY2011_e1_4","WRITER",1,6,855,"Include",102
"KY2011_e1","KY2011_e1_4","AXIS",1,6,1022,"Include",103
"KY2011_e1","KY2011_e1_4","TRANSFER",0,1,1378,"Include",104
"KY2011_e1","KY2011_e1_4","PLANET",1,6,741,"Include",105
"KY2011_e1","KY2011_e1_4","PATTERNS",0,2,1200,"Include",106
"KY2011_e1","KY2011_e1_4","YOUTH",0,2,852,"Include",107
"KY2011_e1","KY2011_e1_4","RITUAL",0,2,968,"Include",108
"KY2011_e1","KY2011_e1_4","VARIABLES",0,2,922,"Include",109
"KY2011_e1","KY2011_e1_4","CANCER",0,1,2467,"Include",110
"KY2011_e1","KY2011_e1_4","JOURNAL",0,6,1063,"Include",111
"KY2011_e1","KY2011_e1_4","ATTITUDES",0,2,901,"Include",112
"KY2011_e1","KY2011_e1_4","POEM",0,1,1374,"Include",113
"KY2011_e1","KY2011_e1_4","JURY",1,6,876,"Include",114
"KY2011_e1","KY2011_e1_4","NOTION",0,1,890,"Include",115
"KY2011_e1","KY2011_e1_4","TENDENCY",0,1,704,"Include",116
"KY2011_e1","KY2011_e1_4","MYTH",0,1,638,"Include",117
"KY2011_e1","KY2011_e1_4","TREND",1,6,782,"Include",118
"KY2011_e1","KY2011_e1_4","MOMENTS",1,6,1160,"Include",119
"KY2011_e1","KY2011_e1_4","ALLOTMENT",1,1,703,"Include",120
"KY2011_e1","KY2011_e1_4","CHURCHES",1,6,972,"Include",121
"KY2011_e1","KY2011_e1_4","MARTEN",0,1,1187,"Include",122
"KY2011_e1","KY2011_e1_4","EARS",0,1,724,"Include",123
"KY2011_e1","KY2011_e1_4","DECADE",0,1,1437,"Include",124
"KY2011_e1","KY2011_e1_4","TISSUE",1,6,788,"Include",125
"KY2011_e1","KY2011_e1_4","HEARTS",0,1,1223,"Include",126
"KY2011_e1","KY2011_e1_4","SUPPER",0,1,1177,"Include",127
"KY2011_e1","KY2011_e1_4","TEACHER",0,2,1361,"Include",128
"KY2011_e1","KY2011_e1_4","APPARATUS",1,2,1207,"Include",129
"KY2011_e1","KY2011_e1_4","LEAGUE",0,3,1314,"Include",130
"KY2011_e1","KY2011_e1_4","TASKS",1,6,891,"Include",131
"KY2011_e1","KY2011_e1_4","RELATION",1,4,1661,"Include",132
"KY2011_e1","KY2011_e1_4","REVEREND",0,1,1386,"Include",133
"KY2011_e1","KY2011_e1_4","DUTY",1,6,672,"Include",134
"KY2011_e1","KY2011_e1_4","FIST",0,2,1140,"Include",135
"KY2011_e1","KY2011_e1_4","LANE",1,6,1211,"Include",136
"KY2011_e1","KY2011_e1_4","CHAMBER",1,6,941,"Include",137
"KY2011_e1","KY2011_e1_4","CAMERA",1,1,1461,"Include",138
"KY2011_e1","KY2011_e1_4","PATH",1,6,595,"Include",139
"KY2011_e1","KY2011_e1_4","PERCENT",0,2,1133,"Include",140
"KY2011_e1","KY2011_e1_4","HEIGHT",1,6,738,"Include",141
"KY2011_e1","KY2011_e1_4","SECRETS",0,1,928,"Include",142
"KY2011_e1","KY2011_e1_4","GOODS",0,1,894,"Include",143
"KY2011_e1","KY2011_e1_4","MAGNITUDE",1,1,673,"Include",144
"KY2011_e1","KY2011_e1_4","REACTIONS",0,1,1408,"Include",145
"KY2011_e1","KY2011_e1_4","VICE",1,6,1060,"Include",146
"KY2011_e1","KY2011_e1_4","ANIMAL",1,6,533,"Include",147
"KY2011_e1","KY2011_e1_4","OPINION",1,6,733,"Include",148
"KY2011_e1","KY2011_e1_4","BUREAU",1,6,527,"Include",149
"KY2011_e1","KY2011_e1_4","WALLS",1,6,695,"Include",150
"KY2011_e1","KY2011_e1_4","CHILDHOOD",0,1,1013,"Include",151
"KY2011_e1","KY2011_e1_4","DENSITY",1,6,1284,"Include",152
"KY2011_e1","KY2011_e1_4","ADDRESS",0,2,828,"Include",153
"KY2011_e1","KY2011_e1_4","MILLS",1,6,557,"Include",154
"KY2011_e1","KY2011_e1_4","BIRD",1,6,1030,"Include",155
"KY2011_e1","KY2011_e1_4","LUXURY",1,6,754,"Include",156
"KY2011_e1","KY2011_e1_4","ILLUSION",1,6,1086,"Include",157
"KY2011_e1","KY2011_e1_4","HAPPINESS",0,1,798,"Include",158
"KY2011_e1","KY2011_e1_4","FOREST",1,1,978,"Include",159
"KY2011_e1","KY2011_e1_4","SHIRT",0,2,1424,"Include",160
"KY2011_e1","KY2011_e1_4","REPUBLIC",0,2,1509,"Include",161
"KY2011_e1","KY2011_e1_4","BENCH",1,4,1975,"Include",162
"KY2011_e1","KY2011_e1_4","TRADERS",0,3,1150,"Include",163
"KY2011_e1","KY2011_e1_4","VIOLENCE",0,2,1285,"Include",164
"KY2011_e1","KY2011_e1_4","FABRICS",1,6,549,"Include",165
"KY2011_e1","KY2011_e1_4","EXPERT",1,2,1056,"Include",166
"KY2011_e1","KY2011_e1_4","ADMISSION",1,6,1063,"Include",167
"KY2011_e1","KY2011_e1_4","DANGER",1,6,1299,"Include",168
"KY2011_e1","KY2011_e1_4","BLUES",1,6,669,"Include",169
"KY2011_e1","KY2011_e1_4","ILLNESS",0,1,925,"Include",170
"KY2011_e1","KY2011_e1_4","BEHAVIOR",1,6,854,"Include",171
"KY2011_e1","KY2011_e1_4","BEACH",0,3,1994,"Include",172
"KY2011_e1","KY2011_e1_4","PARENTS",0,2,1027,"Include",173
"KY2011_e1","KY2011_e1_4","THICKNESS",0,1,1176,"Include",174
"KY2011_e1","KY2011_e1_4","LISTENERS",0,1,626,"Include",175
"KY2011_e1","KY2011_e1_4","DEAN",1,1,748,"Include",176
"KY2011_e1","KY2011_e1_4","DOORS",1,6,725,"Include",177
"KY2011_e1","KY2011_e1_4","STADIUM",0,1,938,"Include",178
"KY2011_e1","KY2011_e1_4","BELT",1,6,603,"Include",179
"KY2011_e1","KY2011_e1_4","CELL",1,6,500,"Include",180
"KY2011_e1","KY2011_e1_4","VALLEY",0,2,1128,"Include",181
"KY2011_e1","KY2011_e1_4","REALISM",1,6,740,"Include",182
"KY2011_e1","KY2011_e1_4","COMEDY",1,6,611,"Include",183
"KY2011_e1","KY2011_e1_4","PASSAGE",0,6,684,"Include",184
"KY2011_e1","KY2011_e1_4","GUEST",1,1,1289,"Include",185
"KY2011_e1","KY2011_e1_4","MERCHANT",0,2,874,"Include",186
"KY2011_e1","KY2011_e1_4","CLAY",0,2,1700,"Include",187
"KY2011_e1","KY2011_e1_4","SERVANTS",1,6,875,"Include",188
"KY2011_e1","KY2011_e1_4","ANGELS",0,4,1473,"Include",189
"KY2011_e1","KY2011_e1_4","FOOTBALL",0,2,2018,"Include",190
"KY2011_e1","KY2011_e1_4","MARBLE",0,2,1172,"Include",191
"KY2011_e1","KY2011_e1_4","FOLKLORE",0,2,981,"Include",192
"KY2011_e1","KY2011_e1_4","MECHANISM",0,2,857,"Include",193
"KY2011_e1","KY2011_e1_4","MUSTARD",1,6,934,"Include",194
"KY2011_e1","KY2011_e1_4","MEANINGS",1,6,940,"Include",195
"KY2011_e1","KY2011_e1_4","ATOM",0,1,821,"Include",196
"KY2011_e1","KY2011_e1_4","COLONY",1,6,1633,"Include",197
"KY2011_e1","KY2011_e1_4","TRACTOR",0,1,844,"Include",198
"KY2011_e1","KY2011_e1_4","FIBER",1,6,651,"Include",199
"KY2011_e1","KY2011_e1_4","OUTCOME",0,1,846,"Include",200
"KY2011_e1","KY2011_e1_4","NUTS",0,1,1224,"Include",201
"KY2011_e1","KY2011_e1_4","BELIEF",0,1,770,"Include",202
"KY2011_e1","KY2011_e1_4","WORKER",1,6,806,"Include",203
"KY2011_e1","KY2011_e1_4","WINDOWS",1,6,641,"Include",204
"KY2011_e1","KY2011_e1_4","FORMATION",0,2,1242,"Include",205
"KY2011_e1","KY2011_e1_4","MATERIALS",0,2,1048,"Include",206
"KY2011_e1","KY2011_e1_4","CUSTOMER",1,1,743,"Include",207
"KY2011_e1","KY2011_e1_4","LANGUAGES",1,6,1637,"Include",208
"KY2011_e1","KY2011_e1_4","ELECTRON",0,2,945,"Include",209
"KY2011_e1","KY2011_e1_4","REFERENCE",0,2,907,"Include",210
"KY2011_e1","KY2011_e1_4","SUBSTRATE",1,6,1632,"Include",211
"KY2011_e1","KY2011_e1_4","PHENOMENA",0,1,1666,"Include",212
"KY2011_e1","KY2011_e1_4","THEATER",1,6,929,"Include",213
"KY2011_e1","KY2011_e1_4","LAKE",1,6,696,"Include",214
"KY2011_e1","KY2011_e1_4","LOYALTY",1,2,798,"Include",215
"KY2011_e1","KY2011_e1_4","GENTLEMAN",0,2,742,"Include",216
"KY2011_e1","KY2011_e1_4","INTERVALS",1,2,664,"Include",217
"KY2011_e1","KY2011_e1_4","CITIZEN",1,6,615,"Include",218
"KY2011_e1","KY2011_e1_4","BUILDER",0,2,882,"Include",219
"KY2011_e1","KY2011_e1_4","PERIODS",0,1,2301,"Include",220
"KY2011_e1","KY2011_e1_4","RANCH",1,1,706,"Include",221
"KY2011_e1","KY2011_e1_4","STREETS",1,6,885,"Include",222
"KY2011_e1","KY2011_e1_4","COUSIN",0,2,976,"Include",223
"KY2011_e1","KY2011_e1_4","BEDROOM",0,4,2103,"Include",224
"KY2011_e1","KY2011_e1_4","CAPACITY",1,2,1778,"Include",225
"KY2011_e1","KY2011_e1_4","DEMOCRACY",0,1,1944,"Include",226
"KY2011_e1","KY2011_e1_4","APARTMENT",1,1,1027,"Include",227
"KY2011_e1","KY2011_e1_4","EXCEPTION",0,1,672,"Include",228
"KY2011_e1","KY2011_e1_4","MILE",1,1,705,"Include",229
"KY2011_e1","KY2011_e1_4","TREASURY",1,1,1190,"Include",230
"KY2011_e1","KY2011_e1_4","MOTIVE",1,1,1864,"Include",231
"KY2011_e1","KY2011_e1_4","PLENTY",0,1,663,"Include",232
"KY2011_e1","KY2011_e1_4","AMENDMENT",0,1,700,"Include",233
"KY2011_e1","KY2011_e1_4","COMPANIES",0,2,1073,"Include",234
"KY2011_e1","KY2011_e1_4","LENGTHS",1,1,874,"Include",235
"KY2011_e1","KY2011_e1_4","MYSTERY",0,3,2244,"Include",236
"KY2011_e1","KY2011_e1_4","INVENTORY",0,2,979,"Include",237
"KY2011_e1","KY2011_e1_4","SPECIMEN",0,2,558,"Include",238
"KY2011_e1","KY2011_e1_4","EMERGENCY",0,3,1193,"Include",239
"KY2011_e1","KY2011_e1_4","DISK",0,2,838,"Include",240
"KY2011_e1","KY2011_e1_4","SCHOLARS",1,6,1505,"Include",241
"KY2011_e1","KY2011_e1_4","POVERTY",1,6,836,"Include",242
"KY2011_e1","KY2011_e1_4","EDITION",0,6,1161,"Include",243
"KY2011_e1","KY2011_e1_4","MEDIUM",0,2,1137,"Include",244
"KY2011_e1","KY2011_e1_4","SUBMARINE",0,1,1626,"Include",245
"KY2011_e1","KY2011_e1_4","COCKTAIL",0,1,785,"Include",246
"KY2011_e1","KY2011_e1_4","ASPECT",1,1,867,"Include",247
"KY2011_e1","KY2011_e1_4","TECHNIQUE",1,2,1036,"Include",248
"KY2011_e1","KY2011_e1_4","CLIMATE",0,3,1263,"Include",249
"KY2011_e1","KY2011_e1_4","TOOTH",1,6,876,"Include",250
"KY2011_e1","KY2011_e1_4","FUNERAL",0,3,1443,"Include",251
"KY2011_e1","KY2011_e1_4","TEXTILE",0,1,1537,"Include",252
"KY2011_e1","KY2011_e1_4","DIRT",0,1,788,"Include",253
"KY2011_e1","KY2011_e1_4","DISPOSAL",0,1,623,"Include",254
"KY2011_e1","KY2011_e1_4","WEAKNESS",0,1,943,"Include",255
"KY2011_e1","KY2011_e1_4","DECISIONS",1,1,873,"Include",256
"KY2011_e1","KY2011_e1_4","ABSENCE",0,1,620,"Include",257
"KY2011_e1","KY2011_e1_4","NECESSITY",0,1,574,"Include",258
"KY2011_e1","KY2011_e1_4","ADULTS",0,1,635,"Include",259
"KY2011_e1","KY2011_e1_4","VICTIM",0,1,542,"Include",260
"KY2011_e1","KY2011_e1_4","COMMANDER",1,1,561,"Include",261
"KY2011_e1","KY2011_e1_4","PIKE",1,6,943,"Include",262
"KY2011_e1","KY2011_e1_4","GUILT",1,6,1771,"Include",263
"KY2011_e1","KY2011_e1_4","CORN",1,6,587,"Include",264
"KY2011_e1","KY2011_e1_4","CONSUMER",1,6,571,"Include",265
"KY2011_e1","KY2011_e1_4","MINUTE",0,3,1582,"Include",266
"KY2011_e1","KY2011_e1_4","STILE",1,2,1186,"Include",267
"KY2011_e1","KY2011_e1_4","DRIVER",1,1,3489,"Include",268
"KY2011_e1","KY2011_e1_4","BEINGS",0,2,937,"Include",269
"KY2011_e1","KY2011_e1_4","DEVICE",0,2,941,"Include",270
"KY2011_e1","KY2011_e1_4","GOVERNOR",1,1,887,"Include",271
"KY2011_e1","KY2011_e1_4","FLIGHT",1,6,1112,"Include",272
"KY2011_e1","KY2011_e1_4","ACTIONS",0,1,1253,"Include",273
"KY2011_e1","KY2011_e1_4","AIRCRAFT",1,1,682,"Include",274
"KY2011_e1","KY2011_e1_4","FURNITURE",1,1,748,"Include",275
"KY2011_e1","KY2011_e1_4","PAYMENT",0,1,798,"Include",276
"KY2011_e1","KY2011_e1_4","CONCERT",0,1,1245,"Include",277
"KY2011_e1","KY2011_e1_4","CONTENT",0,1,770,"Include",278
"KY2011_e1","KY2011_e1_4","DESTINY",0,6,1279,"Include",279
"KY2011_e1","KY2011_e1_4","ACCIDENT",1,6,1221,"Include",280
"KY2011_e1","KY2011_e1_4","FORMULA",1,6,1894,"Include",281
"KY2011_e1","KY2011_e1_4","TONGUE",0,6,519,"Include",282
"KY2011_e1","KY2011_e1_4","TRIALS",1,4,1592,"Include",283
"KY2011_e1","KY2011_e1_4","INSURANCE",1,4,1616,"Include",284
"KY2011_e1","KY2011_e1_4","STATUS",1,2,1093,"Include",285
"KY2011_e1","KY2011_e1_4","SIDEWALK",1,6,955,"Include",286
"KY2011_e1","KY2011_e1_4","SESSION",1,6,771,"Include",287
"KY2011_e1","KY2011_e1_4","VERSION",0,3,1092,"Include",288
"KY2011_e1","KY2011_e1_4","AFFAIR",0,2,932,"Include",289
"KY2011_e1","KY2011_e1_4","GOAL",1,3,2572,"Include",290
"KY2011_e1","KY2011_e1_4","HUMANITY",1,6,1202,"Include",291
"KY2011_e1","KY2011_e1_4","INTENSITY",0,4,1091,"Include",292
"KY2011_e1","KY2011_e1_4","FACTS",0,3,1765,"Include",293
"KY2011_e1","KY2011_e1_4","CRYSTAL",0,3,2944,"Include",294
"KY2011_e1","KY2011_e1_4","LEATHER",1,6,943,"Include",295
"KY2011_e1","KY2011_e1_4","ISLANDS",0,3,2987,"Include",296
"KY2011_e1","KY2011_e1_4","DOLLAR",1,6,793,"Include",297
"KY2011_e1","KY2011_e1_4","PROMOTION",1,3,1377,"Include",298
"KY2011_e1","KY2011_e1_4","SYMPATHY",0,3,1484,"Include",299
"KY2011_e1","KY2011_e1_4","THEME",0,3,2014,"Include",300
"KY2011_e1","KY2011_e1_4","TEARS",0,3,870,"Include",301
"KY2011_e1","KY2011_e1_4","FRONTIER",1,3,624,"Include",302
"KY2011_e1","KY2011_e1_4","FRACTION",1,6,1321,"Include",303
"KY2011_e1","KY2011_e1_4","WIVES",0,2,1207,"Include",304
"KY2011_e1","KY2011_e1_4","DEVIL",0,2,690,"Include",305
"KY2011_e1","KY2011_e1_4","JUDGMENT",1,3,1652,"Include",306
"KY2011_e1","KY2011_e1_4","LESSON",1,3,937,"Include",307
"KY2011_e1","KY2011_e1_4","SPEAKER",0,3,1203,"Include",308
"KY2011_e1","KY2011_e1_4","CAFE",1,6,1057,"Include",309
"KY2011_e1","KY2011_e1_4","SOCIETIES",1,6,878,"Include",310
"KY2011_e1","KY2011_e1_4","PITCHER",0,3,2156,"Include",311
"KY2011_e1","KY2011_e1_4","PRODUCT",1,6,715,"Include",312
"KY2011_e1","KY2011_e1_4","SUSPECT",1,3,1415,"Include",313
"KY2011_e1","KY2011_e1_4","NERVES",1,2,671,"Include",314
"KY2011_e1","KY2011_e1_4","EVENT",0,6,900,"Include",315
"KY2011_e1","KY2011_e1_4","NOON",0,1,1160,"Include",316
"KY2011_e1","KY2011_e1_4","ENEMY",0,2,905,"Include",317
"KY2011_e1","KY2011_e1_4","TERRITORY",1,3,1798,"Include",318
"KY2011_e1","KY2011_e1_4","PRECISION",0,3,939,"Include",319
"KY2011_e1","KY2011_e1_4","MAYOR",0,2,637,"Include",320
"KY2011_e1","KY2011_e1_4","COMBAT",1,2,676,"Include",321
"KY2011_e1","KY2011_e1_4","AVENUE",1,2,801,"Include",322
"KY2011_e1","KY2011_e1_4","FICTION",1,6,1551,"Include",323
"KY2011_e1","KY2011_e1_4","REALITY",0,6,1172,"Include",324
"KY2011_e1","KY2011_e1_4","HERITAGE",0,1,864,"Include",325
"KY2011_e1","KY2011_e1_4","GUIDANCE",1,1,1178,"Include",326
"KY2011_e1","KY2011_e1_4","OUTLOOK",1,1,591,"Include",327
"KY2011_e1","KY2011_e1_4","DETECTIVE",0,1,727,"Include",328
"KY2011_e1","KY2011_e1_4","ACCURACY",0,2,1409,"Include",329
"KY2011_e1","KY2011_e1_4","JACKET",0,3,1538,"Include",330
"KY2011_e1","KY2011_e1_4","MILLIONS",0,2,1033,"Include",331
"KY2011_e1","KY2011_e1_4","DANCER",1,6,608,"Include",332
"KY2011_e1","KY2011_e1_4","WEEKEND",0,2,781,"Include",333
"KY2011_e1","KY2011_e1_4","VEIN",0,2,1557,"Include",334
"KY2011_e1","KY2011_e1_4","UNCLE",0,2,1314,"Include",335
"KY2011_e1","KY2011_e1_4","LOTS",0,2,819,"Include",336
"KY2011_e1","KY2011_e1_4","ASSEMBLY",0,4,1747,"Include",337
"KY2011_e1","KY2011_e1_4","DESK",1,6,1050,"Include",338
"KY2011_e1","KY2011_e1_4","MUSEUM",0,5,1003,"Include",339
"KY2011_e1","KY2011_e1_4","PROPOSAL",1,3,909,"Include",340
"KY2011_e1","KY2011_e1_4","HONEY",1,6,932,"Include",341
"KY2011_e1","KY2011_e1_4","TALENT",1,6,857,"Include",342
"KY2011_e1","KY2011_e1_4","CONTRAST",0,2,1295,"Include",343
"KY2011_e1","KY2011_e1_4","MEDICINE",0,6,1510,"Include",344
"KY2011_e1","KY2011_e1_4","PROVISION",1,2,789,"Include",345
"KY2011_e1","KY2011_e1_4","EXTENSION",1,3,1109,"Include",346
"KY2011_e1","KY2011_e1_4","REMOVAL",0,2,849,"Include",347
"KY2011_e1","KY2011_e1_4","HOTELS",0,1,859,"Include",348
"KY2011_e1","KY2011_e1_4","QUEEN",1,6,780,"Include",349
"KY2011_e1","KY2011_e1_4","WINE",1,6,1514,"Include",350
"KY2011_e1","KY2011_e1_4","INNOCENCE",1,4,1278,"Include",351
"KY2011_e1","KY2011_e1_4","PIANO",0,3,1231,"Include",352
"KY2011_e1","KY2011_e1_4","HATRED",1,2,683,"Include",353
"KY2011_e1","KY2011_e1_4","AUTHORITY",1,2,664,"Include",354
"KY2011_e1","KY2011_e1_4","DINNER",0,1,852,"Include",355
"KY2011_e1","KY2011_e1_4","IMPULSE",1,1,587,"Include",356
"KY2011_e1","KY2011_e1_4","PERSONNEL",1,6,777,"Include",357
"KY2011_e1","KY2011_e1_4","INCREASES",1,6,1108,"Include",358
"KY2011_e1","KY2011_e1_4","MERCER",0,2,1156,"Include",359
"KY2011_e1","KY2011_e1_4","ECONOMY",1,3,1740,"Include",360
"KY2011_e1","KY2011_e1_4","EXCUSE",0,1,1462,"Include",361
"KY2011_e1","KY2011_e1_4","JUNGLE",1,6,753,"Include",362
"KY2011_e1","KY2011_e1_4","THROAT",1,1,958,"Include",363
"KY2011_e1","KY2011_e1_4","EDITOR",0,2,722,"Include",364
"KY2011_e1","KY2011_e1_4","OWNER",0,2,1218,"Include",365
"KY2011_e1","KY2011_e1_4","ACADEMY",1,6,865,"Include",366
"KY2011_e1","KY2011_e1_4","ALLIANCE",1,2,1000,"Include",367
"KY2011_e1","KY2011_e1_4","CLOCK",1,6,669,"Include",368
"KY2011_e1","KY2011_e1_4","EMISSION",0,2,1090,"Include",369
"KY2011_e1","KY2011_e1_4","COMPOSER",0,1,1042,"Include",370
"KY2011_e1","KY2011_e1_4","PASSION",0,2,677,"Include",371
"KY2011_e1","KY2011_e1_4","PATIENCE",1,6,1285,"Include",372
"KY2011_e1","KY2011_e1_4","MAID",0,1,845,"Include",373
"KY2011_e1","KY2011_e1_4","HEAVEN",0,2,963,"Include",374
"KY2011_e1","KY2011_e1_4","RESOURCES",1,6,2288,"Include",375
"KY2011_e1","KY2011_e1_4","BEAUTY",1,6,652,"Include",376
"KY2011_e1","KY2011_e1_4","KILLER",1,2,1987,"Include",377
"KY2011_e1","KY2011_e1_4","ORCHESTRA",1,6,1197,"Include",378
"KY2011_e1","KY2011_e1_4","ARTICLE",0,1,790,"Include",379
"KY2011_e1","KY2011_e1_4","INTENTION",1,2,828,"Include",380
"KY2011_e1","KY2011_e1_4","GIFT",0,2,1265,"Include",381
"KY2011_e1","KY2011_e1_4","RICE",0,2,948,"Include",382
"KY2011_e1","KY2011_e1_4","RADAR",0,2,863,"Include",383
"KY2011_e1","KY2011_e1_4","INJURY",1,4,1065,"Include",384
"KY2011_e1","KY2011_e1_4","MEAT",0,1,824,"Include",385
"KY2011_e1","KY2011_e1_4","SONG",0,1,544,"Include",386
"KY2011_e1","KY2011_e1_4","CRISIS",0,1,988,"Include",387
"KY2011_e1","KY2011_e1_4","FARMER",0,1,1433,"Include",388
"KY2011_e1","KY2011_e1_4","MANAGER",0,1,644,"Include",389
"KY2011_e1","KY2011_e1_4","TRIBUTE",0,1,614,"Include",390
"KY2011_e1","KY2011_e1_4","ERRORS",1,1,477,"Include",391
"KY2011_e1","KY2011_e1_4","HIGHWAY",0,1,1509,"Include",392
"KY2011_e1","KY2011_e1_4","FACTORY",0,1,684,"Include",393
"KY2011_e1","KY2011_e1_4","RECOVERY",0,1,826,"Include",394
"KY2011_e1","KY2011_e1_4","THYROID",1,6,698,"Include",395
"KY2011_e1","KY2011_e1_4","PROJECT",1,6,1104,"Include",396
"KY2011_e1","KY2011_e1_4","FORT",0,2,1339,"Include",397
"KY2011_e1","KY2011_e1_4","RELIEF",0,6,1061,"Include",398
"KY2011_e1","KY2011_e1_4","APPROVAL",1,6,890,"Include",399
"KY2011_e1","KY2011_e1_4","SUPREME",1,5,773,"Include",400
"KY2011_e1","KY2011_e1_4","CHAPEL",0,2,634,"Include",401
"KY2011_e1","KY2011_e1_4","GLORY",0,1,543,"Include",402
"KY2011_e1","KY2011_e1_4","MONUMENT",0,2,861,"Include",403
"KY2011_e1","KY2011_e1_4","LIPS",0,1,807,"Include",404
"KY2011_e1","KY2011_e1_4","TALE",0,1,611,"Include",405
"KY2011_e1","KY2011_e1_4","DISASTER",1,1,553,"Include",406
"KY2011_e1","KY2011_e1_4","THEORIES",0,1,552,"Include",407
"KY2011_e1","KY2011_e1_4","MANTLE",1,6,1002,"Include",408
"KY2011_e1","KY2011_e1_4","DIGNITY",1,6,796,"Include",409
"KY2011_e1","KY2011_e1_4","SHEEP",1,6,1368,"Include",410
"KY2011_e1","KY2011_e1_4","SHERIFF",1,6,760,"Include",411
"KY2011_e1","KY2011_e1_4","LIBERTY",0,2,1557,"Include",412
"KY2011_e1","KY2011_e1_4","VERSE",0,3,1458,"Include",413
"KY2011_e1","KY2011_e1_4","CARD",0,2,969,"Include",414
"KY2011_e1","KY2011_e1_4","PRESENTS",1,6,862,"Include",415
"KY2011_e1","KY2011_e1_4","LEADER",1,4,1298,"Include",416
"KY2011_e1","KY2011_e1_4","HEELS",1,6,873,"Include",417
"KY2011_e1","KY2011_e1_4","SENTIMENT",0,1,867,"Include",418
"KY2011_e1","KY2011_e1_4","EXPOSURE",1,2,686,"Include",419
"KY2011_e1","KY2011_e1_4","CONFUSION",1,6,1854,"Include",420
"KY2011_e1","KY2011_e1_4","FACULTY",1,6,676,"Include",421
"KY2011_e1","KY2011_e1_4","SOUL",0,2,812,"Include",422
"KY2011_e1","KY2011_e1_4","CEILING",1,6,723,"Include",423
"KY2011_e1","KY2011_e1_4","EMPIRE",0,2,781,"Include",424
"KY2011_e1","KY2011_e1_4","REFUND",0,1,795,"Include",425
"KY2011_e1","KY2011_e1_4","MARRIAGE",0,3,876,"Include",426
"KY2011_e1","KY2011_e1_4","CANDIDATE",0,2,712,"Include",427
"KY2011_e1","KY2011_e1_4","RECORDS",0,1,1117,"Include",428
"KY2011_e1","KY2011_e1_4","RHYTHM",1,6,950,"Include",429
"KY2011_e1","KY2011_e1_4","MIDNIGHT",1,6,855,"Include",430
"KY2011_e1","KY2011_e1_4","VICTORY",0,6,852,"Include",431
"KY2011_e1","KY2011_e1_4","PROSPECT",0,1,1109,"Include",432
"KY2011_e1","KY2011_e1_4","SUCCESS",0,1,1239,"Include",433
"KY2011_e1","KY2011_e1_4","SUMMARY",1,6,968,"Include",434
"KY2011_e1","KY2011_e1_4","EXPANSION",1,6,835,"Include",435
"KY2011_e1","KY2011_e1_4","DEPTH",1,2,940,"Include",436
"KY2011_e1","KY2011_e1_4","DIAMETER",1,6,984,"Include",437
"KY2011_e1","KY2011_e1_4","GALLERY",0,1,745,"Include",438
"KY2011_e1","KY2011_e1_4","WARMTH",0,1,665,"Include",439
"KY2011_e1","KY2011_e1_4","AUTO",0,1,607,"Include",440
"KY2011_e1","KY2011_e1_4","HERO",1,6,644,"Include",441
"KY2011_e1","KY2011_e1_4","MASON",1,6,762,"Include",442
"KY2011_e1","KY2011_e1_4","ABILITY",1,2,842,"Include",443
"KY2011_e1","KY2011_e1_4","NOVEL",1,1,724,"Include",444
"KY2011_e1","KY2011_e1_4","PUBLICITY",1,2,682,"Include",445
"KY2011_e1","KY2011_e1_4","STRATEGY",1,1,631,"Include",446
"KY2011_e1","KY2011_e1_4","DILEMMA",1,6,630,"Include",447
"KY2011_e1","KY2011_e1_4","MACHINERY",0,1,757,"Include",448
"KY2011_e1","KY2011_e1_4","OBSERVERS",1,6,837,"Include",449
"KY2011_e1","KY2011_e1_4","PAINTER",0,1,701,"Include",450
"KY2011_e1","KY2011_e1_4","SYMBOL",1,6,732,"Include",451
"KY2011_e1","KY2011_e1_4","ADVICE",0,1,1256,"Include",452
"KY2011_e1","KY2011_e1_4","KITCHEN",0,1,793,"Include",453
"KY2011_e1","KY2011_e1_4","PLASTICS",1,1,582,"Include",454
"KY2011_e1","KY2011_e1_4","COUNTIES",1,2,1712,"Include",455
"KY2011_e1","KY2011_e1_4","VILLAGE",1,2,1017,"Include",456
"KY2011_e1","KY2011_e1_4","SENATOR",0,6,679,"Include",457
"KY2011_e1","KY2011_e1_4","PUPIL",1,6,639,"Include",458
"KY2011_e1","KY2011_e1_4","SALE",1,2,1031,"Include",459
"KY2011_e1","KY2011_e1_4","IMITATION",1,2,2311,"Include",460
"KY2011_e1","KY2011_e1_4","MELODY",0,2,891,"Include",461
"KY2011_e1","KY2011_e1_4","CAPITAL",0,2,720,"Include",462
"KY2011_e1","KY2011_e1_4","BREAD",1,1,855,"Include",463
"KY2011_e1","KY2011_e1_4","RAILROAD",0,2,617,"Include",464
"KY2011_e1","KY2011_e1_4","MESSAGE",0,2,806,"Include",465
"KY2011_e1","KY2011_e1_4","FINDINGS",1,6,1944,"Include",466
"KY2011_e1","KY2011_e1_4","INSIGHT",1,2,788,"Include",467
"KY2011_e1","KY2011_e1_4","LADY",1,6,763,"Include",468
"KY2011_e1","KY2011_e1_4","ROADS",0,6,807,"Include",469
"KY2011_e1","KY2011_e1_4","MEETINGS",1,2,584,"Include",470
"KY2011_e1","KY2011_e1_4","BRAIN",0,1,895,"Include",471
"KY2011_e1","KY2011_e1_4","PRISON",1,6,876,"Include",472
"KY2011_e1","KY2011_e1_4","PLATFORM",1,6,598,"Include",473
"KY2011_e1","KY2011_e1_4","OBJECT",1,2,1133,"Include",474
"KY2011_e1","KY2011_e1_4","PROFESSOR",0,2,1047,"Include",475
"KY2011_e1","KY2011_e1_4","WARREN",0,2,765,"Include",476
"KY2011_e1","KY2011_e1_4","FESTIVAL",0,2,773,"Include",477
"KY2011_e1","KY2011_e1_4","CLERK",1,2,640,"Include",478
"KY2011_e1","KY2011_e1_4","FAILURE",1,2,765,"Include",479
"KY2011_e1","KY2011_e1_4","TRUSTEES",0,2,879,"Include",480
"KY2011_e1","KY2011_e1_4","STORAGE",1,1,2085,"Include",481
"KY2011_e1","KY2011_e1_4","DRAWINGS",0,2,865,"Include",482
"KY2011_e1","KY2011_e1_4","GAMES",1,1,509,"Include",483
"KY2011_e1","KY2011_e1_4","THOUGHTS",0,2,1069,"Include",484
"KY2011_e1","KY2011_e1_4","PROCEDURE",0,6,962,"Include",485
"KY2011_e1","KY2011_e1_4","LANDSCAPE",1,6,993,"Include",486
"KY2011_e1","KY2011_e1_4","BIRTH",0,2,947,"Include",487
"KY2011_e1","KY2011_e1_4","UTOPIA",1,6,935,"Include",488
"KY2011_e1","KY2011_e1_4","LEGEND",1,2,782,"Include",489
"KY2011_e1","KY2011_e1_4","CHAPTER",0,1,793,"Include",490
"KY2011_e1","KY2011_e1_4","NIGHTS",1,3,774,"Include",491
"KY2011_e1","KY2011_e1_4","TRADITION",1,2,564,"Include",492
"KY2011_e1","KY2011_e1_4","BEHALF",0,1,896,"Include",493
"KY2011_e1","KY2011_e1_4","PRESTIGE",1,6,889,"Include",494
"KY2011_e1","KY2011_e1_4","BEARD",0,2,881,"Include",495
"KY2011_e1","KY2011_e1_4","FEELINGS",1,6,636,"Include",496
"KY2011_e1","KY2011_e1_4","ASTRONOMY",0,2,858,"Include",497
"KY2011_e1","KY2011_e1_4","ANODE",0,1,875,"Include",498
"KY2011_e1","KY2011_e1_4","YARD",1,6,645,"Include",499
"KY2011_e1","KY2011_e1_4","VARIETY",0,2,659,"Include",500
"KY2011_e1","KY2011_e1_4","PALFREY",1,1,841,"Include",501
"KY2011_e1","KY2011_e1_4","ELECTION",0,2,766,"Include",502
"KY2011_e1","KY2011_e1_4","REPORTER",1,3,1522,"Include",503
"KY2011_e1","KY2011_e1_4","SOLUTION",0,2,654,"Include",504
"KY2011_e1","KY2011_e1_4","SALVATION",0,2,1081,"Include",505
"KY2011_e1","KY2011_e1_4","WAGON",1,6,1385,"Include",506
"KY2011_e1","KY2011_e1_4","HOSPITALS",0,2,1584,"Include",507
"KY2011_e1","KY2011_e1_4","RETAIL",1,6,1128,"Include",508
"KY2011_e1","KY2011_e1_4","CHEST",1,6,880,"Include",509
"KY2011_e1","KY2011_e1_4","PACKAGE",1,3,1058,"Include",510
"KY2011_e1","KY2011_e1_4","SAFETY",0,3,1090,"Include",511
"KY2011_e1","KY2011_e1_4","JUNIORS",0,2,832,"Include",512
"KY2011_e1","KY2011_e1_4","CAPE",1,6,759,"Include",513
"KY2011_e1","KY2011_e1_4","BASEMENT",1,6,715,"Include",514
"KY2011_e1","KY2011_e1_4","JAZZ",1,6,647,"Include",515
"KY2011_e1","KY2011_e1_4","FREQUENCY",1,2,995,"Include",516
"KY2011_e1","KY2011_e1_4","HORN",1,6,609,"Include",517
"KY2011_e1","KY2011_e1_4","MOVIE",1,6,947,"Include",518
"KY2011_e1","KY2011_e1_4","PHYSICS",0,1,785,"Include",519
