"exp","id","item","isold","condition1","rating","RT","excluding","trial"
"KY2010_e1","KY2010_e1_1","CROCHET",1,"mixed",2,4725,"Include",1
"KY2010_e1","KY2010_e1_1","FOUNDRY",1,"mixed",5,3346,"Include",2
"KY2010_e1","KY2010_e1_1","TOURIST",0,"mixed",5,1534,"Include",3
"KY2010_e1","KY2010_e1_1","SOUFFLE",0,"mixed",2,2330,"Include",4
"KY2010_e1","KY2010_e1_1","VARIANT",0,"mixed",3,2609,"Include",5
"KY2010_e1","KY2010_e1_1","HACKSAW",1,"mixed",6,6974,"Include",6
"KY2010_e1","KY2010_e1_1","HEATHEN",1,"mixed",3,5859,"Include",7
"KY2010_e1","KY2010_e1_1","CAPSTAN",0,"mixed",3,2499,"Include",8
"KY2010_e1","KY2010_e1_1","CHANCEL",0,"mixed",2,1975,"Include",9
"KY2010_e1","KY2010_e1_1","SCATTER",0,"mixed",1,1505,"Include",10
"KY2010_e1","KY2010_e1_1","RANCHER",1,"mixed",2,1955,"Include",11
"KY2010_e1","KY2010_e1_1","AIRPORT",0,"mixed",4,5329,"Include",12
"KY2010_e1","KY2010_e1_1","DISCORD",1,"mixed",6,1833,"Include",13
"KY2010_e1","KY2010_e1_1","SPENCER",1,"mixed",5,1603,"Include",14
"KY2010_e1","KY2010_e1_1","WARRANT",1,"mixed",3,2967,"Include",15
"KY2010_e1","KY2010_e1_1","SUBSOIL",1,"mixed",6,2352,"Include",16
"KY2010_e1","KY2010_e1_1","EARNEST",1,"mixed",3,2699,"Include",17
"KY2010_e1","KY2010_e1_1","FIELDER",0,"mixed",4,3031,"Include",18
"KY2010_e1","KY2010_e1_1","CANVASS",1,"mixed",6,2720,"Include",19
"KY2010_e1","KY2010_e1_1","TEMPTER",0,"mixed",3,2863,"Include",20
"KY2010_e1","KY2010_e1_1","TRICKLE",1,"mixed",3,1418,"Include",21
"KY2010_e1","KY2010_e1_1","COGNATE",0,"mixed",3,1124,"Include",22
"KY2010_e1","KY2010_e1_1","MERMAID",1,"mixed",3,1728,"Include",23
"KY2010_e1","KY2010_e1_1","PARTING",0,"mixed",3,832,"Include",24
"KY2010_e1","KY2010_e1_1","ORCHARD",0,"mixed",4,2468,"Include",25
"KY2010_e1","KY2010_e1_1","BLANKET",0,"mixed",4,1440,"Include",26
"KY2010_e1","KY2010_e1_1","PENSION",0,"mixed",4,1591,"Include",27
"KY2010_e1","KY2010_e1_1","COCAINE",0,"mixed",1,1748,"Include",28
"KY2010_e1","KY2010_e1_1","CONVERT",1,"mixed",6,1930,"Include",29
"KY2010_e1","KY2010_e1_1","VERMEIL",0,"mixed",2,2626,"Include",30
"KY2010_e1","KY2010_e1_1","DICTATE",1,"mixed",2,1994,"Include",31
"KY2010_e1","KY2010_e1_1","EXHAUST",0,"mixed",2,928,"Include",32
"KY2010_e1","KY2010_e1_1","SPATTER",1,"mixed",2,1173,"Include",33
"KY2010_e1","KY2010_e1_1","BOOKING",0,"mixed",2,733,"Include",34
"KY2010_e1","KY2010_e1_1","PASSION",1,"mixed",2,948,"Include",35
"KY2010_e1","KY2010_e1_1","CHAGRIN",0,"mixed",3,3303,"Include",36
"KY2010_e1","KY2010_e1_1","THEOREM",0,"mixed",2,778,"Include",37
"KY2010_e1","KY2010_e1_1","PIGMENT",1,"mixed",4,2552,"Include",38
"KY2010_e1","KY2010_e1_1","MALAISE",0,"mixed",2,2005,"Include",39
"KY2010_e1","KY2010_e1_1","RECLUSE",1,"mixed",5,2420,"Include",40
"KY2010_e1","KY2010_e1_1","PERSIAN",0,"mixed",1,5292,"Include",41
"KY2010_e1","KY2010_e1_1","HANGMAN",1,"mixed",6,2750,"Include",42
"KY2010_e1","KY2010_e1_1","LEAGUER",1,"mixed",1,1399,"Include",43
"KY2010_e1","KY2010_e1_1","PATRIOT",1,"mixed",4,2811,"Include",44
"KY2010_e1","KY2010_e1_1","SURMISE",0,"mixed",3,2412,"Include",45
"KY2010_e1","KY2010_e1_1","BLUBBER",1,"mixed",3,1391,"Include",46
"KY2010_e1","KY2010_e1_1","PULLMAN",0,"mixed",3,1501,"Include",47
"KY2010_e1","KY2010_e1_1","HAYWARD",1,"mixed",4,2463,"Include",48
"KY2010_e1","KY2010_e1_1","HOSTAGE",1,"mixed",3,1525,"Include",49
"KY2010_e1","KY2010_e1_1","CHATTER",0,"mixed",2,2425,"Include",50
"KY2010_e1","KY2010_e1_1","TERRIER",0,"mixed",2,1713,"Include",51
"KY2010_e1","KY2010_e1_1","CASCADE",0,"mixed",3,1704,"Include",52
"KY2010_e1","KY2010_e1_1","BAGGAGE",1,"mixed",3,1517,"Include",53
"KY2010_e1","KY2010_e1_1","RECRUIT",0,"mixed",4,2928,"Include",54
"KY2010_e1","KY2010_e1_1","PLATOON",0,"mixed",3,1596,"Include",55
"KY2010_e1","KY2010_e1_1","PENDANT",0,"mixed",2,1147,"Include",56
"KY2010_e1","KY2010_e1_1","PUZZLER",0,"mixed",2,1012,"Include",57
"KY2010_e1","KY2010_e1_1","TRESTLE",0,"mixed",4,3319,"Include",58
"KY2010_e1","KY2010_e1_1","HEATHER",1,"mixed",1,2045,"Include",59
"KY2010_e1","KY2010_e1_1","HAULAGE",0,"mixed",2,1426,"Include",60
"KY2010_e1","KY2010_e1_1","FREEMAN",0,"mixed",1,2208,"Include",61
"KY2010_e1","KY2010_e1_1","PREMISE",0,"mixed",2,3214,"Include",62
"KY2010_e1","KY2010_e1_1","HANDLER",1,"mixed",2,1515,"Include",63
"KY2010_e1","KY2010_e1_1","HARVEST",1,"mixed",2,1326,"Include",64
"KY2010_e1","KY2010_e1_1","LANTERN",0,"mixed",2,1091,"Include",65
"KY2010_e1","KY2010_e1_1","HARNESS",1,"mixed",4,2518,"Include",66
"KY2010_e1","KY2010_e1_1","FANCIER",1,"mixed",6,3038,"Include",67
"KY2010_e1","KY2010_e1_1","CLIPPER",0,"mixed",3,4343,"Include",68
"KY2010_e1","KY2010_e1_1","OUTLINE",0,"mixed",3,846,"Include",69
"KY2010_e1","KY2010_e1_1","MARSHAL",1,"mixed",3,1119,"Include",70
"KY2010_e1","KY2010_e1_1","POSTURE",0,"mixed",4,1886,"Include",71
"KY2010_e1","KY2010_e1_1","RAILING",1,"mixed",3,912,"Include",72
"KY2010_e1","KY2010_e1_1","QUANTUM",0,"mixed",2,1173,"Include",73
"KY2010_e1","KY2010_e1_1","BOUQUET",0,"mixed",2,1272,"Include",74
"KY2010_e1","KY2010_e1_1","PADLOCK",1,"mixed",1,900,"Include",75
"KY2010_e1","KY2010_e1_1","ROMANCE",0,"mixed",4,2511,"Include",76
"KY2010_e1","KY2010_e1_1","SUSPECT",0,"mixed",3,2539,"Include",77
"KY2010_e1","KY2010_e1_1","BLOSSOM",1,"mixed",3,1185,"Include",78
"KY2010_e1","KY2010_e1_1","TANGENT",1,"mixed",4,2997,"Include",79
"KY2010_e1","KY2010_e1_1","PROVOST",1,"mixed",1,1607,"Include",80
"KY2010_e1","KY2010_e1_1","OUTCOME",0,"mixed",3,2898,"Include",81
"KY2010_e1","KY2010_e1_1","KNUCKLE",0,"mixed",1,6189,"Include",82
"KY2010_e1","KY2010_e1_1","NUCLEUS",0,"mixed",1,989,"Include",83
"KY2010_e1","KY2010_e1_1","SOJOURN",0,"mixed",1,1075,"Include",84
"KY2010_e1","KY2010_e1_1","WASTAGE",1,"mixed",6,2565,"Include",85
"KY2010_e1","KY2010_e1_1","SUNBURN",1,"mixed",6,849,"Include",86
"KY2010_e1","KY2010_e1_1","FEATHER",0,"mixed",3,3081,"Include",87
"KY2010_e1","KY2010_e1_1","TROLLOP",0,"mixed",1,1827,"Include",88
"KY2010_e1","KY2010_e1_1","KINGDOM",1,"mixed",1,831,"Include",89
"KY2010_e1","KY2010_e1_1","FIGMENT",1,"mixed",2,1973,"Include",90
"KY2010_e1","KY2010_e1_1","TORSION",0,"mixed",1,1205,"Include",91
"KY2010_e1","KY2010_e1_1","RAPPORT",1,"mixed",4,2519,"Include",92
"KY2010_e1","KY2010_e1_1","CUNNING",1,"mixed",2,1748,"Include",93
"KY2010_e1","KY2010_e1_1","PENNANT",0,"mixed",3,1967,"Include",94
"KY2010_e1","KY2010_e1_1","BULWARK",0,"mixed",2,2149,"Include",95
"KY2010_e1","KY2010_e1_1","MONSTER",0,"mixed",5,2170,"Include",96
"KY2010_e1","KY2010_e1_1","FORTUNE",1,"mixed",5,1094,"Include",97
"KY2010_e1","KY2010_e1_1","TWINKLE",0,"mixed",4,2742,"Include",98
"KY2010_e1","KY2010_e1_1","COULOMB",0,"mixed",1,1395,"Include",99
"KY2010_e1","KY2010_e1_1","INVERSE",1,"mixed",3,3257,"Include",100
"KY2010_e1","KY2010_e1_1","SHARPER",0,"mixed",1,1955,"Include",101
"KY2010_e1","KY2010_e1_1","BRISTLE",0,"mixed",5,2181,"Include",102
"KY2010_e1","KY2010_e1_1","SPINACH",1,"mixed",6,1636,"Include",103
"KY2010_e1","KY2010_e1_1","PASTERN",0,"mixed",2,6197,"Include",104
"KY2010_e1","KY2010_e1_1","DELIGHT",1,"mixed",2,3808,"Include",105
"KY2010_e1","KY2010_e1_1","QUARREL",1,"mixed",4,2480,"Include",106
"KY2010_e1","KY2010_e1_1","CROZIER",1,"mixed",1,1292,"Include",107
"KY2010_e1","KY2010_e1_1","BURGHER",1,"mixed",1,1537,"Include",108
"KY2010_e1","KY2010_e1_1","PFENNIG",0,"mixed",1,2326,"Include",109
"KY2010_e1","KY2010_e1_1","CARCASS",1,"mixed",6,2365,"Include",110
"KY2010_e1","KY2010_e1_1","SCANDAL",0,"mixed",4,3904,"Include",111
"KY2010_e1","KY2010_e1_1","LAYETTE",0,"mixed",1,1261,"Include",112
"KY2010_e1","KY2010_e1_1","JACKASS",1,"mixed",1,974,"Include",113
"KY2010_e1","KY2010_e1_1","PROCTOR",1,"mixed",2,1903,"Include",114
"KY2010_e1","KY2010_e1_1","GODSEND",0,"mixed",1,1066,"Include",115
"KY2010_e1","KY2010_e1_1","TIGRESS",1,"mixed",5,2265,"Include",116
"KY2010_e1","KY2010_e1_1","QUIBBLE",1,"mixed",3,2633,"Include",117
"KY2010_e1","KY2010_e1_1","BEDDING",1,"mixed",3,1134,"Include",118
"KY2010_e1","KY2010_e1_1","INNINGS",0,"mixed",3,1654,"Include",119
"KY2010_e1","KY2010_e1_1","TACTICS",0,"mixed",3,1479,"Include",120
"KY2010_e1","KY2010_e1_1","CYCLIST",1,"mixed",2,1957,"Include",121
"KY2010_e1","KY2010_e1_1","DEFAULT",1,"mixed",2,1126,"Include",122
"KY2010_e1","KY2010_e1_1","FLORIST",1,"mixed",4,2315,"Include",123
"KY2010_e1","KY2010_e1_1","CRUSHER",0,"mixed",2,1987,"Include",124
"KY2010_e1","KY2010_e1_1","EMBRACE",1,"mixed",2,931,"Include",125
"KY2010_e1","KY2010_e1_1","TABLEAU",0,"mixed",1,1355,"Include",126
"KY2010_e1","KY2010_e1_1","IMPRESS",1,"mixed",4,3008,"Include",127
"KY2010_e1","KY2010_e1_1","PERFUME",0,"mixed",3,2581,"Include",128
"KY2010_e1","KY2010_e1_1","GALLANT",1,"mixed",3,980,"Include",129
"KY2010_e1","KY2010_e1_1","REBIRTH",1,"mixed",3,694,"Include",130
"KY2010_e1","KY2010_e1_1","FACTION",0,"mixed",5,2084,"Include",131
"KY2010_e1","KY2010_e1_1","GARMENT",0,"mixed",5,1058,"Include",132
"KY2010_e1","KY2010_e1_1","FATIGUE",1,"mixed",4,4080,"Include",133
"KY2010_e1","KY2010_e1_1","CANTEEN",1,"mixed",5,1636,"Include",134
"KY2010_e1","KY2010_e1_1","OUTGROW",0,"mixed",2,1413,"Include",135
"KY2010_e1","KY2010_e1_1","STATURE",1,"mixed",4,3642,"Include",136
"KY2010_e1","KY2010_e1_1","PROBATE",0,"mixed",3,1754,"Include",137
"KY2010_e1","KY2010_e1_1","HATCHET",1,"mixed",4,1280,"Include",138
"KY2010_e1","KY2010_e1_1","TRUNDLE",1,"mixed",3,916,"Include",139
"KY2010_e1","KY2010_e1_1","RUBBISH",1,"mixed",3,1610,"Include",140
"KY2010_e1","KY2010_e1_1","DISSENT",0,"mixed",5,5097,"Include",141
"KY2010_e1","KY2010_e1_1","MAMMOTH",0,"mixed",3,6094,"Include",142
"KY2010_e1","KY2010_e1_1","FLICKER",0,"mixed",3,933,"Include",143
"KY2010_e1","KY2010_e1_1","VERDICT",1,"mixed",3,1971,"Include",144
"KY2010_e1","KY2010_e1_1","CAPSULE",0,"mixed",3,1180,"Include",145
"KY2010_e1","KY2010_e1_1","REMNANT",0,"mixed",3,1753,"Include",146
"KY2010_e1","KY2010_e1_1","LIGHTER",0,"mixed",2,3540,"Include",147
"KY2010_e1","KY2010_e1_1","PLUNDER",1,"mixed",2,957,"Include",148
"KY2010_e1","KY2010_e1_1","RECEIPT",1,"mixed",5,2971,"Include",149
"KY2010_e1","KY2010_e1_1","BALLOON",1,"mixed",3,3737,"Include",150
"KY2010_e1","KY2010_e1_1","REMORSE",0,"mixed",3,1401,"Include",151
"KY2010_e1","KY2010_e1_1","CONSORT",1,"mixed",3,2220,"Include",152
"KY2010_e1","KY2010_e1_1","RAPPING",0,"mixed",3,1287,"Include",153
"KY2010_e1","KY2010_e1_1","WHITING",0,"mixed",2,2062,"Include",154
"KY2010_e1","KY2010_e1_1","MIXTURE",1,"mixed",3,1850,"Include",155
"KY2010_e1","KY2010_e1_1","WRAPPER",0,"mixed",2,1593,"Include",156
"KY2010_e1","KY2010_e1_1","SKYLARK",0,"mixed",2,2814,"Include",157
"KY2010_e1","KY2010_e1_1","CALCIUM",1,"mixed",1,2222,"Include",158
"KY2010_e1","KY2010_e1_1","PITFALL",1,"mixed",4,3485,"Include",159
"KY2010_e1","KY2010_e1_1","PADDOCK",0,"mixed",3,2503,"Include",160
"KY2010_e1","KY2010_e1_1","PRETEXT",0,"mixed",2,2668,"Include",161
"KY2010_e1","KY2010_e1_1","GRATING",0,"mixed",2,1653,"Include",162
"KY2010_e1","KY2010_e1_1","PICKING",0,"mixed",2,1000,"Include",163
"KY2010_e1","KY2010_e1_1","FORFEIT",0,"mixed",3,1782,"Include",164
"KY2010_e1","KY2010_e1_1","FISSION",1,"mixed",6,3147,"Include",165
"KY2010_e1","KY2010_e1_1","DENTIST",1,"mixed",4,3685,"Include",166
"KY2010_e1","KY2010_e1_1","WHIPPET",1,"mixed",5,2350,"Include",167
"KY2010_e1","KY2010_e1_1","STARTER",1,"mixed",2,2742,"Include",168
"KY2010_e1","KY2010_e1_1","RAPTURE",0,"mixed",2,1612,"Include",169
"KY2010_e1","KY2010_e1_1","GOURMET",0,"mixed",2,3089,"Include",170
"KY2010_e1","KY2010_e1_1","AILMENT",1,"mixed",2,929,"Include",171
"KY2010_e1","KY2010_e1_1","ROSTRUM",1,"mixed",2,959,"Include",172
"KY2010_e1","KY2010_e1_1","SUCTION",0,"mixed",2,905,"Include",173
"KY2010_e1","KY2010_e1_1","PRAIRIE",1,"mixed",2,2773,"Include",174
"KY2010_e1","KY2010_e1_1","HEARSAY",1,"mixed",2,1288,"Include",175
"KY2010_e1","KY2010_e1_1","VICEROY",0,"mixed",1,1469,"Include",176
"KY2010_e1","KY2010_e1_1","BRACKET",0,"mixed",2,1272,"Include",177
"KY2010_e1","KY2010_e1_1","CURLING",0,"mixed",2,1284,"Include",178
"KY2010_e1","KY2010_e1_1","TIDINGS",1,"mixed",2,853,"Include",179
"KY2010_e1","KY2010_e1_1","HORMONE",0,"mixed",1,17093,"Include",180
"KY2010_e1","KY2010_e1_1","PRESSER",1,"mixed",2,2756,"Include",181
"KY2010_e1","KY2010_e1_1","SUNDOWN",1,"mixed",2,952,"Include",182
"KY2010_e1","KY2010_e1_1","MAGNATE",1,"mixed",2,1167,"Include",183
"KY2010_e1","KY2010_e1_1","TERRACE",0,"mixed",2,1066,"Include",184
"KY2010_e1","KY2010_e1_1","FRONTAL",1,"mixed",2,663,"Include",185
"KY2010_e1","KY2010_e1_1","STATUTE",1,"mixed",2,1888,"Include",186
"KY2010_e1","KY2010_e1_1","VINTNER",1,"mixed",3,3405,"Include",187
"KY2010_e1","KY2010_e1_1","BARRAGE",1,"mixed",3,1786,"Include",188
"KY2010_e1","KY2010_e1_1","HOSTESS",1,"mixed",3,1062,"Include",189
"KY2010_e1","KY2010_e1_1","VINTAGE",0,"mixed",3,586,"Include",190
"KY2010_e1","KY2010_e1_1","BANSHEE",0,"mixed",3,1283,"Include",191
"KY2010_e1","KY2010_e1_1","FOOTING",1,"mixed",2,2176,"Include",192
"KY2010_e1","KY2010_e1_1","BOLSTER",0,"mixed",3,1542,"Include",193
"KY2010_e1","KY2010_e1_1","TURMOIL",1,"mixed",3,955,"Include",194
"KY2010_e1","KY2010_e1_1","LOBSTER",0,"mixed",3,899,"Include",195
"KY2010_e1","KY2010_e1_1","DUSTBIN",1,"mixed",3,1389,"Include",196
"KY2010_e1","KY2010_e1_1","PROWESS",1,"mixed",3,1688,"Include",197
"KY2010_e1","KY2010_e1_1","CYPRIAN",0,"mixed",2,2243,"Include",198
"KY2010_e1","KY2010_e1_1","FASCIST",0,"mixed",1,2704,"Include",199
"KY2010_e1","KY2010_e1_1","FAIRWAY",1,"mixed",2,2326,"Include",200
"KY2010_e1","KY2010_e1_1","COMPARE",0,"mixed",2,1277,"Include",201
"KY2010_e1","KY2010_e1_1","CAUTION",0,"mixed",2,1001,"Include",202
"KY2010_e1","KY2010_e1_1","NOSTRIL",1,"mixed",2,1135,"Include",203
"KY2010_e1","KY2010_e1_1","THICKET",1,"mixed",5,2440,"Include",204
"KY2010_e1","KY2010_e1_1","SPECTRA",0,"mixed",1,1918,"Include",205
"KY2010_e1","KY2010_e1_1","OBSERVE",1,"mixed",2,1160,"Include",206
"KY2010_e1","KY2010_e1_1","PLUMBER",0,"mixed",3,1803,"Include",207
"KY2010_e1","KY2010_e1_1","SLIPPER",1,"mixed",3,1051,"Include",208
"KY2010_e1","KY2010_e1_1","TRIMMER",1,"mixed",3,1014,"Include",209
"KY2010_e1","KY2010_e1_1","PHANTOM",0,"mixed",3,788,"Include",210
"KY2010_e1","KY2010_e1_1","SPANGLE",0,"mixed",2,902,"Include",211
"KY2010_e1","KY2010_e1_1","SHIMMER",0,"mixed",2,1337,"Include",212
"KY2010_e1","KY2010_e1_1","NEGLECT",0,"mixed",2,715,"Include",213
"KY2010_e1","KY2010_e1_1","PHALANX",0,"mixed",2,1628,"Include",214
"KY2010_e1","KY2010_e1_1","MUSTANG",1,"mixed",6,2214,"Include",215
"KY2010_e1","KY2010_e1_1","MAUDLIN",0,"mixed",1,1748,"Include",216
"KY2010_e1","KY2010_e1_1","REPROOF",1,"mixed",2,1312,"Include",217
"KY2010_e1","KY2010_e1_1","HAIRCUT",0,"mixed",2,874,"Include",218
"KY2010_e1","KY2010_e1_1","PUMPKIN",0,"mixed",1,745,"Include",219
"KY2010_e1","KY2010_e1_1","STRATUM",1,"mixed",2,1482,"Include",220
"KY2010_e1","KY2010_e1_1","BASTION",0,"mixed",3,2495,"Include",221
"KY2010_e1","KY2010_e1_1","CONTEST",1,"mixed",2,2730,"Include",222
"KY2010_e1","KY2010_e1_1","MARTIAN",0,"mixed",1,1552,"Include",223
"KY2010_e1","KY2010_e1_1","BACKLOG",1,"mixed",2,1341,"Include",224
"KY2010_e1","KY2010_e1_1","BOOSTER",0,"mixed",2,1086,"Include",225
"KY2010_e1","KY2010_e1_1","HYGIENE",0,"mixed",4,2729,"Include",226
"KY2010_e1","KY2010_e1_1","BEDSIDE",1,"mixed",4,1459,"Include",227
"KY2010_e1","KY2010_e1_1","BRONCHI",0,"mixed",1,2269,"Include",228
"KY2010_e1","KY2010_e1_1","PORTAGE",0,"mixed",2,1774,"Include",229
"KY2010_e1","KY2010_e1_1","COMRADE",1,"mixed",2,799,"Include",230
"KY2010_e1","KY2010_e1_1","TURNKEY",0,"mixed",1,2758,"Include",231
"KY2010_e1","KY2010_e1_1","FURNACE",0,"mixed",1,863,"Include",232
"KY2010_e1","KY2010_e1_1","PRIMATE",0,"mixed",2,1600,"Include",233
"KY2010_e1","KY2010_e1_1","ARSENIC",0,"mixed",2,2613,"Include",234
"KY2010_e1","KY2010_e1_1","VULTURE",1,"mixed",2,966,"Include",235
"KY2010_e1","KY2010_e1_1","TEMPEST",1,"mixed",2,858,"Include",236
"KY2010_e1","KY2010_e1_1","CUSHION",1,"mixed",4,2008,"Include",237
"KY2010_e1","KY2010_e1_1","KEELSON",0,"mixed",1,1297,"Include",238
"KY2010_e1","KY2010_e1_1","DESPAIR",1,"mixed",1,807,"Include",239
"KY2010_e1","KY2010_e1_1","BAGPIPE",1,"mixed",2,1288,"Include",240
"KY2010_e1","KY2010_e1_1","PIGSKIN",0,"mixed",4,2188,"Include",241
"KY2010_e1","KY2010_e1_1","TURBINE",1,"mixed",4,1035,"Include",242
"KY2010_e1","KY2010_e1_1","POINTER",0,"mixed",3,2715,"Include",243
"KY2010_e1","KY2010_e1_1","WHEELER",0,"mixed",3,735,"Include",244
"KY2010_e1","KY2010_e1_1","THERMOS",0,"mixed",3,875,"Include",245
"KY2010_e1","KY2010_e1_1","BAPTIST",0,"mixed",3,848,"Include",246
"KY2010_e1","KY2010_e1_1","SERVANT",1,"mixed",2,1417,"Include",247
"KY2010_e1","KY2010_e1_1","SEEPAGE",0,"mixed",2,1107,"Include",248
"KY2010_e1","KY2010_e1_1","MANTRAP",1,"mixed",2,1050,"Include",249
"KY2010_e1","KY2010_e1_1","CRUELTY",1,"mixed",2,2102,"Include",250
"KY2010_e1","KY2010_e1_1","LONGING",1,"mixed",2,1168,"Include",251
"KY2010_e1","KY2010_e1_1","FREEZER",1,"mixed",5,3316,"Include",252
"KY2010_e1","KY2010_e1_1","INCENSE",1,"mixed",1,1458,"Include",253
"KY2010_e1","KY2010_e1_1","PIANIST",1,"mixed",5,1881,"Include",254
"KY2010_e1","KY2010_e1_1","IMPASSE",0,"mixed",2,3662,"Include",255
"KY2010_e1","KY2010_e1_1","TRINKET",0,"mixed",2,849,"Include",256
"KY2010_e1","KY2010_e1_1","BASTARD",0,"mixed",2,1541,"Include",257
"KY2010_e1","KY2010_e1_1","BACKING",0,"mixed",2,745,"Include",258
"KY2010_e1","KY2010_e1_1","SEGMENT",1,"mixed",4,2281,"Include",259
"KY2010_e1","KY2010_e1_1","NURSERY",0,"mixed",4,1546,"Include",260
"KY2010_e1","KY2010_e1_1","COTTAGE",0,"mixed",4,1342,"Include",261
"KY2010_e1","KY2010_e1_1","VERNIER",0,"mixed",5,2060,"Include",262
"KY2010_e1","KY2010_e1_1","PALETTE",0,"mixed",3,2757,"Include",263
"KY2010_e1","KY2010_e1_1","SAPLING",1,"mixed",2,1272,"Include",264
"KY2010_e1","KY2010_e1_1","SPONSOR",1,"mixed",3,1263,"Include",265
"KY2010_e1","KY2010_e1_1","UPRIGHT",0,"mixed",2,1635,"Include",266
"KY2010_e1","KY2010_e1_1","SKIPPER",1,"mixed",2,2285,"Include",267
"KY2010_e1","KY2010_e1_1","PREFACE",1,"mixed",3,1343,"Include",268
"KY2010_e1","KY2010_e1_1","DELTOID",0,"mixed",1,1870,"Include",269
"KY2010_e1","KY2010_e1_1","PROTEIN",0,"mixed",4,3099,"Include",270
"KY2010_e1","KY2010_e1_1","CANDOUR",0,"mixed",3,1620,"Include",271
"KY2010_e1","KY2010_e1_1","DESSERT",1,"mixed",6,2722,"Include",272
"KY2010_e1","KY2010_e1_1","EXPLOIT",1,"mixed",4,2754,"Include",273
"KY2010_e1","KY2010_e1_1","INCLINE",1,"mixed",3,1805,"Include",274
"KY2010_e1","KY2010_e1_1","VARNISH",0,"mixed",3,1459,"Include",275
"KY2010_e1","KY2010_e1_1","PRECEPT",0,"mixed",3,1454,"Include",276
"KY2010_e1","KY2010_e1_1","CURTAIN",1,"mixed",3,2325,"Include",277
"KY2010_e1","KY2010_e1_1","RAMPAGE",1,"mixed",3,603,"Include",278
"KY2010_e1","KY2010_e1_1","SEIZURE",1,"mixed",3,843,"Include",279
"KY2010_e1","KY2010_e1_1","GODDESS",1,"mixed",3,755,"Include",280
"KY2010_e1","KY2010_e1_1","MISSIVE",0,"mixed",3,1085,"Include",281
"KY2010_e1","KY2010_e1_1","CLEANER",1,"mixed",3,822,"Include",282
"KY2010_e1","KY2010_e1_1","LEAKAGE",1,"mixed",2,793,"Include",283
"KY2010_e1","KY2010_e1_1","SULPHUR",0,"mixed",2,4510,"Include",284
"KY2010_e1","KY2010_e1_1","MOORING",1,"mixed",2,1243,"Include",285
"KY2010_e1","KY2010_e1_1","TRAWLER",1,"mixed",2,1443,"Include",286
"KY2010_e1","KY2010_e1_1","TYPHOID",1,"mixed",5,2767,"Include",287
"KY2010_e1","KY2010_e1_1","PRESAGE",0,"mixed",2,15750,"Include",288
"KY2010_e1","KY2010_e1_1","COMBINE",0,"mixed",2,786,"Include",289
"KY2010_e1","KY2010_e1_1","SURTOUT",1,"mixed",2,824,"Include",290
"KY2010_e1","KY2010_e1_1","REBOUND",1,"mixed",3,1202,"Include",291
"KY2010_e1","KY2010_e1_1","DESCENT",1,"mixed",2,1972,"Include",292
"KY2010_e1","KY2010_e1_1","VILLAIN",0,"mixed",4,4061,"Include",293
"KY2010_e1","KY2010_e1_1","INKLING",0,"mixed",2,1093,"Include",294
"KY2010_e1","KY2010_e1_1","QUINTUS",0,"mixed",2,665,"Include",295
"KY2010_e1","KY2010_e1_1","PHOENIX",1,"mixed",6,2341,"Include",296
"KY2010_e1","KY2010_e1_1","GENTIAN",0,"mixed",3,3521,"Include",297
"KY2010_e1","KY2010_e1_1","BREAKER",0,"mixed",2,1201,"Include",298
"KY2010_e1","KY2010_e1_1","SACKING",1,"mixed",2,1018,"Include",299
"KY2010_e1","KY2010_e1_1","TOPPING",0,"mixed",2,735,"Include",300
"KY2010_e1","KY2010_e1_1","WASTREL",1,"mixed",1,1461,"Include",301
"KY2010_e1","KY2010_e1_1","PAINTER",0,"mixed",2,1118,"Include",302
"KY2010_e1","KY2010_e1_1","ARMHOLE",0,"mixed",1,1250,"Include",303
"KY2010_e1","KY2010_e1_1","UPSURGE",1,"mixed",2,1614,"Include",304
"KY2010_e1","KY2010_e1_1","FIGHTER",1,"mixed",3,1028,"Include",305
"KY2010_e1","KY2010_e1_1","BLEMISH",1,"mixed",3,1870,"Include",306
"KY2010_e1","KY2010_e1_1","PILLAGE",1,"mixed",2,1594,"Include",307
"KY2010_e1","KY2010_e1_1","BARRIER",1,"mixed",3,1526,"Include",308
"KY2010_e1","KY2010_e1_1","CHARIOT",1,"mixed",4,1504,"Include",309
"KY2010_e1","KY2010_e1_1","TAPPING",1,"mixed",3,2036,"Include",310
"KY2010_e1","KY2010_e1_1","CHASSIS",1,"mixed",5,3032,"Include",311
"KY2010_e1","KY2010_e1_1","POSTMEN",1,"mixed",3,4667,"Include",312
"KY2010_e1","KY2010_e1_1","AFFRONT",1,"mixed",4,2832,"Include",313
"KY2010_e1","KY2010_e1_1","CRIMEAN",1,"mixed",3,1339,"Include",314
"KY2010_e1","KY2010_e1_1","GALLOWS",0,"mixed",3,1061,"Include",315
"KY2010_e1","KY2010_e1_1","MYNHEER",0,"mixed",3,699,"Include",316
"KY2010_e1","KY2010_e1_1","CARBINE",1,"mixed",3,841,"Include",317
"KY2010_e1","KY2010_e1_1","COMPOST",1,"mixed",4,2107,"Include",318
"KY2010_e1","KY2010_e1_1","DISCARD",0,"mixed",3,2800,"Include",319
"KY2010_e1","KY2010_e1_1","BOXWOOD",0,"mixed",3,757,"Include",320
"KY2010_e1","KY2010_e1_1","RAMPART",0,"pure",2,4276,"Include",321
"KY2010_e1","KY2010_e1_1","FUCHSIA",0,"pure",1,1367,"Include",322
"KY2010_e1","KY2010_e1_1","FLUTTER",1,"pure",2,3662,"Include",323
"KY2010_e1","KY2010_e1_1","MARQUIS",1,"pure",5,3541,"Include",324
"KY2010_e1","KY2010_e1_1","PROPHET",0,"pure",3,2857,"Include",325
"KY2010_e1","KY2010_e1_1","STUMBLE",0,"pure",2,1271,"Include",326
"KY2010_e1","KY2010_e1_1","COURIER",0,"pure",2,923,"Include",327
"KY2010_e1","KY2010_e1_1","QUADRIC",0,"pure",2,937,"Include",328
"KY2010_e1","KY2010_e1_1","STARDOM",1,"pure",2,1007,"Include",329
"KY2010_e1","KY2010_e1_1","MIDWIFE",0,"pure",2,1128,"Include",330
"KY2010_e1","KY2010_e1_1","PLASTER",1,"pure",2,729,"Include",331
"KY2010_e1","KY2010_e1_1","SAVIOUR",0,"pure",2,791,"Include",332
"KY2010_e1","KY2010_e1_1","THIMBLE",0,"pure",2,1019,"Include",333
"KY2010_e1","KY2010_e1_1","OUTFLOW",0,"pure",2,1216,"Include",334
"KY2010_e1","KY2010_e1_1","BEQUEST",0,"pure",2,1837,"Include",335
"KY2010_e1","KY2010_e1_1","GRENADE",1,"pure",1,1103,"Include",336
"KY2010_e1","KY2010_e1_1","LEASING",1,"pure",2,736,"Include",337
"KY2010_e1","KY2010_e1_1","CRUISER",0,"pure",2,985,"Include",338
"KY2010_e1","KY2010_e1_1","SLEEPER",1,"pure",2,814,"Include",339
"KY2010_e1","KY2010_e1_1","MANDATE",1,"pure",3,2359,"Include",340
"KY2010_e1","KY2010_e1_1","STIRRUP",0,"pure",2,1296,"Include",341
"KY2010_e1","KY2010_e1_1","PANTHER",1,"pure",6,2863,"Include",342
"KY2010_e1","KY2010_e1_1","CRICKET",1,"pure",5,3163,"Include",343
"KY2010_e1","KY2010_e1_1","SHALLOW",0,"pure",3,2010,"Include",344
"KY2010_e1","KY2010_e1_1","QUARTET",1,"pure",6,2226,"Include",345
"KY2010_e1","KY2010_e1_1","FLUENCY",1,"pure",3,2711,"Include",346
"KY2010_e1","KY2010_e1_1","HUTMENT",1,"pure",2,2125,"Include",347
"KY2010_e1","KY2010_e1_1","LEISURE",0,"pure",3,1689,"Include",348
"KY2010_e1","KY2010_e1_1","RADIANT",0,"pure",2,797,"Include",349
"KY2010_e1","KY2010_e1_1","CLIMATE",1,"pure",2,1055,"Include",350
"KY2010_e1","KY2010_e1_1","HALCYON",0,"pure",2,750,"Include",351
"KY2010_e1","KY2010_e1_1","BITTERS",0,"pure",2,1348,"Include",352
"KY2010_e1","KY2010_e1_1","SUBLIME",1,"pure",2,802,"Include",353
"KY2010_e1","KY2010_e1_1","HAMMOCK",1,"pure",3,2375,"Include",354
"KY2010_e1","KY2010_e1_1","BEARING",0,"pure",3,1238,"Include",355
"KY2010_e1","KY2010_e1_1","CYPRESS",0,"pure",4,1609,"Include",356
"KY2010_e1","KY2010_e1_1","QUINTET",1,"pure",6,2652,"Include",357
"KY2010_e1","KY2010_e1_1","PUNSTER",0,"pure",2,4727,"Include",358
"KY2010_e1","KY2010_e1_1","STOPPER",1,"pure",1,1809,"Include",359
"KY2010_e1","KY2010_e1_1","MONSOON",0,"pure",3,2225,"Include",360
"KY2010_e1","KY2010_e1_1","ADJUNCT",1,"pure",3,1908,"Include",361
"KY2010_e1","KY2010_e1_1","WITNESS",1,"pure",3,1243,"Include",362
"KY2010_e1","KY2010_e1_1","SABBATH",0,"pure",2,1385,"Include",363
"KY2010_e1","KY2010_e1_1","MUFFLER",0,"pure",3,1630,"Include",364
"KY2010_e1","KY2010_e1_1","TRIUMPH",0,"pure",3,1151,"Include",365
"KY2010_e1","KY2010_e1_1","SHUTTER",1,"pure",6,2637,"Include",366
"KY2010_e1","KY2010_e1_1","GENTILE",1,"pure",5,1654,"Include",367
"KY2010_e1","KY2010_e1_1","SURPLUS",1,"pure",5,1218,"Include",368
"KY2010_e1","KY2010_e1_1","PURSUIT",1,"pure",4,1200,"Include",369
"KY2010_e1","KY2010_e1_1","ACTRESS",1,"pure",2,2417,"Include",370
"KY2010_e1","KY2010_e1_1","TYPHOON",1,"pure",6,5920,"Include",371
"KY2010_e1","KY2010_e1_1","DRYNESS",0,"pure",3,2085,"Include",372
"KY2010_e1","KY2010_e1_1","CLOSURE",0,"pure",2,969,"Include",373
"KY2010_e1","KY2010_e1_1","PENANCE",0,"pure",2,1823,"Include",374
"KY2010_e1","KY2010_e1_1","WINDING",1,"pure",3,1065,"Include",375
"KY2010_e1","KY2010_e1_1","COSTUME",0,"pure",3,1194,"Include",376
"KY2010_e1","KY2010_e1_1","AUCTION",1,"pure",3,1019,"Include",377
"KY2010_e1","KY2010_e1_1","WAYSIDE",0,"pure",5,2007,"Include",378
"KY2010_e1","KY2010_e1_1","CULPRIT",0,"pure",5,2713,"Include",379
"KY2010_e1","KY2010_e1_1","GLAMOUR",1,"pure",5,3006,"Include",380
"KY2010_e1","KY2010_e1_1","CHAMFER",1,"pure",2,1957,"Include",381
"KY2010_e1","KY2010_e1_1","WARRIOR",1,"pure",2,792,"Include",382
"KY2010_e1","KY2010_e1_1","BURGLAR",0,"pure",2,1585,"Include",383
"KY2010_e1","KY2010_e1_1","BIPLANE",1,"pure",2,1213,"Include",384
"KY2010_e1","KY2010_e1_1","GARLAND",0,"pure",2,1350,"Include",385
"KY2010_e1","KY2010_e1_1","DEFENCE",1,"pure",2,1018,"Include",386
"KY2010_e1","KY2010_e1_1","PALFREY",1,"pure",2,1061,"Include",387
"KY2010_e1","KY2010_e1_1","DISDAIN",1,"pure",5,3195,"Include",388
"KY2010_e1","KY2010_e1_1","SHUDDER",1,"pure",3,1887,"Include",389
"KY2010_e1","KY2010_e1_1","CREEPER",0,"pure",3,912,"Include",390
"KY2010_e1","KY2010_e1_1","BALLAST",1,"pure",3,1272,"Include",391
"KY2010_e1","KY2010_e1_1","REALIST",1,"pure",3,1191,"Include",392
"KY2010_e1","KY2010_e1_1","DOLPHIN",1,"pure",5,2430,"Include",393
"KY2010_e1","KY2010_e1_1","OUTRAGE",1,"pure",3,1736,"Include",394
"KY2010_e1","KY2010_e1_1","COMPASS",1,"pure",3,839,"Include",395
"KY2010_e1","KY2010_e1_1","SHOWMAN",1,"pure",3,724,"Include",396
"KY2010_e1","KY2010_e1_1","BRIGADE",1,"pure",3,936,"Include",397
"KY2010_e1","KY2010_e1_1","VELOURS",1,"pure",3,1908,"Include",398
"KY2010_e1","KY2010_e1_1","VOLTAGE",0,"pure",3,575,"Include",399
"KY2010_e1","KY2010_e1_1","TRIGGER",1,"pure",3,665,"Include",400
"KY2010_e1","KY2010_e1_1","SCHOLAR",1,"pure",3,547,"Include",401
"KY2010_e1","KY2010_e1_1","TROOPER",0,"pure",2,1152,"Include",402
"KY2010_e1","KY2010_e1_1","VAGRANT",0,"pure",3,897,"Include",403
"KY2010_e1","KY2010_e1_1","BAILIFF",1,"pure",3,729,"Include",404
"KY2010_e1","KY2010_e1_1","GRAMMAR",1,"pure",6,2610,"Include",405
"KY2010_e1","KY2010_e1_1","HESSIAN",1,"pure",5,2585,"Include",406
"KY2010_e1","KY2010_e1_1","ECLIPSE",1,"pure",3,2022,"Include",407
"KY2010_e1","KY2010_e1_1","BELOVED",0,"pure",3,785,"Include",408
"KY2010_e1","KY2010_e1_1","OBVERSE",1,"pure",3,1210,"Include",409
"KY2010_e1","KY2010_e1_1","VANTAGE",0,"pure",2,1553,"Include",410
"KY2010_e1","KY2010_e1_1","IMPLANT",1,"pure",2,844,"Include",411
"KY2010_e1","KY2010_e1_1","BOATMEN",0,"pure",2,1104,"Include",412
"KY2010_e1","KY2010_e1_1","CRUSADE",0,"pure",1,1805,"Include",413
"KY2010_e1","KY2010_e1_1","MASSEUR",1,"pure",2,1314,"Include",414
"KY2010_e1","KY2010_e1_1","KINGPIN",1,"pure",5,2874,"Include",415
"KY2010_e1","KY2010_e1_1","TRAILER",1,"pure",3,2879,"Include",416
"KY2010_e1","KY2010_e1_1","MILEAGE",0,"pure",2,2854,"Include",417
"KY2010_e1","KY2010_e1_1","CONVENT",0,"pure",2,1396,"Include",418
"KY2010_e1","KY2010_e1_1","CHOPPER",1,"pure",2,1187,"Include",419
"KY2010_e1","KY2010_e1_1","CAYENNE",1,"pure",1,1455,"Include",420
"KY2010_e1","KY2010_e1_1","IMPRINT",0,"pure",4,2846,"Include",421
"KY2010_e1","KY2010_e1_1","DUNGEON",0,"pure",2,1433,"Include",422
"KY2010_e1","KY2010_e1_1","GLIMMER",1,"pure",2,2406,"Include",423
"KY2010_e1","KY2010_e1_1","LARCENY",1,"pure",2,2046,"Include",424
"KY2010_e1","KY2010_e1_1","ANGUISH",1,"pure",2,2456,"Include",425
"KY2010_e1","KY2010_e1_1","ASSAULT",0,"pure",1,3081,"Include",426
"KY2010_e1","KY2010_e1_1","DRUMMER",1,"pure",6,2439,"Include",427
"KY2010_e1","KY2010_e1_1","SAUSAGE",0,"pure",3,1494,"Include",428
"KY2010_e1","KY2010_e1_1","SPILLER",1,"pure",3,1018,"Include",429
"KY2010_e1","KY2010_e1_1","CREVICE",1,"pure",3,973,"Include",430
"KY2010_e1","KY2010_e1_1","FERMENT",0,"pure",3,867,"Include",431
"KY2010_e1","KY2010_e1_1","SEAWEED",0,"pure",3,750,"Include",432
"KY2010_e1","KY2010_e1_1","CADMIUM",0,"pure",3,869,"Include",433
"KY2010_e1","KY2010_e1_1","PASTURE",1,"pure",3,904,"Include",434
"KY2010_e1","KY2010_e1_1","GRANITE",0,"pure",3,3722,"Include",435
"KY2010_e1","KY2010_e1_1","BOARDER",0,"pure",2,906,"Include",436
"KY2010_e1","KY2010_e1_1","SHOCKER",1,"pure",2,4690,"Include",437
"KY2010_e1","KY2010_e1_1","STEEPLE",1,"pure",2,1256,"Include",438
"KY2010_e1","KY2010_e1_1","BROCADE",1,"pure",2,775,"Include",439
"KY2010_e1","KY2010_e1_1","KREMLIN",0,"pure",2,1183,"Include",440
"KY2010_e1","KY2010_e1_1","FIXTURE",1,"pure",2,791,"Include",441
"KY2010_e1","KY2010_e1_1","PLEADER",0,"pure",2,868,"Include",442
"KY2010_e1","KY2010_e1_1","POSTMAN",0,"pure",3,887,"Include",443
"KY2010_e1","KY2010_e1_1","CURRANT",1,"pure",2,1848,"Include",444
"KY2010_e1","KY2010_e1_1","CARMINE",0,"pure",3,1766,"Include",445
"KY2010_e1","KY2010_e1_1","BRAZIER",0,"pure",3,718,"Include",446
"KY2010_e1","KY2010_e1_1","THINKER",0,"pure",3,1024,"Include",447
"KY2010_e1","KY2010_e1_1","NEUTRON",0,"pure",3,938,"Include",448
"KY2010_e1","KY2010_e1_1","DRINKER",1,"pure",3,1244,"Include",449
"KY2010_e1","KY2010_e1_1","MASTIFF",1,"pure",3,1319,"Include",450
"KY2010_e1","KY2010_e1_1","WHISKEY",1,"pure",2,1723,"Include",451
"KY2010_e1","KY2010_e1_1","CHANNEL",0,"pure",3,954,"Include",452
"KY2010_e1","KY2010_e1_1","MONARCH",0,"pure",3,782,"Include",453
"KY2010_e1","KY2010_e1_1","BELGIAN",0,"pure",3,3228,"Include",454
"KY2010_e1","KY2010_e1_1","CARRIER",1,"pure",3,2173,"Include",455
"KY2010_e1","KY2010_e1_1","PACKAGE",0,"pure",3,785,"Include",456
"KY2010_e1","KY2010_e1_1","TRUSTEE",1,"pure",3,784,"Include",457
"KY2010_e1","KY2010_e1_1","REFRAIN",0,"pure",3,1137,"Include",458
"KY2010_e1","KY2010_e1_1","KINSHIP",1,"pure",3,2155,"Include",459
"KY2010_e1","KY2010_e1_1","GINGHAM",1,"pure",6,2999,"Include",460
"KY2010_e1","KY2010_e1_1","SLUMBER",1,"pure",3,3186,"Include",461
"KY2010_e1","KY2010_e1_1","CADENCE",1,"pure",3,1282,"Include",462
"KY2010_e1","KY2010_e1_1","CONCORD",1,"pure",3,686,"Include",463
"KY2010_e1","KY2010_e1_1","ROEBUCK",1,"pure",3,1209,"Include",464
"KY2010_e1","KY2010_e1_1","CHUTNEY",1,"pure",6,2039,"Include",465
"KY2010_e1","KY2010_e1_1","PASSIVE",0,"pure",3,3635,"Include",466
"KY2010_e1","KY2010_e1_1","PASTIME",1,"pure",3,1147,"Include",467
"KY2010_e1","KY2010_e1_1","GRIMACE",1,"pure",4,2813,"Include",468
"KY2010_e1","KY2010_e1_1","RECOUNT",0,"pure",3,1164,"Include",469
"KY2010_e1","KY2010_e1_1","KETCHUP",0,"pure",1,1603,"Include",470
"KY2010_e1","KY2010_e1_1","BUILDER",1,"pure",2,2241,"Include",471
"KY2010_e1","KY2010_e1_1","TROLLEY",1,"pure",2,996,"Include",472
"KY2010_e1","KY2010_e1_1","BURGESS",1,"pure",6,2808,"Include",473
"KY2010_e1","KY2010_e1_1","SYMPTOM",1,"pure",3,3298,"Include",474
"KY2010_e1","KY2010_e1_1","TWISTER",1,"pure",3,1125,"Include",475
"KY2010_e1","KY2010_e1_1","TERTIAN",0,"pure",3,2465,"Include",476
"KY2010_e1","KY2010_e1_1","SURNAME",0,"pure",3,813,"Include",477
"KY2010_e1","KY2010_e1_1","BELLOWS",0,"pure",3,2182,"Include",478
"KY2010_e1","KY2010_e1_1","BANQUET",0,"pure",3,641,"Include",479
"KY2010_e1","KY2010_e1_1","CHANTER",0,"pure",3,599,"Include",480
"KY2010_e1","KY2010_e1_1","FOREMAN",0,"pure",4,1535,"Include",481
"KY2010_e1","KY2010_e1_1","CHOWDER",1,"pure",3,1293,"Include",482
"KY2010_e1","KY2010_e1_1","HOLLAND",0,"pure",3,1020,"Include",483
"KY2010_e1","KY2010_e1_1","VENISON",1,"pure",3,1169,"Include",484
"KY2010_e1","KY2010_e1_1","SPITTLE",1,"pure",3,1372,"Include",485
"KY2010_e1","KY2010_e1_1","TEXTILE",1,"pure",3,975,"Include",486
"KY2010_e1","KY2010_e1_1","GLACIER",1,"pure",4,1631,"Include",487
"KY2010_e1","KY2010_e1_1","BREWERY",0,"pure",3,610,"Include",488
"KY2010_e1","KY2010_e1_1","PEASANT",1,"pure",3,1019,"Include",489
"KY2010_e1","KY2010_e1_1","VIBRANT",1,"pure",4,1052,"Include",490
"KY2010_e1","KY2010_e1_1","PICKAXE",1,"pure",3,1594,"Include",491
"KY2010_e1","KY2010_e1_1","TORRENT",0,"pure",3,1991,"Include",492
"KY2010_e1","KY2010_e1_1","SUNRISE",0,"pure",3,975,"Include",493
"KY2010_e1","KY2010_e1_1","LANDING",0,"pure",3,766,"Include",494
"KY2010_e1","KY2010_e1_1","TORTURE",1,"pure",3,945,"Include",495
"KY2010_e1","KY2010_e1_1","SPARKLE",1,"pure",3,912,"Include",496
"KY2010_e1","KY2010_e1_1","BELLMAN",0,"pure",3,1249,"Include",497
"KY2010_e1","KY2010_e1_1","HAIRPIN",1,"pure",4,1960,"Include",498
"KY2010_e1","KY2010_e1_1","HOLSTER",0,"pure",3,994,"Include",499
"KY2010_e1","KY2010_e1_1","STERNUM",0,"pure",3,1113,"Include",500
"KY2010_e1","KY2010_e1_1","BURMESE",1,"pure",6,3001,"Include",501
"KY2010_e1","KY2010_e1_1","PARQUET",1,"pure",3,2001,"Include",502
"KY2010_e1","KY2010_e1_1","SHIPPER",0,"pure",3,930,"Include",503
"KY2010_e1","KY2010_e1_1","SCHERZO",0,"pure",2,1663,"Include",504
"KY2010_e1","KY2010_e1_1","WORSTED",0,"pure",3,1847,"Include",505
"KY2010_e1","KY2010_e1_1","CHORALE",1,"pure",3,1866,"Include",506
"KY2010_e1","KY2010_e1_1","MASSAGE",1,"pure",3,1669,"Include",507
"KY2010_e1","KY2010_e1_1","THUNDER",0,"pure",3,1408,"Include",508
"KY2010_e1","KY2010_e1_1","BLUNDER",1,"pure",3,1345,"Include",509
"KY2010_e1","KY2010_e1_1","HERRING",0,"pure",3,910,"Include",510
"KY2010_e1","KY2010_e1_1","FILBERT",0,"pure",3,899,"Include",511
"KY2010_e1","KY2010_e1_1","TERRAIN",1,"pure",4,2531,"Include",512
"KY2010_e1","KY2010_e1_1","WORKMAN",0,"pure",3,1189,"Include",513
"KY2010_e1","KY2010_e1_1","PROVERB",0,"pure",3,1374,"Include",514
"KY2010_e1","KY2010_e1_1","PLATTER",0,"pure",3,1322,"Include",515
"KY2010_e1","KY2010_e1_1","CORDIAL",1,"pure",4,1845,"Include",516
"KY2010_e1","KY2010_e1_1","TRAMWAY",1,"pure",3,787,"Include",517
"KY2010_e1","KY2010_e1_1","SPUTNIK",0,"pure",3,672,"Include",518
"KY2010_e1","KY2010_e1_1","RESPITE",0,"pure",3,914,"Include",519
"KY2010_e1","KY2010_e1_1","LUGGAGE",0,"pure",3,1146,"Include",520
"KY2010_e1","KY2010_e1_1","ANTIQUE",0,"pure",3,947,"Include",521
"KY2010_e1","KY2010_e1_1","LIQUEUR",1,"pure",3,1504,"Include",522
"KY2010_e1","KY2010_e1_1","TRIPLET",1,"pure",6,1975,"Include",523
"KY2010_e1","KY2010_e1_1","CRIMSON",0,"pure",3,2205,"Include",524
"KY2010_e1","KY2010_e1_1","GRIZZLY",0,"pure",3,1208,"Include",525
"KY2010_e1","KY2010_e1_1","CARBIDE",0,"pure",3,1393,"Include",526
"KY2010_e1","KY2010_e1_1","SPECTRE",1,"pure",3,1424,"Include",527
"KY2010_e1","KY2010_e1_1","GRIFFIN",1,"pure",3,1497,"Include",528
"KY2010_e1","KY2010_e1_1","BISCUIT",0,"pure",3,866,"Include",529
"KY2010_e1","KY2010_e1_1","LOGGING",0,"pure",3,601,"Include",530
"KY2010_e1","KY2010_e1_1","VACCINE",0,"pure",2,1915,"Include",531
"KY2010_e1","KY2010_e1_1","CONFINE",1,"pure",3,2458,"Include",532
"KY2010_e1","KY2010_e1_1","SALIENT",1,"pure",3,1292,"Include",533
"KY2010_e1","KY2010_e1_1","COUNSEL",1,"pure",4,1827,"Include",534
"KY2010_e1","KY2010_e1_1","BOULDER",1,"pure",6,1783,"Include",535
"KY2010_e1","KY2010_e1_1","FOUNDER",0,"pure",3,4005,"Include",536
"KY2010_e1","KY2010_e1_1","SOLVENT",0,"pure",3,1033,"Include",537
"KY2010_e1","KY2010_e1_1","PLANNER",1,"pure",3,1318,"Include",538
"KY2010_e1","KY2010_e1_1","DREAMER",1,"pure",3,804,"Include",539
"KY2010_e1","KY2010_e1_1","TICKING",0,"pure",3,497,"Include",540
"KY2010_e1","KY2010_e1_1","CRUPPER",1,"pure",3,485,"Include",541
"KY2010_e1","KY2010_e1_1","HEIRESS",1,"pure",6,2100,"Include",542
"KY2010_e1","KY2010_e1_1","PREMIER",0,"pure",4,2713,"Include",543
"KY2010_e1","KY2010_e1_1","FANFARE",1,"pure",3,1433,"Include",544
"KY2010_e1","KY2010_e1_1","DOORWAY",1,"pure",3,2768,"Include",545
"KY2010_e1","KY2010_e1_1","OUTPOST",0,"pure",3,1772,"Include",546
"KY2010_e1","KY2010_e1_1","COMMUNE",0,"pure",3,986,"Include",547
"KY2010_e1","KY2010_e1_1","EXPANSE",1,"pure",3,786,"Include",548
"KY2010_e1","KY2010_e1_1","RUFFIAN",0,"pure",3,1155,"Include",549
"KY2010_e1","KY2010_e1_1","BEDPOST",0,"pure",4,1714,"Include",550
"KY2010_e1","KY2010_e1_1","PHYSICS",0,"pure",3,1645,"Include",551
"KY2010_e1","KY2010_e1_1","OUTWARD",0,"pure",3,2070,"Include",552
"KY2010_e1","KY2010_e1_1","TRAPPER",1,"pure",3,2135,"Include",553
"KY2010_e1","KY2010_e1_1","CORSAGE",0,"pure",4,2255,"Include",554
"KY2010_e1","KY2010_e1_1","COMMONS",0,"pure",3,1413,"Include",555
"KY2010_e1","KY2010_e1_1","RACQUET",0,"pure",3,1305,"Include",556
"KY2010_e1","KY2010_e1_1","RAILWAY",1,"pure",3,1168,"Include",557
"KY2010_e1","KY2010_e1_1","STAGGER",0,"pure",3,963,"Include",558
"KY2010_e1","KY2010_e1_1","CABBAGE",1,"pure",3,1535,"Include",559
"KY2010_e1","KY2010_e1_1","STYLIST",0,"pure",3,834,"Include",560
"KY2010_e1","KY2010_e1_1","COMPACT",0,"pure",3,1741,"Include",561
"KY2010_e1","KY2010_e1_1","SUMMONS",0,"pure",3,1520,"Include",562
"KY2010_e1","KY2010_e1_1","GRANDMA",0,"pure",1,1727,"Include",563
"KY2010_e1","KY2010_e1_1","TRAMMEL",1,"pure",4,3012,"Include",564
"KY2010_e1","KY2010_e1_1","WEDLOCK",1,"pure",3,1163,"Include",565
"KY2010_e1","KY2010_e1_1","GELDING",1,"pure",3,898,"Include",566
"KY2010_e1","KY2010_e1_1","LATTICE",0,"pure",3,918,"Include",567
"KY2010_e1","KY2010_e1_1","SHOWMEN",1,"pure",3,1348,"Include",568
"KY2010_e1","KY2010_e1_1","DWELLER",0,"pure",3,948,"Include",569
"KY2010_e1","KY2010_e1_1","ENTRANT",0,"pure",3,706,"Include",570
"KY2010_e1","KY2010_e1_1","PURPORT",1,"pure",3,797,"Include",571
"KY2010_e1","KY2010_e1_1","SHOOTER",0,"pure",3,813,"Include",572
"KY2010_e1","KY2010_e1_1","REDWOOD",0,"pure",3,956,"Include",573
"KY2010_e1","KY2010_e1_1","CATFISH",0,"pure",3,945,"Include",574
"KY2010_e1","KY2010_e1_1","BOATMAN",1,"pure",3,1049,"Include",575
"KY2010_e1","KY2010_e1_1","EXCERPT",1,"pure",3,1639,"Include",576
"KY2010_e1","KY2010_e1_1","CHUCKLE",0,"pure",3,950,"Include",577
"KY2010_e1","KY2010_e1_1","SHERIFF",0,"pure",3,967,"Include",578
"KY2010_e1","KY2010_e1_1","CONVICT",0,"pure",3,1221,"Include",579
"KY2010_e1","KY2010_e1_1","STEALER",0,"pure",3,759,"Include",580
"KY2010_e1","KY2010_e1_1","PAGEANT",0,"pure",3,981,"Include",581
"KY2010_e1","KY2010_e1_1","CUISINE",1,"pure",2,1770,"Include",582
"KY2010_e1","KY2010_e1_1","WHISTLE",0,"pure",3,976,"Include",583
"KY2010_e1","KY2010_e1_1","BOREDOM",0,"pure",3,1046,"Include",584
"KY2010_e1","KY2010_e1_1","WEEKDAY",0,"pure",2,986,"Include",585
"KY2010_e1","KY2010_e1_1","CLUSTER",0,"pure",3,1986,"Include",586
"KY2010_e1","KY2010_e1_1","BOYCOTT",1,"pure",3,1172,"Include",587
"KY2010_e1","KY2010_e1_1","BATTING",1,"pure",2,1278,"Include",588
"KY2010_e1","KY2010_e1_1","WORKMEN",1,"pure",3,1208,"Include",589
"KY2010_e1","KY2010_e1_1","CIRCUIT",1,"pure",3,1328,"Include",590
"KY2010_e1","KY2010_e1_1","LOMBARD",0,"pure",2,1675,"Include",591
"KY2010_e1","KY2010_e1_1","SYRINGE",0,"pure",2,1939,"Include",592
"KY2010_e1","KY2010_e1_1","INSIGHT",0,"pure",2,1093,"Include",593
"KY2010_e1","KY2010_e1_1","TUMBLER",0,"pure",2,803,"Include",594
"KY2010_e1","KY2010_e1_1","HOSTLER",1,"pure",2,1055,"Include",595
"KY2010_e1","KY2010_e1_1","CONTOUR",1,"pure",2,1410,"Include",596
"KY2010_e1","KY2010_e1_1","LEATHER",1,"pure",3,1771,"Include",597
"KY2010_e1","KY2010_e1_1","REDRESS",1,"pure",3,1205,"Include",598
"KY2010_e1","KY2010_e1_1","LAMPOON",1,"pure",4,1302,"Include",599
"KY2010_e1","KY2010_e1_1","INQUEST",1,"pure",4,1745,"Include",600
"KY2010_e1","KY2010_e1_1","MARXIST",1,"pure",1,2009,"Include",601
"KY2010_e1","KY2010_e1_1","GATEWAY",1,"pure",3,6334,"Include",602
"KY2010_e1","KY2010_e1_1","LAUNDRY",1,"pure",2,1592,"Include",603
"KY2010_e1","KY2010_e1_1","OATMEAL",0,"pure",1,1464,"Include",604
"KY2010_e1","KY2010_e1_1","FOOTMAN",1,"pure",2,1201,"Include",605
"KY2010_e1","KY2010_e1_1","DOGWOOD",0,"pure",2,1271,"Include",606
"KY2010_e1","KY2010_e1_1","HILLMAN",0,"pure",2,2596,"Include",607
"KY2010_e1","KY2010_e1_1","PRELUDE",0,"pure",2,3598,"Include",608
"KY2010_e1","KY2010_e1_1","TROTTER",0,"pure",3,2327,"Include",609
"KY2010_e1","KY2010_e1_1","LACQUER",1,"pure",3,1015,"Include",610
"KY2010_e1","KY2010_e1_1","TRIBUTE",1,"pure",3,924,"Include",611
"KY2010_e1","KY2010_e1_1","BOROUGH",0,"pure",3,1277,"Include",612
"KY2010_e1","KY2010_e1_1","DRIZZLE",1,"pure",3,1201,"Include",613
"KY2010_e1","KY2010_e1_1","RETREAT",1,"pure",3,841,"Include",614
"KY2010_e1","KY2010_e1_1","RIGGING",0,"pure",3,748,"Include",615
"KY2010_e1","KY2010_e1_1","SAWDUST",0,"pure",3,634,"Include",616
"KY2010_e1","KY2010_e1_1","DICKENS",1,"pure",3,1016,"Include",617
"KY2010_e1","KY2010_e1_1","TREASON",0,"pure",3,887,"Include",618
"KY2010_e1","KY2010_e1_1","GOODMAN",0,"pure",3,738,"Include",619
"KY2010_e1","KY2010_e1_1","SURGEON",0,"pure",3,1100,"Include",620
"KY2010_e1","KY2010_e1_1","CONDUIT",0,"pure",3,1888,"Include",621
"KY2010_e1","KY2010_e1_1","POLECAT",1,"pure",2,1882,"Include",622
"KY2010_e1","KY2010_e1_1","CHEMISE",1,"pure",6,3711,"Include",623
"KY2010_e1","KY2010_e1_1","CESSION",0,"pure",3,2020,"Include",624
"KY2010_e1","KY2010_e1_1","ESCHEAT",0,"pure",1,2032,"Include",625
"KY2010_e1","KY2010_e1_1","KINDRED",0,"pure",2,1445,"Include",626
"KY2010_e1","KY2010_e1_1","PLATEAU",0,"pure",3,1744,"Include",627
"KY2010_e1","KY2010_e1_1","COLLECT",0,"pure",3,1371,"Include",628
"KY2010_e1","KY2010_e1_1","WRINKLE",0,"pure",3,825,"Include",629
"KY2010_e1","KY2010_e1_1","SPINDLE",0,"pure",3,927,"Include",630
"KY2010_e1","KY2010_e1_1","FORELEG",0,"pure",3,1075,"Include",631
"KY2010_e1","KY2010_e1_1","SANDMAN",0,"pure",3,928,"Include",632
"KY2010_e1","KY2010_e1_1","SETTLER",1,"pure",3,1091,"Include",633
"KY2010_e1","KY2010_e1_1","GYMNAST",1,"pure",3,1656,"Include",634
"KY2010_e1","KY2010_e1_1","BOYHOOD",1,"pure",3,751,"Include",635
"KY2010_e1","KY2010_e1_1","HADDOCK",0,"pure",3,1374,"Include",636
"KY2010_e1","KY2010_e1_1","PEACOCK",1,"pure",6,2714,"Include",637
"KY2010_e1","KY2010_e1_1","LECTURE",0,"pure",2,2225,"Include",638
"KY2010_e1","KY2010_e1_1","MALTESE",1,"pure",4,2106,"Include",639
"KY2010_e1","KY2010_e1_1","BOOKLET",1,"pure",3,2475,"Include",640
"KY2010_e1","KY2010_e1_2","WRAPPER",0,"mixed",1,7859,"Include",1
"KY2010_e1","KY2010_e1_2","FIELDER",0,"mixed",1,1186,"Include",2
"KY2010_e1","KY2010_e1_2","TRIMMER",1,"mixed",6,4352,"Include",3
"KY2010_e1","KY2010_e1_2","THERMOS",0,"mixed",1,1566,"Include",4
"KY2010_e1","KY2010_e1_2","SPANGLE",0,"mixed",1,1516,"Include",5
"KY2010_e1","KY2010_e1_2","TWINKLE",0,"mixed",1,1003,"Include",6
"KY2010_e1","KY2010_e1_2","HARNESS",1,"mixed",6,1564,"Include",7
"KY2010_e1","KY2010_e1_2","CARCASS",1,"mixed",6,1202,"Include",8
"KY2010_e1","KY2010_e1_2","KEELSON",0,"mixed",1,1514,"Include",9
"KY2010_e1","KY2010_e1_2","MARTIAN",0,"mixed",1,1045,"Include",10
"KY2010_e1","KY2010_e1_2","POSTURE",0,"mixed",6,1677,"Include",11
"KY2010_e1","KY2010_e1_2","RECEIPT",1,"mixed",6,1348,"Include",12
"KY2010_e1","KY2010_e1_2","DENTIST",1,"mixed",6,830,"Include",13
"KY2010_e1","KY2010_e1_2","WASTAGE",1,"mixed",6,1823,"Include",14
"KY2010_e1","KY2010_e1_2","FAIRWAY",1,"mixed",6,1049,"Include",15
"KY2010_e1","KY2010_e1_2","TORSION",0,"mixed",2,2609,"Include",16
"KY2010_e1","KY2010_e1_2","CURLING",0,"mixed",2,1269,"Include",17
"KY2010_e1","KY2010_e1_2","TRUNDLE",1,"mixed",6,1997,"Include",18
"KY2010_e1","KY2010_e1_2","SERVANT",1,"mixed",2,2256,"Include",19
"KY2010_e1","KY2010_e1_2","CUSHION",1,"mixed",2,2014,"Include",20
"KY2010_e1","KY2010_e1_2","HAIRCUT",0,"mixed",2,1186,"Include",21
"KY2010_e1","KY2010_e1_2","MAUDLIN",0,"mixed",2,2976,"Include",22
"KY2010_e1","KY2010_e1_2","SOUFFLE",0,"mixed",4,4643,"Include",23
"KY2010_e1","KY2010_e1_2","POINTER",0,"mixed",4,4620,"Include",24
"KY2010_e1","KY2010_e1_2","EARNEST",1,"mixed",6,4511,"Include",25
"KY2010_e1","KY2010_e1_2","RAMPAGE",1,"mixed",6,1303,"Include",26
"KY2010_e1","KY2010_e1_2","POSTMEN",1,"mixed",6,1182,"Include",27
"KY2010_e1","KY2010_e1_2","PUMPKIN",0,"mixed",1,1807,"Include",28
"KY2010_e1","KY2010_e1_2","BAGGAGE",1,"mixed",6,1618,"Include",29
"KY2010_e1","KY2010_e1_2","RUBBISH",1,"mixed",6,1433,"Include",30
"KY2010_e1","KY2010_e1_2","RAILING",1,"mixed",3,4130,"Include",31
"KY2010_e1","KY2010_e1_2","PILLAGE",1,"mixed",3,1772,"Include",32
"KY2010_e1","KY2010_e1_2","WHITING",0,"mixed",3,1432,"Include",33
"KY2010_e1","KY2010_e1_2","SEGMENT",1,"mixed",6,4188,"Include",34
"KY2010_e1","KY2010_e1_2","PENSION",0,"mixed",4,2969,"Include",35
"KY2010_e1","KY2010_e1_2","TERRIER",0,"mixed",1,2160,"Include",36
"KY2010_e1","KY2010_e1_2","MYNHEER",0,"mixed",1,1205,"Include",37
"KY2010_e1","KY2010_e1_2","VERNIER",0,"mixed",1,1154,"Include",38
"KY2010_e1","KY2010_e1_2","DISSENT",0,"mixed",5,4876,"Include",39
"KY2010_e1","KY2010_e1_2","BACKLOG",1,"mixed",6,1886,"Include",40
"KY2010_e1","KY2010_e1_2","PASTERN",0,"mixed",2,3680,"Include",41
"KY2010_e1","KY2010_e1_2","GOURMET",0,"mixed",1,1455,"Include",42
"KY2010_e1","KY2010_e1_2","BLOSSOM",1,"mixed",1,1179,"Include",43
"KY2010_e1","KY2010_e1_2","LIGHTER",0,"mixed",5,2464,"Include",44
"KY2010_e1","KY2010_e1_2","UPRIGHT",0,"mixed",6,1904,"Include",45
"KY2010_e1","KY2010_e1_2","CLEANER",1,"mixed",6,1340,"Include",46
"KY2010_e1","KY2010_e1_2","MOORING",1,"mixed",6,897,"Include",47
"KY2010_e1","KY2010_e1_2","GODSEND",0,"mixed",6,1117,"Include",48
"KY2010_e1","KY2010_e1_2","FATIGUE",1,"mixed",6,1928,"Include",49
"KY2010_e1","KY2010_e1_2","MISSIVE",0,"mixed",1,1718,"Include",50
"KY2010_e1","KY2010_e1_2","PUZZLER",0,"mixed",1,2228,"Include",51
"KY2010_e1","KY2010_e1_2","INCENSE",1,"mixed",6,1562,"Include",52
"KY2010_e1","KY2010_e1_2","TERRACE",0,"mixed",6,2516,"Include",53
"KY2010_e1","KY2010_e1_2","PULLMAN",0,"mixed",6,2336,"Include",54
"KY2010_e1","KY2010_e1_2","GENTIAN",0,"mixed",1,1971,"Include",55
"KY2010_e1","KY2010_e1_2","FANCIER",1,"mixed",6,2370,"Include",56
"KY2010_e1","KY2010_e1_2","TRAWLER",1,"mixed",6,1289,"Include",57
"KY2010_e1","KY2010_e1_2","PROVOST",1,"mixed",6,937,"Include",58
"KY2010_e1","KY2010_e1_2","SCATTER",0,"mixed",1,1873,"Include",59
"KY2010_e1","KY2010_e1_2","SUCTION",0,"mixed",1,2498,"Include",60
"KY2010_e1","KY2010_e1_2","CRUELTY",1,"mixed",6,1527,"Include",61
"KY2010_e1","KY2010_e1_2","KINGDOM",1,"mixed",6,987,"Include",62
"KY2010_e1","KY2010_e1_2","GALLOWS",0,"mixed",4,3145,"Include",63
"KY2010_e1","KY2010_e1_2","TIGRESS",1,"mixed",6,1539,"Include",64
"KY2010_e1","KY2010_e1_2","THICKET",1,"mixed",6,991,"Include",65
"KY2010_e1","KY2010_e1_2","MONSTER",0,"mixed",4,2953,"Include",66
"KY2010_e1","KY2010_e1_2","LANTERN",0,"mixed",1,1529,"Include",67
"KY2010_e1","KY2010_e1_2","INVERSE",1,"mixed",6,1484,"Include",68
"KY2010_e1","KY2010_e1_2","REBIRTH",1,"mixed",6,1475,"Include",69
"KY2010_e1","KY2010_e1_2","PITFALL",1,"mixed",6,935,"Include",70
"KY2010_e1","KY2010_e1_2","NUCLEUS",0,"mixed",1,1417,"Include",71
"KY2010_e1","KY2010_e1_2","PLUMBER",0,"mixed",1,1176,"Include",72
"KY2010_e1","KY2010_e1_2","TABLEAU",0,"mixed",1,1026,"Include",73
"KY2010_e1","KY2010_e1_2","FORFEIT",0,"mixed",2,2392,"Include",74
"KY2010_e1","KY2010_e1_2","SPONSOR",1,"mixed",1,1741,"Include",75
"KY2010_e1","KY2010_e1_2","PRESAGE",0,"mixed",5,3345,"Include",76
"KY2010_e1","KY2010_e1_2","HATCHET",1,"mixed",6,1309,"Include",77
"KY2010_e1","KY2010_e1_2","TRESTLE",0,"mixed",6,1613,"Include",78
"KY2010_e1","KY2010_e1_2","EMBRACE",1,"mixed",1,1517,"Include",79
"KY2010_e1","KY2010_e1_2","FIGMENT",1,"mixed",6,2023,"Include",80
"KY2010_e1","KY2010_e1_2","PICKING",0,"mixed",1,3404,"Include",81
"KY2010_e1","KY2010_e1_2","CLIPPER",0,"mixed",1,1404,"Include",82
"KY2010_e1","KY2010_e1_2","BLEMISH",1,"mixed",6,1548,"Include",83
"KY2010_e1","KY2010_e1_2","NOSTRIL",1,"mixed",6,1282,"Include",84
"KY2010_e1","KY2010_e1_2","PHALANX",0,"mixed",1,1722,"Include",85
"KY2010_e1","KY2010_e1_2","DUSTBIN",1,"mixed",6,1797,"Include",86
"KY2010_e1","KY2010_e1_2","PHOENIX",1,"mixed",6,1112,"Include",87
"KY2010_e1","KY2010_e1_2","DISCORD",1,"mixed",6,1045,"Include",88
"KY2010_e1","KY2010_e1_2","HANGMAN",1,"mixed",6,940,"Include",89
"KY2010_e1","KY2010_e1_2","IMPRESS",1,"mixed",6,829,"Include",90
"KY2010_e1","KY2010_e1_2","GALLANT",1,"mixed",1,1457,"Include",91
"KY2010_e1","KY2010_e1_2","DISCARD",0,"mixed",1,2251,"Include",92
"KY2010_e1","KY2010_e1_2","SPENCER",1,"mixed",6,3436,"Include",93
"KY2010_e1","KY2010_e1_2","PORTAGE",0,"mixed",6,1474,"Include",94
"KY2010_e1","KY2010_e1_2","DESPAIR",1,"mixed",6,1178,"Include",95
"KY2010_e1","KY2010_e1_2","TIDINGS",1,"mixed",1,1569,"Include",96
"KY2010_e1","KY2010_e1_2","SACKING",1,"mixed",6,2316,"Include",97
"KY2010_e1","KY2010_e1_2","CANTEEN",1,"mixed",1,1417,"Include",98
"KY2010_e1","KY2010_e1_2","STRATUM",1,"mixed",6,2193,"Include",99
"KY2010_e1","KY2010_e1_2","WHIPPET",1,"mixed",6,1091,"Include",100
"KY2010_e1","KY2010_e1_2","BULWARK",0,"mixed",6,955,"Include",101
"KY2010_e1","KY2010_e1_2","NURSERY",0,"mixed",6,1867,"Include",102
"KY2010_e1","KY2010_e1_2","JACKASS",1,"mixed",6,842,"Include",103
"KY2010_e1","KY2010_e1_2","DESSERT",1,"mixed",6,798,"Include",104
"KY2010_e1","KY2010_e1_2","FRONTAL",1,"mixed",6,1025,"Include",105
"KY2010_e1","KY2010_e1_2","STATURE",1,"mixed",6,767,"Include",106
"KY2010_e1","KY2010_e1_2","CAPSTAN",0,"mixed",1,1830,"Include",107
"KY2010_e1","KY2010_e1_2","BLUBBER",1,"mixed",6,1559,"Include",108
"KY2010_e1","KY2010_e1_2","REMNANT",0,"mixed",6,2924,"Include",109
"KY2010_e1","KY2010_e1_2","VICEROY",0,"mixed",2,3034,"Include",110
"KY2010_e1","KY2010_e1_2","LAYETTE",0,"mixed",2,1217,"Include",111
"KY2010_e1","KY2010_e1_2","FOUNDRY",1,"mixed",2,1329,"Include",112
"KY2010_e1","KY2010_e1_2","FLORIST",1,"mixed",6,1784,"Include",113
"KY2010_e1","KY2010_e1_2","HAYWARD",1,"mixed",6,681,"Include",114
"KY2010_e1","KY2010_e1_2","CALCIUM",1,"mixed",6,776,"Include",115
"KY2010_e1","KY2010_e1_2","VERMEIL",0,"mixed",6,1728,"Include",116
"KY2010_e1","KY2010_e1_2","SURMISE",0,"mixed",1,1581,"Include",117
"KY2010_e1","KY2010_e1_2","BRISTLE",0,"mixed",1,936,"Include",118
"KY2010_e1","KY2010_e1_2","CRIMEAN",1,"mixed",6,1743,"Include",119
"KY2010_e1","KY2010_e1_2","PRECEPT",0,"mixed",4,3122,"Include",120
"KY2010_e1","KY2010_e1_2","REMORSE",0,"mixed",6,1809,"Include",121
"KY2010_e1","KY2010_e1_2","TEMPTER",0,"mixed",6,1812,"Include",122
"KY2010_e1","KY2010_e1_2","COMPOST",1,"mixed",6,922,"Include",123
"KY2010_e1","KY2010_e1_2","SCANDAL",0,"mixed",1,1622,"Include",124
"KY2010_e1","KY2010_e1_2","BARRAGE",1,"mixed",1,1223,"Include",125
"KY2010_e1","KY2010_e1_2","TOURIST",0,"mixed",1,1019,"Include",126
"KY2010_e1","KY2010_e1_2","INCLINE",1,"mixed",6,1458,"Include",127
"KY2010_e1","KY2010_e1_2","IMPASSE",0,"mixed",1,1799,"Include",128
"KY2010_e1","KY2010_e1_2","QUANTUM",0,"mixed",1,1770,"Include",129
"KY2010_e1","KY2010_e1_2","BOUQUET",0,"mixed",1,2244,"Include",130
"KY2010_e1","KY2010_e1_2","VULTURE",1,"mixed",6,1442,"Include",131
"KY2010_e1","KY2010_e1_2","OUTGROW",0,"mixed",6,1872,"Include",132
"KY2010_e1","KY2010_e1_2","GODDESS",1,"mixed",6,716,"Include",133
"KY2010_e1","KY2010_e1_2","CARBINE",1,"mixed",6,1099,"Include",134
"KY2010_e1","KY2010_e1_2","HEATHER",1,"mixed",6,845,"Include",135
"KY2010_e1","KY2010_e1_2","VINTAGE",0,"mixed",6,1057,"Include",136
"KY2010_e1","KY2010_e1_2","SOJOURN",0,"mixed",1,1303,"Include",137
"KY2010_e1","KY2010_e1_2","FREEMAN",0,"mixed",1,991,"Include",138
"KY2010_e1","KY2010_e1_2","BAPTIST",0,"mixed",1,703,"Include",139
"KY2010_e1","KY2010_e1_2","SURTOUT",1,"mixed",1,644,"Include",140
"KY2010_e1","KY2010_e1_2","PIANIST",1,"mixed",6,1537,"Include",141
"KY2010_e1","KY2010_e1_2","BRONCHI",0,"mixed",1,1446,"Include",142
"KY2010_e1","KY2010_e1_2","ARMHOLE",0,"mixed",1,779,"Include",143
"KY2010_e1","KY2010_e1_2","CHASSIS",1,"mixed",6,1395,"Include",144
"KY2010_e1","KY2010_e1_2","GARMENT",0,"mixed",4,3035,"Include",145
"KY2010_e1","KY2010_e1_2","SHARPER",0,"mixed",4,2428,"Include",146
"KY2010_e1","KY2010_e1_2","PHANTOM",0,"mixed",1,1475,"Include",147
"KY2010_e1","KY2010_e1_2","SUNBURN",1,"mixed",6,1404,"Include",148
"KY2010_e1","KY2010_e1_2","ROSTRUM",1,"mixed",1,1390,"Include",149
"KY2010_e1","KY2010_e1_2","KNUCKLE",0,"mixed",1,1029,"Include",150
"KY2010_e1","KY2010_e1_2","DELIGHT",1,"mixed",1,1160,"Include",151
"KY2010_e1","KY2010_e1_2","TOPPING",0,"mixed",1,828,"Include",152
"KY2010_e1","KY2010_e1_2","MAGNATE",1,"mixed",6,1604,"Include",153
"KY2010_e1","KY2010_e1_2","ARSENIC",0,"mixed",1,2189,"Include",154
"KY2010_e1","KY2010_e1_2","CROZIER",1,"mixed",1,803,"Include",155
"KY2010_e1","KY2010_e1_2","PRAIRIE",1,"mixed",6,2043,"Include",156
"KY2010_e1","KY2010_e1_2","NEGLECT",0,"mixed",1,1773,"Include",157
"KY2010_e1","KY2010_e1_2","CYPRIAN",0,"mixed",1,970,"Include",158
"KY2010_e1","KY2010_e1_2","BALLOON",1,"mixed",6,1549,"Include",159
"KY2010_e1","KY2010_e1_2","PADLOCK",1,"mixed",6,917,"Include",160
"KY2010_e1","KY2010_e1_2","VERDICT",1,"mixed",6,1060,"Include",161
"KY2010_e1","KY2010_e1_2","OBSERVE",1,"mixed",6,1553,"Include",162
"KY2010_e1","KY2010_e1_2","FURNACE",0,"mixed",4,4202,"Include",163
"KY2010_e1","KY2010_e1_2","QUIBBLE",1,"mixed",6,1625,"Include",164
"KY2010_e1","KY2010_e1_2","PATRIOT",1,"mixed",6,990,"Include",165
"KY2010_e1","KY2010_e1_2","CUNNING",1,"mixed",1,1643,"Include",166
"KY2010_e1","KY2010_e1_2","DELTOID",0,"mixed",1,1077,"Include",167
"KY2010_e1","KY2010_e1_2","FIGHTER",1,"mixed",6,1475,"Include",168
"KY2010_e1","KY2010_e1_2","PROCTOR",1,"mixed",6,817,"Include",169
"KY2010_e1","KY2010_e1_2","SPATTER",1,"mixed",6,2341,"Include",170
"KY2010_e1","KY2010_e1_2","TRINKET",0,"mixed",1,1707,"Include",171
"KY2010_e1","KY2010_e1_2","TACTICS",0,"mixed",1,811,"Include",172
"KY2010_e1","KY2010_e1_2","ORCHARD",0,"mixed",1,800,"Include",173
"KY2010_e1","KY2010_e1_2","BAGPIPE",1,"mixed",6,2558,"Include",174
"KY2010_e1","KY2010_e1_2","RECLUSE",1,"mixed",1,1264,"Include",175
"KY2010_e1","KY2010_e1_2","CAUTION",0,"mixed",1,4295,"Include",176
"KY2010_e1","KY2010_e1_2","FEATHER",0,"mixed",6,2160,"Include",177
"KY2010_e1","KY2010_e1_2","PENDANT",0,"mixed",1,2562,"Include",178
"KY2010_e1","KY2010_e1_2","TURBINE",1,"mixed",1,1037,"Include",179
"KY2010_e1","KY2010_e1_2","MUSTANG",1,"mixed",6,1384,"Include",180
"KY2010_e1","KY2010_e1_2","CANVASS",1,"mixed",6,728,"Include",181
"KY2010_e1","KY2010_e1_2","VILLAIN",0,"mixed",1,2447,"Include",182
"KY2010_e1","KY2010_e1_2","EXHAUST",0,"mixed",6,2054,"Include",183
"KY2010_e1","KY2010_e1_2","LEAKAGE",1,"mixed",6,1049,"Include",184
"KY2010_e1","KY2010_e1_2","CHARIOT",1,"mixed",6,826,"Include",185
"KY2010_e1","KY2010_e1_2","PREFACE",1,"mixed",6,684,"Include",186
"KY2010_e1","KY2010_e1_2","WASTREL",1,"mixed",6,909,"Include",187
"KY2010_e1","KY2010_e1_2","SKIPPER",1,"mixed",6,984,"Include",188
"KY2010_e1","KY2010_e1_2","RECRUIT",0,"mixed",1,2173,"Include",189
"KY2010_e1","KY2010_e1_2","CASCADE",0,"mixed",1,1175,"Include",190
"KY2010_e1","KY2010_e1_2","FLICKER",0,"mixed",1,804,"Include",191
"KY2010_e1","KY2010_e1_2","BANSHEE",0,"mixed",1,1029,"Include",192
"KY2010_e1","KY2010_e1_2","SAPLING",1,"mixed",6,3062,"Include",193
"KY2010_e1","KY2010_e1_2","PADDOCK",0,"mixed",6,1329,"Include",194
"KY2010_e1","KY2010_e1_2","SKYLARK",0,"mixed",1,2145,"Include",195
"KY2010_e1","KY2010_e1_2","LONGING",1,"mixed",6,1991,"Include",196
"KY2010_e1","KY2010_e1_2","THEOREM",0,"mixed",1,1690,"Include",197
"KY2010_e1","KY2010_e1_2","INNINGS",0,"mixed",1,1070,"Include",198
"KY2010_e1","KY2010_e1_2","HORMONE",0,"mixed",1,809,"Include",199
"KY2010_e1","KY2010_e1_2","VARIANT",0,"mixed",6,1713,"Include",200
"KY2010_e1","KY2010_e1_2","CHAGRIN",0,"mixed",1,1895,"Include",201
"KY2010_e1","KY2010_e1_2","PERSIAN",0,"mixed",1,1147,"Include",202
"KY2010_e1","KY2010_e1_2","BLANKET",0,"mixed",1,892,"Include",203
"KY2010_e1","KY2010_e1_2","BACKING",0,"mixed",1,1947,"Include",204
"KY2010_e1","KY2010_e1_2","SPECTRA",0,"mixed",1,789,"Include",205
"KY2010_e1","KY2010_e1_2","STARTER",1,"mixed",1,811,"Include",206
"KY2010_e1","KY2010_e1_2","CURTAIN",1,"mixed",6,1627,"Include",207
"KY2010_e1","KY2010_e1_2","RAPPORT",1,"mixed",6,807,"Include",208
"KY2010_e1","KY2010_e1_2","BASTION",0,"mixed",1,1374,"Include",209
"KY2010_e1","KY2010_e1_2","TROLLOP",0,"mixed",1,725,"Include",210
"KY2010_e1","KY2010_e1_2","HACKSAW",1,"mixed",6,2093,"Include",211
"KY2010_e1","KY2010_e1_2","TEMPEST",1,"mixed",6,858,"Include",212
"KY2010_e1","KY2010_e1_2","RAPTURE",0,"mixed",6,745,"Include",213
"KY2010_e1","KY2010_e1_2","FOOTING",1,"mixed",1,1712,"Include",214
"KY2010_e1","KY2010_e1_2","QUARREL",1,"mixed",6,1427,"Include",215
"KY2010_e1","KY2010_e1_2","VARNISH",0,"mixed",6,803,"Include",216
"KY2010_e1","KY2010_e1_2","INKLING",0,"mixed",1,1558,"Include",217
"KY2010_e1","KY2010_e1_2","BEDSIDE",1,"mixed",6,1907,"Include",218
"KY2010_e1","KY2010_e1_2","UPSURGE",1,"mixed",6,2381,"Include",219
"KY2010_e1","KY2010_e1_2","GRATING",0,"mixed",1,1784,"Include",220
"KY2010_e1","KY2010_e1_2","SPINACH",1,"mixed",6,1415,"Include",221
"KY2010_e1","KY2010_e1_2","BREAKER",0,"mixed",4,2942,"Include",222
"KY2010_e1","KY2010_e1_2","TURNKEY",0,"mixed",1,1163,"Include",223
"KY2010_e1","KY2010_e1_2","CRUSHER",0,"mixed",1,1037,"Include",224
"KY2010_e1","KY2010_e1_2","CONVERT",1,"mixed",1,1203,"Include",225
"KY2010_e1","KY2010_e1_2","PROTEIN",0,"mixed",1,843,"Include",226
"KY2010_e1","KY2010_e1_2","BARRIER",1,"mixed",1,876,"Include",227
"KY2010_e1","KY2010_e1_2","BOOSTER",0,"mixed",6,3696,"Include",228
"KY2010_e1","KY2010_e1_2","LEAGUER",1,"mixed",1,1394,"Include",229
"KY2010_e1","KY2010_e1_2","TAPPING",1,"mixed",1,1207,"Include",230
"KY2010_e1","KY2010_e1_2","BOXWOOD",0,"mixed",1,1359,"Include",231
"KY2010_e1","KY2010_e1_2","HOSTAGE",1,"mixed",6,5602,"Include",232
"KY2010_e1","KY2010_e1_2","HEATHEN",1,"mixed",6,800,"Include",233
"KY2010_e1","KY2010_e1_2","REPROOF",1,"mixed",6,935,"Include",234
"KY2010_e1","KY2010_e1_2","OUTCOME",0,"mixed",6,889,"Include",235
"KY2010_e1","KY2010_e1_2","PAINTER",0,"mixed",1,2289,"Include",236
"KY2010_e1","KY2010_e1_2","PENNANT",0,"mixed",1,1224,"Include",237
"KY2010_e1","KY2010_e1_2","DESCENT",1,"mixed",6,1889,"Include",238
"KY2010_e1","KY2010_e1_2","TURMOIL",1,"mixed",6,1016,"Include",239
"KY2010_e1","KY2010_e1_2","WHEELER",0,"mixed",1,1594,"Include",240
"KY2010_e1","KY2010_e1_2","CROCHET",1,"mixed",6,1562,"Include",241
"KY2010_e1","KY2010_e1_2","FISSION",1,"mixed",6,912,"Include",242
"KY2010_e1","KY2010_e1_2","BASTARD",0,"mixed",1,2738,"Include",243
"KY2010_e1","KY2010_e1_2","RANCHER",1,"mixed",1,1068,"Include",244
"KY2010_e1","KY2010_e1_2","BRACKET",0,"mixed",1,1872,"Include",245
"KY2010_e1","KY2010_e1_2","PIGSKIN",0,"mixed",6,1918,"Include",246
"KY2010_e1","KY2010_e1_2","AIRPORT",0,"mixed",1,1182,"Include",247
"KY2010_e1","KY2010_e1_2","HARVEST",1,"mixed",6,1270,"Include",248
"KY2010_e1","KY2010_e1_2","SUNDOWN",1,"mixed",6,715,"Include",249
"KY2010_e1","KY2010_e1_2","HEARSAY",1,"mixed",6,848,"Include",250
"KY2010_e1","KY2010_e1_2","PROBATE",0,"mixed",4,2212,"Include",251
"KY2010_e1","KY2010_e1_2","PFENNIG",0,"mixed",1,1448,"Include",252
"KY2010_e1","KY2010_e1_2","BOOKING",0,"mixed",1,948,"Include",253
"KY2010_e1","KY2010_e1_2","MIXTURE",1,"mixed",6,1574,"Include",254
"KY2010_e1","KY2010_e1_2","MALAISE",0,"mixed",6,1693,"Include",255
"KY2010_e1","KY2010_e1_2","TYPHOID",1,"mixed",6,1198,"Include",256
"KY2010_e1","KY2010_e1_2","PLATOON",0,"mixed",1,1810,"Include",257
"KY2010_e1","KY2010_e1_2","LOBSTER",0,"mixed",6,3942,"Include",258
"KY2010_e1","KY2010_e1_2","COMPARE",0,"mixed",1,1575,"Include",259
"KY2010_e1","KY2010_e1_2","COMBINE",0,"mixed",1,8746,"Include",260
"KY2010_e1","KY2010_e1_2","FASCIST",0,"mixed",1,830,"Include",261
"KY2010_e1","KY2010_e1_2","PLUNDER",1,"mixed",1,757,"Include",262
"KY2010_e1","KY2010_e1_2","RAPPING",0,"mixed",4,2646,"Include",263
"KY2010_e1","KY2010_e1_2","COMRADE",1,"mixed",1,1757,"Include",264
"KY2010_e1","KY2010_e1_2","EXPLOIT",1,"mixed",4,1985,"Include",265
"KY2010_e1","KY2010_e1_2","VINTNER",1,"mixed",1,1190,"Include",266
"KY2010_e1","KY2010_e1_2","CANDOUR",0,"mixed",1,608,"Include",267
"KY2010_e1","KY2010_e1_2","TANGENT",1,"mixed",6,1530,"Include",268
"KY2010_e1","KY2010_e1_2","MERMAID",1,"mixed",6,689,"Include",269
"KY2010_e1","KY2010_e1_2","PREMISE",0,"mixed",6,912,"Include",270
"KY2010_e1","KY2010_e1_2","PIGMENT",1,"mixed",1,1874,"Include",271
"KY2010_e1","KY2010_e1_2","CONTEST",1,"mixed",1,985,"Include",272
"KY2010_e1","KY2010_e1_2","SUSPECT",0,"mixed",1,1027,"Include",273
"KY2010_e1","KY2010_e1_2","FACTION",0,"mixed",1,1111,"Include",274
"KY2010_e1","KY2010_e1_2","BURGHER",1,"mixed",6,1465,"Include",275
"KY2010_e1","KY2010_e1_2","SUBSOIL",1,"mixed",6,857,"Include",276
"KY2010_e1","KY2010_e1_2","BOLSTER",0,"mixed",6,754,"Include",277
"KY2010_e1","KY2010_e1_2","TRICKLE",1,"mixed",6,1049,"Include",278
"KY2010_e1","KY2010_e1_2","FORTUNE",1,"mixed",6,1152,"Include",279
"KY2010_e1","KY2010_e1_2","STATUTE",1,"mixed",6,729,"Include",280
"KY2010_e1","KY2010_e1_2","PROWESS",1,"mixed",1,1748,"Include",281
"KY2010_e1","KY2010_e1_2","CAPSULE",0,"mixed",1,847,"Include",282
"KY2010_e1","KY2010_e1_2","QUINTUS",0,"mixed",1,1002,"Include",283
"KY2010_e1","KY2010_e1_2","PASSION",1,"mixed",6,1371,"Include",284
"KY2010_e1","KY2010_e1_2","PALETTE",0,"mixed",1,1536,"Include",285
"KY2010_e1","KY2010_e1_2","PRESSER",1,"mixed",1,769,"Include",286
"KY2010_e1","KY2010_e1_2","COGNATE",0,"mixed",1,3500,"Include",287
"KY2010_e1","KY2010_e1_2","SLIPPER",1,"mixed",1,2817,"Include",288
"KY2010_e1","KY2010_e1_2","DEFAULT",1,"mixed",1,815,"Include",289
"KY2010_e1","KY2010_e1_2","SULPHUR",0,"mixed",1,2693,"Include",290
"KY2010_e1","KY2010_e1_2","FREEZER",1,"mixed",6,2243,"Include",291
"KY2010_e1","KY2010_e1_2","CHATTER",0,"mixed",6,4125,"Include",292
"KY2010_e1","KY2010_e1_2","SEIZURE",1,"mixed",6,1768,"Include",293
"KY2010_e1","KY2010_e1_2","PARTING",0,"mixed",1,1333,"Include",294
"KY2010_e1","KY2010_e1_2","HYGIENE",0,"mixed",1,1869,"Include",295
"KY2010_e1","KY2010_e1_2","PRETEXT",0,"mixed",1,1091,"Include",296
"KY2010_e1","KY2010_e1_2","CONSORT",1,"mixed",6,3199,"Include",297
"KY2010_e1","KY2010_e1_2","MARSHAL",1,"mixed",1,1656,"Include",298
"KY2010_e1","KY2010_e1_2","HOSTESS",1,"mixed",6,1878,"Include",299
"KY2010_e1","KY2010_e1_2","AILMENT",1,"mixed",6,753,"Include",300
"KY2010_e1","KY2010_e1_2","CHANCEL",0,"mixed",1,3654,"Include",301
"KY2010_e1","KY2010_e1_2","PERFUME",0,"mixed",4,4614,"Include",302
"KY2010_e1","KY2010_e1_2","PRIMATE",0,"mixed",1,1282,"Include",303
"KY2010_e1","KY2010_e1_2","MAMMOTH",0,"mixed",1,683,"Include",304
"KY2010_e1","KY2010_e1_2","DICTATE",1,"mixed",1,704,"Include",305
"KY2010_e1","KY2010_e1_2","OUTLINE",0,"mixed",1,586,"Include",306
"KY2010_e1","KY2010_e1_2","REBOUND",1,"mixed",1,656,"Include",307
"KY2010_e1","KY2010_e1_2","COULOMB",0,"mixed",1,851,"Include",308
"KY2010_e1","KY2010_e1_2","SEEPAGE",0,"mixed",1,687,"Include",309
"KY2010_e1","KY2010_e1_2","SHIMMER",0,"mixed",1,862,"Include",310
"KY2010_e1","KY2010_e1_2","COTTAGE",0,"mixed",1,2834,"Include",311
"KY2010_e1","KY2010_e1_2","COCAINE",0,"mixed",1,696,"Include",312
"KY2010_e1","KY2010_e1_2","ROMANCE",0,"mixed",1,883,"Include",313
"KY2010_e1","KY2010_e1_2","MANTRAP",1,"mixed",6,1567,"Include",314
"KY2010_e1","KY2010_e1_2","CYCLIST",1,"mixed",6,767,"Include",315
"KY2010_e1","KY2010_e1_2","AFFRONT",1,"mixed",1,1428,"Include",316
"KY2010_e1","KY2010_e1_2","BEDDING",1,"mixed",6,1230,"Include",317
"KY2010_e1","KY2010_e1_2","HANDLER",1,"mixed",6,973,"Include",318
"KY2010_e1","KY2010_e1_2","HAULAGE",0,"mixed",4,2530,"Include",319
"KY2010_e1","KY2010_e1_2","WARRANT",1,"mixed",6,2326,"Include",320
"KY2010_e1","KY2010_e1_2","LATTICE",0,"pure",1,3478,"Include",321
"KY2010_e1","KY2010_e1_2","BISCUIT",0,"pure",1,1269,"Include",322
"KY2010_e1","KY2010_e1_2","RESPITE",0,"pure",1,736,"Include",323
"KY2010_e1","KY2010_e1_2","OUTRAGE",1,"pure",1,777,"Include",324
"KY2010_e1","KY2010_e1_2","HOLLAND",0,"pure",1,715,"Include",325
"KY2010_e1","KY2010_e1_2","MASTIFF",1,"pure",1,1333,"Include",326
"KY2010_e1","KY2010_e1_2","PALFREY",1,"pure",6,2027,"Include",327
"KY2010_e1","KY2010_e1_2","CRIMSON",0,"pure",1,1544,"Include",328
"KY2010_e1","KY2010_e1_2","CRUISER",0,"pure",1,1344,"Include",329
"KY2010_e1","KY2010_e1_2","CRUSADE",0,"pure",6,1563,"Include",330
"KY2010_e1","KY2010_e1_2","GRIMACE",1,"pure",4,1814,"Include",331
"KY2010_e1","KY2010_e1_2","KINGPIN",1,"pure",6,1559,"Include",332
"KY2010_e1","KY2010_e1_2","TRAMMEL",1,"pure",1,1501,"Include",333
"KY2010_e1","KY2010_e1_2","CUISINE",1,"pure",6,1645,"Include",334
"KY2010_e1","KY2010_e1_2","CHEMISE",1,"pure",1,1667,"Include",335
"KY2010_e1","KY2010_e1_2","SAVIOUR",0,"pure",1,961,"Include",336
"KY2010_e1","KY2010_e1_2","ESCHEAT",0,"pure",1,1015,"Include",337
"KY2010_e1","KY2010_e1_2","BROCADE",1,"pure",6,2107,"Include",338
"KY2010_e1","KY2010_e1_2","BURGESS",1,"pure",6,693,"Include",339
"KY2010_e1","KY2010_e1_2","BAILIFF",1,"pure",1,1331,"Include",340
"KY2010_e1","KY2010_e1_2","GYMNAST",1,"pure",6,1552,"Include",341
"KY2010_e1","KY2010_e1_2","STIRRUP",0,"pure",6,1144,"Include",342
"KY2010_e1","KY2010_e1_2","SHOWMAN",1,"pure",6,686,"Include",343
"KY2010_e1","KY2010_e1_2","LEATHER",1,"pure",1,2401,"Include",344
"KY2010_e1","KY2010_e1_2","SEAWEED",0,"pure",1,954,"Include",345
"KY2010_e1","KY2010_e1_2","CRUPPER",1,"pure",6,1644,"Include",346
"KY2010_e1","KY2010_e1_2","CARRIER",1,"pure",6,936,"Include",347
"KY2010_e1","KY2010_e1_2","BIPLANE",1,"pure",6,989,"Include",348
"KY2010_e1","KY2010_e1_2","KETCHUP",0,"pure",1,1343,"Include",349
"KY2010_e1","KY2010_e1_2","PROVERB",0,"pure",1,1024,"Include",350
"KY2010_e1","KY2010_e1_2","BOOKLET",1,"pure",6,1392,"Include",351
"KY2010_e1","KY2010_e1_2","BOYHOOD",1,"pure",6,769,"Include",352
"KY2010_e1","KY2010_e1_2","STEEPLE",1,"pure",6,811,"Include",353
"KY2010_e1","KY2010_e1_2","CONDUIT",0,"pure",1,1387,"Include",354
"KY2010_e1","KY2010_e1_2","OUTFLOW",0,"pure",6,1913,"Include",355
"KY2010_e1","KY2010_e1_2","CADMIUM",0,"pure",1,1415,"Include",356
"KY2010_e1","KY2010_e1_2","GLIMMER",1,"pure",6,1883,"Include",357
"KY2010_e1","KY2010_e1_2","POSTMAN",0,"pure",6,979,"Include",358
"KY2010_e1","KY2010_e1_2","DOORWAY",1,"pure",1,1290,"Include",359
"KY2010_e1","KY2010_e1_2","BOATMEN",0,"pure",1,926,"Include",360
"KY2010_e1","KY2010_e1_2","PHYSICS",0,"pure",1,2753,"Include",361
"KY2010_e1","KY2010_e1_2","FILBERT",0,"pure",1,910,"Include",362
"KY2010_e1","KY2010_e1_2","GENTILE",1,"pure",1,2016,"Include",363
"KY2010_e1","KY2010_e1_2","DEFENCE",1,"pure",6,2112,"Include",364
"KY2010_e1","KY2010_e1_2","STYLIST",0,"pure",6,2990,"Include",365
"KY2010_e1","KY2010_e1_2","LIQUEUR",1,"pure",1,2556,"Include",366
"KY2010_e1","KY2010_e1_2","PASSIVE",0,"pure",1,1294,"Include",367
"KY2010_e1","KY2010_e1_2","BELLMAN",0,"pure",1,780,"Include",368
"KY2010_e1","KY2010_e1_2","CULPRIT",0,"pure",1,1235,"Include",369
"KY2010_e1","KY2010_e1_2","LEASING",1,"pure",1,1948,"Include",370
"KY2010_e1","KY2010_e1_2","RACQUET",0,"pure",1,1600,"Include",371
"KY2010_e1","KY2010_e1_2","CARBIDE",0,"pure",1,1686,"Include",372
"KY2010_e1","KY2010_e1_2","RETREAT",1,"pure",6,2064,"Include",373
"KY2010_e1","KY2010_e1_2","STUMBLE",0,"pure",4,14262,"Include",374
"KY2010_e1","KY2010_e1_2","SPITTLE",1,"pure",1,1250,"Include",375
"KY2010_e1","KY2010_e1_2","THIMBLE",0,"pure",1,781,"Include",376
"KY2010_e1","KY2010_e1_2","SHUTTER",1,"pure",1,1164,"Include",377
"KY2010_e1","KY2010_e1_2","SURPLUS",1,"pure",1,3651,"Include",378
"KY2010_e1","KY2010_e1_2","BELLOWS",0,"pure",1,956,"Include",379
"KY2010_e1","KY2010_e1_2","MILEAGE",0,"pure",1,1010,"Include",380
"KY2010_e1","KY2010_e1_2","ECLIPSE",1,"pure",1,990,"Include",381
"KY2010_e1","KY2010_e1_2","PANTHER",1,"pure",6,1552,"Include",382
"KY2010_e1","KY2010_e1_2","CAYENNE",1,"pure",1,1374,"Include",383
"KY2010_e1","KY2010_e1_2","SPILLER",1,"pure",6,1992,"Include",384
"KY2010_e1","KY2010_e1_2","CONFINE",1,"pure",1,1487,"Include",385
"KY2010_e1","KY2010_e1_2","KREMLIN",0,"pure",1,646,"Include",386
"KY2010_e1","KY2010_e1_2","PASTIME",1,"pure",1,906,"Include",387
"KY2010_e1","KY2010_e1_2","FORELEG",0,"pure",4,2721,"Include",388
"KY2010_e1","KY2010_e1_2","MIDWIFE",0,"pure",1,1358,"Include",389
"KY2010_e1","KY2010_e1_2","GATEWAY",1,"pure",6,1673,"Include",390
"KY2010_e1","KY2010_e1_2","LACQUER",1,"pure",6,955,"Include",391
"KY2010_e1","KY2010_e1_2","COLLECT",0,"pure",4,2608,"Include",392
"KY2010_e1","KY2010_e1_2","HALCYON",0,"pure",1,1420,"Include",393
"KY2010_e1","KY2010_e1_2","HILLMAN",0,"pure",1,732,"Include",394
"KY2010_e1","KY2010_e1_2","CATFISH",0,"pure",1,1525,"Include",395
"KY2010_e1","KY2010_e1_2","CESSION",0,"pure",1,913,"Include",396
"KY2010_e1","KY2010_e1_2","TORTURE",1,"pure",6,1718,"Include",397
"KY2010_e1","KY2010_e1_2","COUNSEL",1,"pure",6,1208,"Include",398
"KY2010_e1","KY2010_e1_2","HAIRPIN",1,"pure",4,2276,"Include",399
"KY2010_e1","KY2010_e1_2","PURSUIT",1,"pure",6,1522,"Include",400
"KY2010_e1","KY2010_e1_2","OUTPOST",0,"pure",6,1001,"Include",401
"KY2010_e1","KY2010_e1_2","BATTING",1,"pure",1,1448,"Include",402
"KY2010_e1","KY2010_e1_2","DISDAIN",1,"pure",6,1557,"Include",403
"KY2010_e1","KY2010_e1_2","GRIZZLY",0,"pure",1,1580,"Include",404
"KY2010_e1","KY2010_e1_2","VOLTAGE",0,"pure",1,1167,"Include",405
"KY2010_e1","KY2010_e1_2","BOYCOTT",1,"pure",6,2691,"Include",406
"KY2010_e1","KY2010_e1_2","GLACIER",1,"pure",1,1675,"Include",407
"KY2010_e1","KY2010_e1_2","REDWOOD",0,"pure",1,6372,"Include",408
"KY2010_e1","KY2010_e1_2","FUCHSIA",0,"pure",1,938,"Include",409
"KY2010_e1","KY2010_e1_2","VENISON",1,"pure",6,3087,"Include",410
"KY2010_e1","KY2010_e1_2","BLUNDER",1,"pure",4,1583,"Include",411
"KY2010_e1","KY2010_e1_2","PLANNER",1,"pure",6,1660,"Include",412
"KY2010_e1","KY2010_e1_2","WEEKDAY",0,"pure",1,2062,"Include",413
"KY2010_e1","KY2010_e1_2","TERTIAN",0,"pure",6,2002,"Include",414
"KY2010_e1","KY2010_e1_2","SUBLIME",1,"pure",6,1377,"Include",415
"KY2010_e1","KY2010_e1_2","MUFFLER",0,"pure",1,1370,"Include",416
"KY2010_e1","KY2010_e1_2","DOLPHIN",1,"pure",6,2566,"Include",417
"KY2010_e1","KY2010_e1_2","DRYNESS",0,"pure",1,1356,"Include",418
"KY2010_e1","KY2010_e1_2","HERRING",0,"pure",1,1125,"Include",419
"KY2010_e1","KY2010_e1_2","SYRINGE",0,"pure",1,944,"Include",420
"KY2010_e1","KY2010_e1_2","CONVENT",0,"pure",1,762,"Include",421
"KY2010_e1","KY2010_e1_2","SURGEON",0,"pure",1,807,"Include",422
"KY2010_e1","KY2010_e1_2","RADIANT",0,"pure",1,593,"Include",423
"KY2010_e1","KY2010_e1_2","MONARCH",0,"pure",1,594,"Include",424
"KY2010_e1","KY2010_e1_2","TREASON",0,"pure",1,956,"Include",425
"KY2010_e1","KY2010_e1_2","SURNAME",0,"pure",1,1265,"Include",426
"KY2010_e1","KY2010_e1_2","HADDOCK",0,"pure",1,780,"Include",427
"KY2010_e1","KY2010_e1_2","ANTIQUE",0,"pure",4,2515,"Include",428
"KY2010_e1","KY2010_e1_2","PAGEANT",0,"pure",1,1496,"Include",429
"KY2010_e1","KY2010_e1_2","HOLSTER",0,"pure",6,1709,"Include",430
"KY2010_e1","KY2010_e1_2","SPUTNIK",0,"pure",1,1606,"Include",431
"KY2010_e1","KY2010_e1_2","COMPACT",0,"pure",4,3085,"Include",432
"KY2010_e1","KY2010_e1_2","LEISURE",0,"pure",4,1020,"Include",433
"KY2010_e1","KY2010_e1_2","DREAMER",1,"pure",6,1589,"Include",434
"KY2010_e1","KY2010_e1_2","CLOSURE",0,"pure",6,1932,"Include",435
"KY2010_e1","KY2010_e1_2","SHALLOW",0,"pure",1,1473,"Include",436
"KY2010_e1","KY2010_e1_2","QUINTET",1,"pure",6,2344,"Include",437
"KY2010_e1","KY2010_e1_2","CYPRESS",0,"pure",1,1339,"Include",438
"KY2010_e1","KY2010_e1_2","GRENADE",1,"pure",1,873,"Include",439
"KY2010_e1","KY2010_e1_2","SCHOLAR",1,"pure",6,1530,"Include",440
"KY2010_e1","KY2010_e1_2","CIRCUIT",1,"pure",6,1174,"Include",441
"KY2010_e1","KY2010_e1_2","HUTMENT",1,"pure",6,1174,"Include",442
"KY2010_e1","KY2010_e1_2","OATMEAL",0,"pure",1,1387,"Include",443
"KY2010_e1","KY2010_e1_2","SAUSAGE",0,"pure",1,708,"Include",444
"KY2010_e1","KY2010_e1_2","SCHERZO",0,"pure",1,753,"Include",445
"KY2010_e1","KY2010_e1_2","PASTURE",1,"pure",6,1603,"Include",446
"KY2010_e1","KY2010_e1_2","WRINKLE",0,"pure",1,1298,"Include",447
"KY2010_e1","KY2010_e1_2","TERRAIN",1,"pure",6,1512,"Include",448
"KY2010_e1","KY2010_e1_2","THINKER",0,"pure",1,1741,"Include",449
"KY2010_e1","KY2010_e1_2","VACCINE",0,"pure",1,1009,"Include",450
"KY2010_e1","KY2010_e1_2","LUGGAGE",0,"pure",1,1216,"Include",451
"KY2010_e1","KY2010_e1_2","CONCORD",1,"pure",1,736,"Include",452
"KY2010_e1","KY2010_e1_2","STERNUM",0,"pure",1,779,"Include",453
"KY2010_e1","KY2010_e1_2","TUMBLER",0,"pure",1,1348,"Include",454
"KY2010_e1","KY2010_e1_2","CHOWDER",1,"pure",6,1710,"Include",455
"KY2010_e1","KY2010_e1_2","PENANCE",0,"pure",1,1207,"Include",456
"KY2010_e1","KY2010_e1_2","WARRIOR",1,"pure",1,1217,"Include",457
"KY2010_e1","KY2010_e1_2","ANGUISH",1,"pure",6,1386,"Include",458
"KY2010_e1","KY2010_e1_2","SLUMBER",1,"pure",6,863,"Include",459
"KY2010_e1","KY2010_e1_2","SUMMONS",0,"pure",1,1213,"Include",460
"KY2010_e1","KY2010_e1_2","GLAMOUR",1,"pure",4,2814,"Include",461
"KY2010_e1","KY2010_e1_2","PEASANT",1,"pure",4,1238,"Include",462
"KY2010_e1","KY2010_e1_2","ROEBUCK",1,"pure",1,1224,"Include",463
"KY2010_e1","KY2010_e1_2","BEARING",0,"pure",4,2110,"Include",464
"KY2010_e1","KY2010_e1_2","PACKAGE",0,"pure",1,1160,"Include",465
"KY2010_e1","KY2010_e1_2","PRELUDE",0,"pure",1,1756,"Include",466
"KY2010_e1","KY2010_e1_2","CREEPER",0,"pure",1,1024,"Include",467
"KY2010_e1","KY2010_e1_2","BOARDER",0,"pure",1,753,"Include",468
"KY2010_e1","KY2010_e1_2","TEXTILE",1,"pure",1,916,"Include",469
"KY2010_e1","KY2010_e1_2","WHISTLE",0,"pure",1,732,"Include",470
"KY2010_e1","KY2010_e1_2","BUILDER",1,"pure",1,893,"Include",471
"KY2010_e1","KY2010_e1_2","TROTTER",0,"pure",6,1750,"Include",472
"KY2010_e1","KY2010_e1_2","MONSOON",0,"pure",1,2967,"Include",473
"KY2010_e1","KY2010_e1_2","CLIMATE",1,"pure",1,858,"Include",474
"KY2010_e1","KY2010_e1_2","BRIGADE",1,"pure",1,963,"Include",475
"KY2010_e1","KY2010_e1_2","AUCTION",1,"pure",1,704,"Include",476
"KY2010_e1","KY2010_e1_2","MARQUIS",1,"pure",1,772,"Include",477
"KY2010_e1","KY2010_e1_2","ENTRANT",0,"pure",1,1054,"Include",478
"KY2010_e1","KY2010_e1_2","WEDLOCK",1,"pure",6,1597,"Include",479
"KY2010_e1","KY2010_e1_2","FIXTURE",1,"pure",1,1701,"Include",480
"KY2010_e1","KY2010_e1_2","SHIPPER",0,"pure",4,2758,"Include",481
"KY2010_e1","KY2010_e1_2","REALIST",1,"pure",1,1339,"Include",482
"KY2010_e1","KY2010_e1_2","DUNGEON",0,"pure",1,742,"Include",483
"KY2010_e1","KY2010_e1_2","SOLVENT",0,"pure",1,799,"Include",484
"KY2010_e1","KY2010_e1_2","SPECTRE",1,"pure",1,766,"Include",485
"KY2010_e1","KY2010_e1_2","EXPANSE",1,"pure",1,2851,"Include",486
"KY2010_e1","KY2010_e1_2","WAYSIDE",0,"pure",4,2373,"Include",487
"KY2010_e1","KY2010_e1_2","SHOOTER",0,"pure",4,2412,"Include",488
"KY2010_e1","KY2010_e1_2","MASSAGE",1,"pure",1,1448,"Include",489
"KY2010_e1","KY2010_e1_2","VANTAGE",0,"pure",4,1895,"Include",490
"KY2010_e1","KY2010_e1_2","DICKENS",1,"pure",6,2075,"Include",491
"KY2010_e1","KY2010_e1_2","GOODMAN",0,"pure",4,2556,"Include",492
"KY2010_e1","KY2010_e1_2","CREVICE",1,"pure",1,5306,"Include",493
"KY2010_e1","KY2010_e1_2","SYMPTOM",1,"pure",6,1655,"Include",494
"KY2010_e1","KY2010_e1_2","CLUSTER",0,"pure",6,2039,"Include",495
"KY2010_e1","KY2010_e1_2","COMMONS",0,"pure",1,1325,"Include",496
"KY2010_e1","KY2010_e1_2","CHUTNEY",1,"pure",6,1711,"Include",497
"KY2010_e1","KY2010_e1_2","HESSIAN",1,"pure",6,2106,"Include",498
"KY2010_e1","KY2010_e1_2","GELDING",1,"pure",1,1243,"Include",499
"KY2010_e1","KY2010_e1_2","FANFARE",1,"pure",1,1624,"Include",500
"KY2010_e1","KY2010_e1_2","MASSEUR",1,"pure",1,1522,"Include",501
"KY2010_e1","KY2010_e1_2","SHOCKER",1,"pure",4,1782,"Include",502
"KY2010_e1","KY2010_e1_2","GRAMMAR",1,"pure",1,1142,"Include",503
"KY2010_e1","KY2010_e1_2","BOROUGH",0,"pure",1,762,"Include",504
"KY2010_e1","KY2010_e1_2","PARQUET",1,"pure",1,695,"Include",505
"KY2010_e1","KY2010_e1_2","CHANTER",0,"pure",1,1396,"Include",506
"KY2010_e1","KY2010_e1_2","EXCERPT",1,"pure",1,898,"Include",507
"KY2010_e1","KY2010_e1_2","CHORALE",1,"pure",1,724,"Include",508
"KY2010_e1","KY2010_e1_2","TICKING",0,"pure",1,913,"Include",509
"KY2010_e1","KY2010_e1_2","IMPLANT",1,"pure",1,1274,"Include",510
"KY2010_e1","KY2010_e1_2","STAGGER",0,"pure",6,3128,"Include",511
"KY2010_e1","KY2010_e1_2","GARLAND",0,"pure",1,1269,"Include",512
"KY2010_e1","KY2010_e1_2","OUTWARD",0,"pure",6,1343,"Include",513
"KY2010_e1","KY2010_e1_2","BURGLAR",0,"pure",2,3558,"Include",514
"KY2010_e1","KY2010_e1_2","THUNDER",0,"pure",2,886,"Include",515
"KY2010_e1","KY2010_e1_2","RECOUNT",0,"pure",2,668,"Include",516
"KY2010_e1","KY2010_e1_2","CARMINE",0,"pure",1,794,"Include",517
"KY2010_e1","KY2010_e1_2","REDRESS",1,"pure",1,979,"Include",518
"KY2010_e1","KY2010_e1_2","RIGGING",0,"pure",1,2361,"Include",519
"KY2010_e1","KY2010_e1_2","LANDING",0,"pure",1,1061,"Include",520
"KY2010_e1","KY2010_e1_2","ACTRESS",1,"pure",6,1557,"Include",521
"KY2010_e1","KY2010_e1_2","COURIER",0,"pure",1,1242,"Include",522
"KY2010_e1","KY2010_e1_2","TORRENT",0,"pure",1,1325,"Include",523
"KY2010_e1","KY2010_e1_2","WINDING",1,"pure",4,1869,"Include",524
"KY2010_e1","KY2010_e1_2","PURPORT",1,"pure",6,1857,"Include",525
"KY2010_e1","KY2010_e1_2","COMPASS",1,"pure",6,950,"Include",526
"KY2010_e1","KY2010_e1_2","VAGRANT",0,"pure",6,1014,"Include",527
"KY2010_e1","KY2010_e1_2","CADENCE",1,"pure",6,1176,"Include",528
"KY2010_e1","KY2010_e1_2","DRINKER",1,"pure",6,866,"Include",529
"KY2010_e1","KY2010_e1_2","INSIGHT",0,"pure",1,1635,"Include",530
"KY2010_e1","KY2010_e1_2","CABBAGE",1,"pure",6,2319,"Include",531
"KY2010_e1","KY2010_e1_2","GRANDMA",0,"pure",1,3866,"Include",532
"KY2010_e1","KY2010_e1_2","CHANNEL",0,"pure",1,3512,"Include",533
"KY2010_e1","KY2010_e1_2","WORKMAN",0,"pure",1,1008,"Include",534
"KY2010_e1","KY2010_e1_2","TROLLEY",1,"pure",6,2076,"Include",535
"KY2010_e1","KY2010_e1_2","GRIFFIN",1,"pure",1,1352,"Include",536
"KY2010_e1","KY2010_e1_2","CORDIAL",1,"pure",1,1343,"Include",537
"KY2010_e1","KY2010_e1_2","VELOURS",1,"pure",1,3871,"Include",538
"KY2010_e1","KY2010_e1_2","SALIENT",1,"pure",1,790,"Include",539
"KY2010_e1","KY2010_e1_2","GINGHAM",1,"pure",1,744,"Include",540
"KY2010_e1","KY2010_e1_2","STOPPER",1,"pure",1,2636,"Include",541
"KY2010_e1","KY2010_e1_2","KINDRED",0,"pure",1,984,"Include",542
"KY2010_e1","KY2010_e1_2","FLUENCY",1,"pure",1,1046,"Include",543
"KY2010_e1","KY2010_e1_2","SUNRISE",0,"pure",6,1736,"Include",544
"KY2010_e1","KY2010_e1_2","KINSHIP",1,"pure",6,721,"Include",545
"KY2010_e1","KY2010_e1_2","SPINDLE",0,"pure",6,793,"Include",546
"KY2010_e1","KY2010_e1_2","TRAMWAY",1,"pure",1,1784,"Include",547
"KY2010_e1","KY2010_e1_2","BALLAST",1,"pure",1,830,"Include",548
"KY2010_e1","KY2010_e1_2","BREWERY",0,"pure",1,752,"Include",549
"KY2010_e1","KY2010_e1_2","RAILWAY",1,"pure",1,862,"Include",550
"KY2010_e1","KY2010_e1_2","NEUTRON",0,"pure",1,691,"Include",551
"KY2010_e1","KY2010_e1_2","TROOPER",0,"pure",1,1611,"Include",552
"KY2010_e1","KY2010_e1_2","TRUSTEE",1,"pure",6,5178,"Include",553
"KY2010_e1","KY2010_e1_2","PEACOCK",1,"pure",6,869,"Include",554
"KY2010_e1","KY2010_e1_2","BELGIAN",0,"pure",1,2698,"Include",555
"KY2010_e1","KY2010_e1_2","WORKMEN",1,"pure",1,7210,"Include",556
"KY2010_e1","KY2010_e1_2","MALTESE",1,"pure",6,2672,"Include",557
"KY2010_e1","KY2010_e1_2","TRIBUTE",1,"pure",1,1284,"Include",558
"KY2010_e1","KY2010_e1_2","LOGGING",0,"pure",1,703,"Include",559
"KY2010_e1","KY2010_e1_2","BOULDER",1,"pure",1,1256,"Include",560
"KY2010_e1","KY2010_e1_2","BEDPOST",0,"pure",1,1569,"Include",561
"KY2010_e1","KY2010_e1_2","QUARTET",1,"pure",6,2181,"Include",562
"KY2010_e1","KY2010_e1_2","SHOWMEN",1,"pure",6,874,"Include",563
"KY2010_e1","KY2010_e1_2","FOREMAN",0,"pure",6,783,"Include",564
"KY2010_e1","KY2010_e1_2","ADJUNCT",1,"pure",6,925,"Include",565
"KY2010_e1","KY2010_e1_2","GRANITE",0,"pure",1,4940,"Include",566
"KY2010_e1","KY2010_e1_2","HEIRESS",1,"pure",1,1160,"Include",567
"KY2010_e1","KY2010_e1_2","TYPHOON",1,"pure",6,1698,"Include",568
"KY2010_e1","KY2010_e1_2","QUADRIC",0,"pure",1,1524,"Include",569
"KY2010_e1","KY2010_e1_2","POLECAT",1,"pure",1,872,"Include",570
"KY2010_e1","KY2010_e1_2","VIBRANT",1,"pure",6,2145,"Include",571
"KY2010_e1","KY2010_e1_2","CHAMFER",1,"pure",1,1210,"Include",572
"KY2010_e1","KY2010_e1_2","LAMPOON",1,"pure",6,1428,"Include",573
"KY2010_e1","KY2010_e1_2","FLUTTER",1,"pure",6,1004,"Include",574
"KY2010_e1","KY2010_e1_2","LAUNDRY",1,"pure",1,1589,"Include",575
"KY2010_e1","KY2010_e1_2","COSTUME",0,"pure",1,2363,"Include",576
"KY2010_e1","KY2010_e1_2","PUNSTER",0,"pure",1,945,"Include",577
"KY2010_e1","KY2010_e1_2","STEALER",0,"pure",1,845,"Include",578
"KY2010_e1","KY2010_e1_2","PLATTER",0,"pure",6,4780,"Include",579
"KY2010_e1","KY2010_e1_2","PICKAXE",1,"pure",1,1284,"Include",580
"KY2010_e1","KY2010_e1_2","CURRANT",1,"pure",4,2187,"Include",581
"KY2010_e1","KY2010_e1_2","LOMBARD",0,"pure",1,1198,"Include",582
"KY2010_e1","KY2010_e1_2","DRIZZLE",1,"pure",6,1672,"Include",583
"KY2010_e1","KY2010_e1_2","CONVICT",0,"pure",4,2494,"Include",584
"KY2010_e1","KY2010_e1_2","DWELLER",0,"pure",1,1127,"Include",585
"KY2010_e1","KY2010_e1_2","HAMMOCK",1,"pure",1,1136,"Include",586
"KY2010_e1","KY2010_e1_2","SHERIFF",0,"pure",1,762,"Include",587
"KY2010_e1","KY2010_e1_2","COMMUNE",0,"pure",1,722,"Include",588
"KY2010_e1","KY2010_e1_2","SETTLER",1,"pure",1,974,"Include",589
"KY2010_e1","KY2010_e1_2","IMPRINT",0,"pure",6,1552,"Include",590
"KY2010_e1","KY2010_e1_2","CHUCKLE",0,"pure",1,1159,"Include",591
"KY2010_e1","KY2010_e1_2","SLEEPER",1,"pure",6,1455,"Include",592
"KY2010_e1","KY2010_e1_2","HOSTLER",1,"pure",6,2163,"Include",593
"KY2010_e1","KY2010_e1_2","TRIGGER",1,"pure",6,2382,"Include",594
"KY2010_e1","KY2010_e1_2","RUFFIAN",0,"pure",1,1192,"Include",595
"KY2010_e1","KY2010_e1_2","ASSAULT",0,"pure",6,1622,"Include",596
"KY2010_e1","KY2010_e1_2","PLATEAU",0,"pure",1,1220,"Include",597
"KY2010_e1","KY2010_e1_2","BURMESE",1,"pure",6,1524,"Include",598
"KY2010_e1","KY2010_e1_2","BOREDOM",0,"pure",1,1212,"Include",599
"KY2010_e1","KY2010_e1_2","CRICKET",1,"pure",1,1813,"Include",600
"KY2010_e1","KY2010_e1_2","TWISTER",1,"pure",1,909,"Include",601
"KY2010_e1","KY2010_e1_2","SAWDUST",0,"pure",1,899,"Include",602
"KY2010_e1","KY2010_e1_2","BITTERS",0,"pure",1,683,"Include",603
"KY2010_e1","KY2010_e1_2","CORSAGE",0,"pure",1,891,"Include",604
"KY2010_e1","KY2010_e1_2","PLEADER",0,"pure",1,2200,"Include",605
"KY2010_e1","KY2010_e1_2","FOUNDER",0,"pure",1,1112,"Include",606
"KY2010_e1","KY2010_e1_2","MANDATE",1,"pure",6,1585,"Include",607
"KY2010_e1","KY2010_e1_2","SHUDDER",1,"pure",6,737,"Include",608
"KY2010_e1","KY2010_e1_2","LARCENY",1,"pure",6,1901,"Include",609
"KY2010_e1","KY2010_e1_2","BELOVED",0,"pure",1,1095,"Include",610
"KY2010_e1","KY2010_e1_2","PROPHET",0,"pure",1,1085,"Include",611
"KY2010_e1","KY2010_e1_2","FOOTMAN",1,"pure",6,1808,"Include",612
"KY2010_e1","KY2010_e1_2","REFRAIN",0,"pure",1,1342,"Include",613
"KY2010_e1","KY2010_e1_2","SABBATH",0,"pure",1,2426,"Include",614
"KY2010_e1","KY2010_e1_2","BRAZIER",0,"pure",1,900,"Include",615
"KY2010_e1","KY2010_e1_2","MARXIST",1,"pure",6,1624,"Include",616
"KY2010_e1","KY2010_e1_2","STARDOM",1,"pure",1,1450,"Include",617
"KY2010_e1","KY2010_e1_2","OBVERSE",1,"pure",6,1746,"Include",618
"KY2010_e1","KY2010_e1_2","TRIUMPH",0,"pure",1,1634,"Include",619
"KY2010_e1","KY2010_e1_2","LECTURE",0,"pure",1,798,"Include",620
"KY2010_e1","KY2010_e1_2","DOGWOOD",0,"pure",6,1538,"Include",621
"KY2010_e1","KY2010_e1_2","DRUMMER",1,"pure",1,1347,"Include",622
"KY2010_e1","KY2010_e1_2","BANQUET",0,"pure",6,1509,"Include",623
"KY2010_e1","KY2010_e1_2","TRIPLET",1,"pure",1,1070,"Include",624
"KY2010_e1","KY2010_e1_2","WITNESS",1,"pure",1,814,"Include",625
"KY2010_e1","KY2010_e1_2","TRAILER",1,"pure",1,527,"Include",626
"KY2010_e1","KY2010_e1_2","CONTOUR",1,"pure",6,2381,"Include",627
"KY2010_e1","KY2010_e1_2","BEQUEST",0,"pure",4,2657,"Include",628
"KY2010_e1","KY2010_e1_2","WORSTED",0,"pure",1,1350,"Include",629
"KY2010_e1","KY2010_e1_2","SANDMAN",0,"pure",6,4546,"Include",630
"KY2010_e1","KY2010_e1_2","RAMPART",0,"pure",1,1433,"Include",631
"KY2010_e1","KY2010_e1_2","PREMIER",0,"pure",1,685,"Include",632
"KY2010_e1","KY2010_e1_2","WHISKEY",1,"pure",6,1449,"Include",633
"KY2010_e1","KY2010_e1_2","INQUEST",1,"pure",1,1126,"Include",634
"KY2010_e1","KY2010_e1_2","CHOPPER",1,"pure",1,1045,"Include",635
"KY2010_e1","KY2010_e1_2","PLASTER",1,"pure",1,971,"Include",636
"KY2010_e1","KY2010_e1_2","FERMENT",0,"pure",1,914,"Include",637
"KY2010_e1","KY2010_e1_2","TRAPPER",1,"pure",1,1279,"Include",638
"KY2010_e1","KY2010_e1_2","BOATMAN",1,"pure",6,1721,"Include",639
"KY2010_e1","KY2010_e1_2","SPARKLE",1,"pure",6,758,"Include",640
"KY2010_e1","KY2010_e1_3","CANTEEN",0,"mixed",5,10356,"Include",1
"KY2010_e1","KY2010_e1_3","RUBBISH",0,"mixed",2,3405,"Include",2
"KY2010_e1","KY2010_e1_3","ORCHARD",1,"mixed",6,2488,"Include",3
"KY2010_e1","KY2010_e1_3","PENNANT",1,"mixed",5,3123,"Include",4
"KY2010_e1","KY2010_e1_3","VARNISH",1,"mixed",6,2052,"Include",5
"KY2010_e1","KY2010_e1_3","RECLUSE",0,"mixed",1,2590,"Include",6
"KY2010_e1","KY2010_e1_3","GODSEND",1,"mixed",6,1622,"Include",7
"KY2010_e1","KY2010_e1_3","WHITING",1,"mixed",6,2666,"Include",8
"KY2010_e1","KY2010_e1_3","SURTOUT",0,"mixed",1,2473,"Include",9
"KY2010_e1","KY2010_e1_3","PASTERN",1,"mixed",5,2763,"Include",10
"KY2010_e1","KY2010_e1_3","PHANTOM",1,"mixed",6,1264,"Include",11
"KY2010_e1","KY2010_e1_3","BRONCHI",1,"mixed",6,1724,"Include",12
"KY2010_e1","KY2010_e1_3","BOXWOOD",1,"mixed",6,1920,"Include",13
"KY2010_e1","KY2010_e1_3","GOURMET",1,"mixed",5,3340,"Include",14
"KY2010_e1","KY2010_e1_3","TWINKLE",1,"mixed",6,2482,"Include",15
"KY2010_e1","KY2010_e1_3","CONTEST",0,"mixed",5,4598,"Include",16
"KY2010_e1","KY2010_e1_3","MOORING",0,"mixed",2,2768,"Include",17
"KY2010_e1","KY2010_e1_3","FLICKER",1,"mixed",2,6725,"Include",18
"KY2010_e1","KY2010_e1_3","PFENNIG",1,"mixed",6,8653,"Include",19
"KY2010_e1","KY2010_e1_3","MYNHEER",1,"mixed",6,2359,"Include",20
"KY2010_e1","KY2010_e1_3","CHATTER",1,"mixed",6,1689,"Include",21
"KY2010_e1","KY2010_e1_3","CRUELTY",0,"mixed",4,5717,"Include",22
"KY2010_e1","KY2010_e1_3","SKYLARK",1,"mixed",6,2052,"Include",23
"KY2010_e1","KY2010_e1_3","BAPTIST",1,"mixed",6,1120,"Include",24
"KY2010_e1","KY2010_e1_3","KEELSON",1,"mixed",5,5495,"Include",25
"KY2010_e1","KY2010_e1_3","BAGPIPE",0,"mixed",1,3203,"Include",26
"KY2010_e1","KY2010_e1_3","VERMEIL",1,"mixed",6,2034,"Include",27
"KY2010_e1","KY2010_e1_3","SUCTION",1,"mixed",2,4328,"Include",28
"KY2010_e1","KY2010_e1_3","PROCTOR",0,"mixed",1,10998,"Include",29
"KY2010_e1","KY2010_e1_3","QUANTUM",1,"mixed",6,2950,"Include",30
"KY2010_e1","KY2010_e1_3","FORTUNE",0,"mixed",5,3948,"Include",31
"KY2010_e1","KY2010_e1_3","TIGRESS",0,"mixed",2,2603,"Include",32
"KY2010_e1","KY2010_e1_3","UPSURGE",0,"mixed",2,3524,"Include",33
"KY2010_e1","KY2010_e1_3","MAGNATE",0,"mixed",4,9725,"Include",34
"KY2010_e1","KY2010_e1_3","WRAPPER",1,"mixed",1,12601,"Include",35
"KY2010_e1","KY2010_e1_3","COCAINE",1,"mixed",6,4897,"Include",36
"KY2010_e1","KY2010_e1_3","PARTING",1,"mixed",2,7278,"Include",37
"KY2010_e1","KY2010_e1_3","CAUTION",1,"mixed",6,2955,"Include",38
"KY2010_e1","KY2010_e1_3","PASSION",0,"mixed",2,2287,"Include",39
"KY2010_e1","KY2010_e1_3","BASTION",1,"mixed",5,6248,"Include",40
"KY2010_e1","KY2010_e1_3","CHASSIS",0,"mixed",1,2066,"Include",41
"KY2010_e1","KY2010_e1_3","COTTAGE",1,"mixed",2,5063,"Include",42
"KY2010_e1","KY2010_e1_3","RAPPORT",0,"mixed",3,13004,"Include",43
"KY2010_e1","KY2010_e1_3","SCANDAL",1,"mixed",3,24852,"Include",44
"KY2010_e1","KY2010_e1_3","FATIGUE",0,"mixed",5,4302,"Include",45
"KY2010_e1","KY2010_e1_3","TROLLOP",1,"mixed",6,2014,"Include",46
"KY2010_e1","KY2010_e1_3","AILMENT",0,"mixed",1,5317,"Include",47
"KY2010_e1","KY2010_e1_3","STARTER",0,"mixed",1,7253,"Include",48
"KY2010_e1","KY2010_e1_3","CONSORT",0,"mixed",5,5521,"Include",49
"KY2010_e1","KY2010_e1_3","REBIRTH",0,"mixed",1,3845,"Include",50
"KY2010_e1","KY2010_e1_3","HAULAGE",1,"mixed",6,2115,"Include",51
"KY2010_e1","KY2010_e1_3","VERNIER",1,"mixed",6,2441,"Include",52
"KY2010_e1","KY2010_e1_3","TOURIST",1,"mixed",2,3103,"Include",53
"KY2010_e1","KY2010_e1_3","KINGDOM",0,"mixed",1,6332,"Include",54
"KY2010_e1","KY2010_e1_3","DICTATE",0,"mixed",1,7169,"Include",55
"KY2010_e1","KY2010_e1_3","HARNESS",0,"mixed",2,8786,"Include",56
"KY2010_e1","KY2010_e1_3","FLORIST",0,"mixed",2,2316,"Include",57
"KY2010_e1","KY2010_e1_3","CUNNING",0,"mixed",2,2813,"Include",58
"KY2010_e1","KY2010_e1_3","PRESSER",0,"mixed",3,4950,"Include",59
"KY2010_e1","KY2010_e1_3","DELIGHT",0,"mixed",2,3745,"Include",60
"KY2010_e1","KY2010_e1_3","SPONSOR",0,"mixed",5,4183,"Include",61
"KY2010_e1","KY2010_e1_3","HANDLER",0,"mixed",3,14511,"Include",62
"KY2010_e1","KY2010_e1_3","RANCHER",0,"mixed",2,13698,"Include",63
"KY2010_e1","KY2010_e1_3","SUNDOWN",0,"mixed",2,1481,"Include",64
"KY2010_e1","KY2010_e1_3","VULTURE",0,"mixed",2,1061,"Include",65
"KY2010_e1","KY2010_e1_3","TAPPING",0,"mixed",2,1369,"Include",66
"KY2010_e1","KY2010_e1_3","CANVASS",0,"mixed",2,2397,"Include",67
"KY2010_e1","KY2010_e1_3","CALCIUM",0,"mixed",2,1811,"Include",68
"KY2010_e1","KY2010_e1_3","SOJOURN",1,"mixed",6,3065,"Include",69
"KY2010_e1","KY2010_e1_3","FACTION",1,"mixed",6,1924,"Include",70
"KY2010_e1","KY2010_e1_3","SPATTER",0,"mixed",3,5469,"Include",71
"KY2010_e1","KY2010_e1_3","CROZIER",0,"mixed",2,1780,"Include",72
"KY2010_e1","KY2010_e1_3","PLATOON",1,"mixed",6,2907,"Include",73
"KY2010_e1","KY2010_e1_3","DISSENT",1,"mixed",6,1189,"Include",74
"KY2010_e1","KY2010_e1_3","TIDINGS",0,"mixed",5,3253,"Include",75
"KY2010_e1","KY2010_e1_3","INKLING",1,"mixed",6,2641,"Include",76
"KY2010_e1","KY2010_e1_3","SUNBURN",0,"mixed",1,4271,"Include",77
"KY2010_e1","KY2010_e1_3","TEMPEST",0,"mixed",6,6991,"Include",78
"KY2010_e1","KY2010_e1_3","FIGMENT",0,"mixed",2,16738,"Include",79
"KY2010_e1","KY2010_e1_3","VINTAGE",1,"mixed",5,4010,"Include",80
"KY2010_e1","KY2010_e1_3","PROTEIN",1,"mixed",4,4818,"Include",81
"KY2010_e1","KY2010_e1_3","TERRIER",1,"mixed",6,1583,"Include",82
"KY2010_e1","KY2010_e1_3","CYPRIAN",1,"mixed",6,1978,"Include",83
"KY2010_e1","KY2010_e1_3","SCATTER",1,"mixed",3,20290,"Include",84
"KY2010_e1","KY2010_e1_3","INVERSE",0,"mixed",3,2721,"Include",85
"KY2010_e1","KY2010_e1_3","RAMPAGE",0,"mixed",2,3536,"Include",86
"KY2010_e1","KY2010_e1_3","FOUNDRY",0,"mixed",2,1308,"Include",87
"KY2010_e1","KY2010_e1_3","DISCORD",0,"mixed",2,1630,"Include",88
"KY2010_e1","KY2010_e1_3","TURBINE",0,"mixed",1,2137,"Include",89
"KY2010_e1","KY2010_e1_3","LAYETTE",1,"mixed",6,3335,"Include",90
"KY2010_e1","KY2010_e1_3","BULWARK",1,"mixed",6,2074,"Include",91
"KY2010_e1","KY2010_e1_3","BANSHEE",1,"mixed",1,2589,"Include",92
"KY2010_e1","KY2010_e1_3","FIELDER",1,"mixed",6,1651,"Include",93
"KY2010_e1","KY2010_e1_3","PHOENIX",0,"mixed",2,2774,"Include",94
"KY2010_e1","KY2010_e1_3","DESSERT",0,"mixed",2,2070,"Include",95
"KY2010_e1","KY2010_e1_3","HOSTAGE",0,"mixed",4,3452,"Include",96
"KY2010_e1","KY2010_e1_3","TRAWLER",0,"mixed",2,13654,"Include",97
"KY2010_e1","KY2010_e1_3","CUSHION",0,"mixed",2,5778,"Include",98
"KY2010_e1","KY2010_e1_3","COMRADE",0,"mixed",2,6301,"Include",99
"KY2010_e1","KY2010_e1_3","HAIRCUT",1,"mixed",5,2478,"Include",100
"KY2010_e1","KY2010_e1_3","DESCENT",0,"mixed",3,4570,"Include",101
"KY2010_e1","KY2010_e1_3","PATRIOT",0,"mixed",3,3618,"Include",102
"KY2010_e1","KY2010_e1_3","SKIPPER",0,"mixed",3,3485,"Include",103
"KY2010_e1","KY2010_e1_3","PERFUME",1,"mixed",2,18277,"Include",104
"KY2010_e1","KY2010_e1_3","FORFEIT",1,"mixed",4,5922,"Include",105
"KY2010_e1","KY2010_e1_3","CONVERT",0,"mixed",4,4434,"Include",106
"KY2010_e1","KY2010_e1_3","PLUMBER",1,"mixed",6,2031,"Include",107
"KY2010_e1","KY2010_e1_3","TRINKET",1,"mixed",6,1786,"Include",108
"KY2010_e1","KY2010_e1_3","FISSION",0,"mixed",4,22881,"Include",109
"KY2010_e1","KY2010_e1_3","HAYWARD",0,"mixed",4,5850,"Include",110
"KY2010_e1","KY2010_e1_3","BOOSTER",1,"mixed",2,2949,"Include",111
"KY2010_e1","KY2010_e1_3","GALLANT",0,"mixed",2,4029,"Include",112
"KY2010_e1","KY2010_e1_3","GRATING",1,"mixed",6,2165,"Include",113
"KY2010_e1","KY2010_e1_3","MAMMOTH",1,"mixed",6,2368,"Include",114
"KY2010_e1","KY2010_e1_3","SEIZURE",0,"mixed",1,3133,"Include",115
"KY2010_e1","KY2010_e1_3","DEFAULT",0,"mixed",1,2467,"Include",116
"KY2010_e1","KY2010_e1_3","SEEPAGE",1,"mixed",6,2228,"Include",117
"KY2010_e1","KY2010_e1_3","STATURE",0,"mixed",2,4067,"Include",118
"KY2010_e1","KY2010_e1_3","EMBRACE",0,"mixed",3,2646,"Include",119
"KY2010_e1","KY2010_e1_3","QUIBBLE",0,"mixed",2,2237,"Include",120
"KY2010_e1","KY2010_e1_3","SPECTRA",1,"mixed",6,4237,"Include",121
"KY2010_e1","KY2010_e1_3","TANGENT",0,"mixed",2,7458,"Include",122
"KY2010_e1","KY2010_e1_3","SOUFFLE",1,"mixed",6,1915,"Include",123
"KY2010_e1","KY2010_e1_3","ROSTRUM",0,"mixed",1,5608,"Include",124
"KY2010_e1","KY2010_e1_3","SURMISE",1,"mixed",6,2963,"Include",125
"KY2010_e1","KY2010_e1_3","PENDANT",1,"mixed",6,1101,"Include",126
"KY2010_e1","KY2010_e1_3","BACKLOG",0,"mixed",2,2630,"Include",127
"KY2010_e1","KY2010_e1_3","UPRIGHT",1,"mixed",6,2178,"Include",128
"KY2010_e1","KY2010_e1_3","TRESTLE",1,"mixed",2,2148,"Include",129
"KY2010_e1","KY2010_e1_3","CLEANER",0,"mixed",3,2994,"Include",130
"KY2010_e1","KY2010_e1_3","MUSTANG",0,"mixed",2,3140,"Include",131
"KY2010_e1","KY2010_e1_3","LEAGUER",0,"mixed",2,3719,"Include",132
"KY2010_e1","KY2010_e1_3","RAILING",0,"mixed",1,3869,"Include",133
"KY2010_e1","KY2010_e1_3","DELTOID",1,"mixed",6,2672,"Include",134
"KY2010_e1","KY2010_e1_3","POSTMEN",0,"mixed",3,2420,"Include",135
"KY2010_e1","KY2010_e1_3","STATUTE",0,"mixed",5,20482,"Include",136
"KY2010_e1","KY2010_e1_3","FREEMAN",1,"mixed",6,2265,"Include",137
"KY2010_e1","KY2010_e1_3","PUZZLER",1,"mixed",3,3176,"Include",138
"KY2010_e1","KY2010_e1_3","CANDOUR",1,"mixed",6,2111,"Include",139
"KY2010_e1","KY2010_e1_3","IMPASSE",1,"mixed",1,2082,"Include",140
"KY2010_e1","KY2010_e1_3","WASTREL",0,"mixed",1,2679,"Include",141
"KY2010_e1","KY2010_e1_3","CROCHET",0,"mixed",2,1824,"Include",142
"KY2010_e1","KY2010_e1_3","THEOREM",1,"mixed",6,2304,"Include",143
"KY2010_e1","KY2010_e1_3","CAPSTAN",1,"mixed",5,4268,"Include",144
"KY2010_e1","KY2010_e1_3","CLIPPER",1,"mixed",6,2462,"Include",145
"KY2010_e1","KY2010_e1_3","LIGHTER",1,"mixed",3,2739,"Include",146
"KY2010_e1","KY2010_e1_3","CASCADE",1,"mixed",5,1704,"Include",147
"KY2010_e1","KY2010_e1_3","REMORSE",1,"mixed",3,39459,"Include",148
"KY2010_e1","KY2010_e1_3","CRIMEAN",0,"mixed",2,7774,"Include",149
"KY2010_e1","KY2010_e1_3","BEDSIDE",0,"mixed",5,2603,"Include",150
"KY2010_e1","KY2010_e1_3","CAPSULE",1,"mixed",6,2181,"Include",151
"KY2010_e1","KY2010_e1_3","MALAISE",1,"mixed",6,2875,"Include",152
"KY2010_e1","KY2010_e1_3","BEDDING",0,"mixed",3,4144,"Include",153
"KY2010_e1","KY2010_e1_3","BLUBBER",0,"mixed",3,2462,"Include",154
"KY2010_e1","KY2010_e1_3","BOUQUET",1,"mixed",6,2173,"Include",155
"KY2010_e1","KY2010_e1_3","COMBINE",1,"mixed",6,4065,"Include",156
"KY2010_e1","KY2010_e1_3","GARMENT",1,"mixed",5,2989,"Include",157
"KY2010_e1","KY2010_e1_3","PRIMATE",1,"mixed",6,2321,"Include",158
"KY2010_e1","KY2010_e1_3","QUINTUS",1,"mixed",2,3543,"Include",159
"KY2010_e1","KY2010_e1_3","RECRUIT",1,"mixed",6,3539,"Include",160
"KY2010_e1","KY2010_e1_3","EXHAUST",1,"mixed",3,4098,"Include",161
"KY2010_e1","KY2010_e1_3","BLEMISH",0,"mixed",1,3140,"Include",162
"KY2010_e1","KY2010_e1_3","TEMPTER",1,"mixed",6,3217,"Include",163
"KY2010_e1","KY2010_e1_3","CARBINE",0,"mixed",1,5005,"Include",164
"KY2010_e1","KY2010_e1_3","BALLOON",0,"mixed",2,3366,"Include",165
"KY2010_e1","KY2010_e1_3","RAPPING",1,"mixed",6,2237,"Include",166
"KY2010_e1","KY2010_e1_3","BRACKET",1,"mixed",2,6975,"Include",167
"KY2010_e1","KY2010_e1_3","TRICKLE",0,"mixed",6,3163,"Include",168
"KY2010_e1","KY2010_e1_3","MANTRAP",0,"mixed",2,11157,"Include",169
"KY2010_e1","KY2010_e1_3","TRIMMER",0,"mixed",2,15780,"Include",170
"KY2010_e1","KY2010_e1_3","DISCARD",1,"mixed",4,2289,"Include",171
"KY2010_e1","KY2010_e1_3","PRAIRIE",0,"mixed",2,7167,"Include",172
"KY2010_e1","KY2010_e1_3","PREFACE",0,"mixed",2,2683,"Include",173
"KY2010_e1","KY2010_e1_3","SHARPER",1,"mixed",6,2154,"Include",174
"KY2010_e1","KY2010_e1_3","SHIMMER",1,"mixed",6,1434,"Include",175
"KY2010_e1","KY2010_e1_3","PROVOST",0,"mixed",1,2335,"Include",176
"KY2010_e1","KY2010_e1_3","OBSERVE",0,"mixed",2,11656,"Include",177
"KY2010_e1","KY2010_e1_3","LANTERN",1,"mixed",5,5381,"Include",178
"KY2010_e1","KY2010_e1_3","SUSPECT",1,"mixed",6,1768,"Include",179
"KY2010_e1","KY2010_e1_3","RAPTURE",1,"mixed",5,2300,"Include",180
"KY2010_e1","KY2010_e1_3","AFFRONT",0,"mixed",5,16363,"Include",181
"KY2010_e1","KY2010_e1_3","SPINACH",0,"mixed",1,3530,"Include",182
"KY2010_e1","KY2010_e1_3","EARNEST",0,"mixed",2,6248,"Include",183
"KY2010_e1","KY2010_e1_3","BARRIER",0,"mixed",2,3923,"Include",184
"KY2010_e1","KY2010_e1_3","BRISTLE",1,"mixed",4,2798,"Include",185
"KY2010_e1","KY2010_e1_3","BLOSSOM",0,"mixed",2,3079,"Include",186
"KY2010_e1","KY2010_e1_3","MAUDLIN",1,"mixed",4,4132,"Include",187
"KY2010_e1","KY2010_e1_3","PIGMENT",0,"mixed",4,12379,"Include",188
"KY2010_e1","KY2010_e1_3","MARSHAL",0,"mixed",3,5864,"Include",189
"KY2010_e1","KY2010_e1_3","LEAKAGE",0,"mixed",3,1134,"Include",190
"KY2010_e1","KY2010_e1_3","WARRANT",0,"mixed",3,1632,"Include",191
"KY2010_e1","KY2010_e1_3","PIGSKIN",1,"mixed",6,4179,"Include",192
"KY2010_e1","KY2010_e1_3","SACKING",0,"mixed",1,8303,"Include",193
"KY2010_e1","KY2010_e1_3","BOOKING",1,"mixed",4,3902,"Include",194
"KY2010_e1","KY2010_e1_3","INCENSE",0,"mixed",2,4278,"Include",195
"KY2010_e1","KY2010_e1_3","DENTIST",0,"mixed",2,1162,"Include",196
"KY2010_e1","KY2010_e1_3","TURNKEY",1,"mixed",6,2052,"Include",197
"KY2010_e1","KY2010_e1_3","AIRPORT",1,"mixed",5,23126,"Include",198
"KY2010_e1","KY2010_e1_3","FIGHTER",0,"mixed",2,3136,"Include",199
"KY2010_e1","KY2010_e1_3","HORMONE",1,"mixed",6,2092,"Include",200
"KY2010_e1","KY2010_e1_3","HYGIENE",1,"mixed",6,855,"Include",201
"KY2010_e1","KY2010_e1_3","ARMHOLE",1,"mixed",6,1029,"Include",202
"KY2010_e1","KY2010_e1_3","FRONTAL",0,"mixed",5,4233,"Include",203
"KY2010_e1","KY2010_e1_3","WHIPPET",0,"mixed",2,4556,"Include",204
"KY2010_e1","KY2010_e1_3","SPENCER",0,"mixed",4,2884,"Include",205
"KY2010_e1","KY2010_e1_3","FASCIST",1,"mixed",6,1906,"Include",206
"KY2010_e1","KY2010_e1_3","BASTARD",1,"mixed",4,5428,"Include",207
"KY2010_e1","KY2010_e1_3","STRATUM",0,"mixed",1,4621,"Include",208
"KY2010_e1","KY2010_e1_3","COMPARE",1,"mixed",2,2261,"Include",209
"KY2010_e1","KY2010_e1_3","SUBSOIL",0,"mixed",2,4578,"Include",210
"KY2010_e1","KY2010_e1_3","HATCHET",0,"mixed",2,15980,"Include",211
"KY2010_e1","KY2010_e1_3","TRUNDLE",0,"mixed",2,26915,"Include",212
"KY2010_e1","KY2010_e1_3","COMPOST",0,"mixed",5,2520,"Include",213
"KY2010_e1","KY2010_e1_3","SERVANT",0,"mixed",2,2744,"Include",214
"KY2010_e1","KY2010_e1_3","PLUNDER",0,"mixed",6,1959,"Include",215
"KY2010_e1","KY2010_e1_3","NUCLEUS",1,"mixed",6,1492,"Include",216
"KY2010_e1","KY2010_e1_3","CRUSHER",1,"mixed",5,2014,"Include",217
"KY2010_e1","KY2010_e1_3","CARCASS",0,"mixed",2,4117,"Include",218
"KY2010_e1","KY2010_e1_3","BARRAGE",0,"mixed",2,1308,"Include",219
"KY2010_e1","KY2010_e1_3","MISSIVE",1,"mixed",6,1983,"Include",220
"KY2010_e1","KY2010_e1_3","WASTAGE",0,"mixed",2,2002,"Include",221
"KY2010_e1","KY2010_e1_3","PICKING",1,"mixed",4,3913,"Include",222
"KY2010_e1","KY2010_e1_3","BAGGAGE",0,"mixed",5,1904,"Include",223
"KY2010_e1","KY2010_e1_3","HEATHER",0,"mixed",2,2406,"Include",224
"KY2010_e1","KY2010_e1_3","BACKING",1,"mixed",2,14500,"Include",225
"KY2010_e1","KY2010_e1_3","SAPLING",0,"mixed",2,8168,"Include",226
"KY2010_e1","KY2010_e1_3","NURSERY",1,"mixed",2,22657,"Include",227
"KY2010_e1","KY2010_e1_3","SEGMENT",0,"mixed",4,2559,"Include",228
"KY2010_e1","KY2010_e1_3","MARTIAN",1,"mixed",2,1685,"Include",229
"KY2010_e1","KY2010_e1_3","MONSTER",1,"mixed",2,768,"Include",230
