"exp","id","item","trial","isold","condition1","rating","RT","excluding"
"LBA2019_e1","LBA2019_e1_101","002.png",1,0,"BiasNewInstruction",1,1726,"Include"
"LBA2019_e1","LBA2019_e1_101","001.png",2,1,"BiasNewInstruction",7,1523,"Include"
"LBA2019_e1","LBA2019_e1_101","004.png",3,0,"BiasNewInstruction",3,2019,"Include"
"LBA2019_e1","LBA2019_e1_101","003.png",4,1,"BiasNewInstruction",6,2476,"Include"
"LBA2019_e1","LBA2019_e1_101","018.png",5,0,"BiasNewInstruction",5,2898,"Include"
"LBA2019_e1","LBA2019_e1_101","028.png",6,0,"BiasNewInstruction",2,1468,"Include"
"LBA2019_e1","LBA2019_e1_101","006.png",7,1,"BiasNewInstruction",7,3253,"Include"
"LBA2019_e1","LBA2019_e1_101","010.png",8,1,"BiasNewInstruction",5,2859,"Include"
"LBA2019_e1","LBA2019_e1_101","014.png",9,1,"BiasNewInstruction",7,2792,"Include"
"LBA2019_e1","LBA2019_e1_101","032.png",10,0,"BiasNewInstruction",2,2554,"Include"
"LBA2019_e1","LBA2019_e1_101","034.png",11,0,"BiasNewInstruction",3,2093,"Include"
"LBA2019_e1","LBA2019_e1_101","024.png",12,1,"BiasNewInstruction",7,2828,"Include"
"LBA2019_e1","LBA2019_e1_101","025.png",13,1,"BiasNewInstruction",7,1386,"Include"
"LBA2019_e1","LBA2019_e1_101","036.png",14,0,"BiasNewInstruction",1,1292,"Include"
"LBA2019_e1","LBA2019_e1_101","037.png",15,0,"BiasNewInstruction",4,3644,"Include"
"LBA2019_e1","LBA2019_e1_101","030.png",16,1,"BiasNewInstruction",7,1433,"Include"
"LBA2019_e1","LBA2019_e1_101","043.png",17,0,"BiasNewInstruction",2,2765,"Include"
"LBA2019_e1","LBA2019_e1_101","045.png",18,1,"BiasNewInstruction",7,1839,"Include"
"LBA2019_e1","LBA2019_e1_101","044.png",19,0,"BiasNewInstruction",1,1398,"Include"
"LBA2019_e1","LBA2019_e1_101","046.png",20,1,"BiasNewInstruction",2,1628,"Include"
"LBA2019_e1","LBA2019_e1_101","051.png",21,0,"BiasNewInstruction",2,2910,"Include"
"LBA2019_e1","LBA2019_e1_101","048.png",22,1,"BiasNewInstruction",6,2441,"Include"
"LBA2019_e1","LBA2019_e1_101","053.png",23,1,"BiasNewInstruction",3,2437,"Include"
"LBA2019_e1","LBA2019_e1_101","055.png",24,1,"BiasNewInstruction",6,2472,"Include"
"LBA2019_e1","LBA2019_e1_101","066.png",25,0,"BiasNewInstruction",5,2593,"Include"
"LBA2019_e1","LBA2019_e1_101","070.png",26,0,"BiasNewInstruction",7,1777,"Include"
"LBA2019_e1","LBA2019_e1_101","074.png",27,0,"BiasNewInstruction",6,2488,"Include"
"LBA2019_e1","LBA2019_e1_101","057.png",28,1,"BiasNewInstruction",1,2195,"Include"
"LBA2019_e1","LBA2019_e1_101","077.png",29,0,"BiasNewInstruction",6,3015,"Include"
"LBA2019_e1","LBA2019_e1_101","099.png",30,0,"BiasNewInstruction",4,4726,"Include"
"LBA2019_e1","LBA2019_e1_101","058.png",31,1,"BiasNewInstruction",7,1453,"Include"
"LBA2019_e1","LBA2019_e1_101","100.png",32,0,"BiasNewInstruction",3,3472,"Include"
"LBA2019_e1","LBA2019_e1_101","061.png",33,1,"BiasNewInstruction",7,1316,"Include"
"LBA2019_e1","LBA2019_e1_101","062.png",34,1,"BiasNewInstruction",6,1351,"Include"
"LBA2019_e1","LBA2019_e1_101","108.png",35,0,"BiasNewInstruction",3,1531,"Include"
"LBA2019_e1","LBA2019_e1_101","071.png",36,1,"BiasNewInstruction",7,1453,"Include"
"LBA2019_e1","LBA2019_e1_101","112.png",37,0,"BiasNewInstruction",6,1253,"Include"
"LBA2019_e1","LBA2019_e1_101","072.png",38,1,"BiasNewInstruction",3,5679,"Include"
"LBA2019_e1","LBA2019_e1_101","117.png",39,0,"BiasNewInstruction",6,4070,"Include"
"LBA2019_e1","LBA2019_e1_101","122.png",40,0,"BiasNewInstruction",1,1363,"Include"
"LBA2019_e1","LBA2019_e1_101","125.png",41,0,"BiasNewInstruction",6,2312,"Include"
"LBA2019_e1","LBA2019_e1_101","132.png",42,0,"BiasNewInstruction",3,3605,"Include"
"LBA2019_e1","LBA2019_e1_101","083.png",43,1,"BiasNewInstruction",7,1101,"Include"
"LBA2019_e1","LBA2019_e1_101","094.png",44,1,"BiasNewInstruction",6,1769,"Include"
"LBA2019_e1","LBA2019_e1_101","162.png",45,0,"BiasNewInstruction",7,1187,"Include"
"LBA2019_e1","LBA2019_e1_101","170.png",46,0,"BiasNewInstruction",7,1574,"Include"
"LBA2019_e1","LBA2019_e1_101","098.png",47,1,"BiasNewInstruction",5,2492,"Include"
"LBA2019_e1","LBA2019_e1_101","106.png",48,1,"BiasNewInstruction",3,5671,"Include"
"LBA2019_e1","LBA2019_e1_101","171.png",49,0,"BiasNewInstruction",6,1363,"Include"
"LBA2019_e1","LBA2019_e1_101","176.png",50,0,"BiasNewInstruction",5,4460,"Include"
"LBA2019_e1","LBA2019_e1_101","107.png",51,1,"BiasNewInstruction",7,2437,"Include"
"LBA2019_e1","LBA2019_e1_101","177.png",52,0,"BiasNewInstruction",6,1718,"Include"
"LBA2019_e1","LBA2019_e1_101","113.png",53,1,"BiasNewInstruction",4,1433,"Include"
"LBA2019_e1","LBA2019_e1_101","115.png",54,1,"BiasNewInstruction",7,1347,"Include"
"LBA2019_e1","LBA2019_e1_101","179.png",55,0,"BiasNewInstruction",3,3792,"Include"
"LBA2019_e1","LBA2019_e1_101","120.png",56,1,"BiasNewInstruction",7,1191,"Include"
"LBA2019_e1","LBA2019_e1_101","121.png",57,1,"BiasNewInstruction",7,1785,"Include"
"LBA2019_e1","LBA2019_e1_101","124.png",58,1,"BiasNewInstruction",3,2160,"Include"
"LBA2019_e1","LBA2019_e1_101","188.png",59,0,"BiasNewInstruction",2,2558,"Include"
"LBA2019_e1","LBA2019_e1_101","202.png",60,0,"BiasNewInstruction",6,2273,"Include"
"LBA2019_e1","LBA2019_e1_101","203.png",61,0,"BiasNewInstruction",5,2875,"Include"
"LBA2019_e1","LBA2019_e1_101","127.png",62,1,"BiasNewInstruction",6,1175,"Include"
"LBA2019_e1","LBA2019_e1_101","229.png",63,0,"BiasNewInstruction",2,4105,"Include"
"LBA2019_e1","LBA2019_e1_101","237.png",64,0,"BiasNewInstruction",1,3238,"Include"
"LBA2019_e1","LBA2019_e1_101","239.png",65,0,"BiasNewInstruction",5,1996,"Include"
"LBA2019_e1","LBA2019_e1_101","135.png",66,1,"BiasNewInstruction",7,1246,"Include"
"LBA2019_e1","LBA2019_e1_101","139.png",67,1,"BiasNewInstruction",7,2265,"Include"
"LBA2019_e1","LBA2019_e1_101","241.png",68,0,"BiasNewInstruction",4,3960,"Include"
"LBA2019_e1","LBA2019_e1_101","150.png",69,1,"BiasNewInstruction",7,1734,"Include"
"LBA2019_e1","LBA2019_e1_101","151.png",70,1,"BiasNewInstruction",6,1773,"Include"
"LBA2019_e1","LBA2019_e1_101","249.png",71,0,"BiasNewInstruction",6,4804,"Include"
"LBA2019_e1","LBA2019_e1_101","250.png",72,0,"BiasNewInstruction",5,2917,"Include"
"LBA2019_e1","LBA2019_e1_101","254.png",73,0,"BiasNewInstruction",6,1281,"Include"
"LBA2019_e1","LBA2019_e1_101","160.png",74,1,"BiasNewInstruction",7,1246,"Include"
"LBA2019_e1","LBA2019_e1_101","164.png",75,1,"BiasNewInstruction",6,1738,"Include"
"LBA2019_e1","LBA2019_e1_101","255.png",76,0,"BiasNewInstruction",7,1773,"Include"
"LBA2019_e1","LBA2019_e1_101","260.png",77,0,"BiasNewInstruction",7,1312,"Include"
"LBA2019_e1","LBA2019_e1_101","165.png",78,1,"BiasNewInstruction",6,3511,"Include"
"LBA2019_e1","LBA2019_e1_101","266.png",79,0,"BiasNewInstruction",5,3335,"Include"
"LBA2019_e1","LBA2019_e1_101","173.png",80,1,"BiasNewInstruction",4,3355,"Include"
"LBA2019_e1","LBA2019_e1_101","194.png",81,1,"BiasNewInstruction",7,1140,"Include"
"LBA2019_e1","LBA2019_e1_101","277.png",82,0,"BiasNewInstruction",3,2875,"Include"
"LBA2019_e1","LBA2019_e1_101","279.png",83,0,"BiasNewInstruction",6,902,"Include"
"LBA2019_e1","LBA2019_e1_101","280.png",84,0,"BiasNewInstruction",5,1281,"Include"
"LBA2019_e1","LBA2019_e1_101","281.png",85,0,"BiasNewInstruction",6,1101,"Include"
"LBA2019_e1","LBA2019_e1_101","283.png",86,0,"BiasNewInstruction",7,1191,"Include"
"LBA2019_e1","LBA2019_e1_101","284.png",87,0,"BiasNewInstruction",3,2265,"Include"
"LBA2019_e1","LBA2019_e1_101","288.png",88,0,"BiasNewInstruction",7,1328,"Include"
"LBA2019_e1","LBA2019_e1_101","289.png",89,0,"BiasNewInstruction",7,1714,"Include"
"LBA2019_e1","LBA2019_e1_101","195.png",90,1,"BiasNewInstruction",6,1703,"Include"
"LBA2019_e1","LBA2019_e1_101","207.png",91,1,"BiasNewInstruction",5,1351,"Include"
"LBA2019_e1","LBA2019_e1_101","216.png",92,1,"BiasNewInstruction",5,2371,"Include"
"LBA2019_e1","LBA2019_e1_101","217.png",93,1,"BiasNewInstruction",7,1105,"Include"
"LBA2019_e1","LBA2019_e1_101","218.png",94,1,"BiasNewInstruction",4,5218,"Include"
"LBA2019_e1","LBA2019_e1_101","220.png",95,1,"BiasNewInstruction",6,1015,"Include"
"LBA2019_e1","LBA2019_e1_101","228.png",96,1,"BiasNewInstruction",5,4726,"Include"
"LBA2019_e1","LBA2019_e1_101","230.png",97,1,"BiasNewInstruction",5,1820,"Include"
"LBA2019_e1","LBA2019_e1_101","231.png",98,1,"BiasNewInstruction",1,2175,"Include"
"LBA2019_e1","LBA2019_e1_101","245.png",99,1,"BiasNewInstruction",3,3351,"Include"
"LBA2019_e1","LBA2019_e1_101","252.png",100,1,"BiasNewInstruction",6,3597,"Include"
"LBA2019_e1","LBA2019_e1_101","007.png",1,0,"BiasOldInstruction",6,1113,"Include"
"LBA2019_e1","LBA2019_e1_101","012.png",2,0,"BiasOldInstruction",2,2484,"Include"
"LBA2019_e1","LBA2019_e1_101","013.png",3,0,"BiasOldInstruction",1,1117,"Include"
"LBA2019_e1","LBA2019_e1_101","015.png",4,0,"BiasOldInstruction",6,1605,"Include"
"LBA2019_e1","LBA2019_e1_101","009.png",5,1,"BiasOldInstruction",7,1562,"Include"
"LBA2019_e1","LBA2019_e1_101","016.png",6,1,"BiasOldInstruction",6,1066,"Include"
"LBA2019_e1","LBA2019_e1_101","022.png",7,1,"BiasOldInstruction",7,1035,"Include"
"LBA2019_e1","LBA2019_e1_101","021.png",8,0,"BiasOldInstruction",6,1398,"Include"
"LBA2019_e1","LBA2019_e1_101","039.png",9,0,"BiasOldInstruction",3,1531,"Include"
"LBA2019_e1","LBA2019_e1_101","029.png",10,1,"BiasOldInstruction",6,964,"Include"
"LBA2019_e1","LBA2019_e1_101","031.png",11,1,"BiasOldInstruction",3,1855,"Include"
"LBA2019_e1","LBA2019_e1_101","038.png",12,1,"BiasOldInstruction",6,1402,"Include"
"LBA2019_e1","LBA2019_e1_101","049.png",13,0,"BiasOldInstruction",4,5253,"Include"
"LBA2019_e1","LBA2019_e1_101","059.png",14,0,"BiasOldInstruction",7,1957,"Include"
"LBA2019_e1","LBA2019_e1_101","040.png",15,1,"BiasOldInstruction",7,1492,"Include"
"LBA2019_e1","LBA2019_e1_101","067.png",16,0,"BiasOldInstruction",5,1433,"Include"
"LBA2019_e1","LBA2019_e1_101","041.png",17,1,"BiasOldInstruction",6,1136,"Include"
"LBA2019_e1","LBA2019_e1_101","078.png",18,0,"BiasOldInstruction",5,2628,"Include"
"LBA2019_e1","LBA2019_e1_101","042.png",19,1,"BiasOldInstruction",2,945,"Include"
"LBA2019_e1","LBA2019_e1_101","080.png",20,0,"BiasOldInstruction",1,3539,"Include"
"LBA2019_e1","LBA2019_e1_101","081.png",21,0,"BiasOldInstruction",5,2312,"Include"
"LBA2019_e1","LBA2019_e1_101","047.png",22,1,"BiasOldInstruction",3,4625,"Include"
"LBA2019_e1","LBA2019_e1_101","060.png",23,1,"BiasOldInstruction",7,1000,"Include"
"LBA2019_e1","LBA2019_e1_101","076.png",24,1,"BiasOldInstruction",7,3335,"Include"
"LBA2019_e1","LBA2019_e1_101","085.png",25,0,"BiasOldInstruction",5,6320,"Include"
"LBA2019_e1","LBA2019_e1_101","082.png",26,1,"BiasOldInstruction",7,1035,"Include"
"LBA2019_e1","LBA2019_e1_101","087.png",27,0,"BiasOldInstruction",7,902,"Include"
"LBA2019_e1","LBA2019_e1_101","091.png",28,1,"BiasOldInstruction",5,1773,"Include"
"LBA2019_e1","LBA2019_e1_101","093.png",29,0,"BiasOldInstruction",5,2000,"Include"
"LBA2019_e1","LBA2019_e1_101","095.png",30,1,"BiasOldInstruction",2,1210,"Include"
"LBA2019_e1","LBA2019_e1_101","116.png",31,1,"BiasOldInstruction",7,1351,"Include"
"LBA2019_e1","LBA2019_e1_101","126.png",32,1,"BiasOldInstruction",1,2792,"Include"
"LBA2019_e1","LBA2019_e1_101","130.png",33,1,"BiasOldInstruction",7,1332,"Include"
"LBA2019_e1","LBA2019_e1_101","131.png",34,1,"BiasOldInstruction",5,3191,"Include"
"LBA2019_e1","LBA2019_e1_101","096.png",35,0,"BiasOldInstruction",2,1246,"Include"
"LBA2019_e1","LBA2019_e1_101","133.png",36,1,"BiasOldInstruction",2,1347,"Include"
"LBA2019_e1","LBA2019_e1_101","101.png",37,0,"BiasOldInstruction",5,2699,"Include"
"LBA2019_e1","LBA2019_e1_101","136.png",38,1,"BiasOldInstruction",1,1222,"Include"
"LBA2019_e1","LBA2019_e1_101","103.png",39,0,"BiasOldInstruction",3,3445,"Include"
"LBA2019_e1","LBA2019_e1_101","143.png",40,1,"BiasOldInstruction",2,2226,"Include"
"LBA2019_e1","LBA2019_e1_101","145.png",41,1,"BiasOldInstruction",7,2753,"Include"
"LBA2019_e1","LBA2019_e1_101","146.png",42,1,"BiasOldInstruction",7,1257,"Include"
"LBA2019_e1","LBA2019_e1_101","104.png",43,0,"BiasOldInstruction",4,6343,"Include"
"LBA2019_e1","LBA2019_e1_101","169.png",44,1,"BiasOldInstruction",1,1644,"Include"
"LBA2019_e1","LBA2019_e1_101","174.png",45,1,"BiasOldInstruction",6,1562,"Include"
"LBA2019_e1","LBA2019_e1_101","175.png",46,1,"BiasOldInstruction",5,2792,"Include"
"LBA2019_e1","LBA2019_e1_101","105.png",47,0,"BiasOldInstruction",6,1324,"Include"
"LBA2019_e1","LBA2019_e1_101","178.png",48,1,"BiasOldInstruction",4,1804,"Include"
"LBA2019_e1","LBA2019_e1_101","183.png",49,1,"BiasOldInstruction",7,1332,"Include"
"LBA2019_e1","LBA2019_e1_101","111.png",50,0,"BiasOldInstruction",3,2660,"Include"
"LBA2019_e1","LBA2019_e1_101","119.png",51,0,"BiasOldInstruction",3,4921,"Include"
"LBA2019_e1","LBA2019_e1_101","128.png",52,0,"BiasOldInstruction",2,1363,"Include"
"LBA2019_e1","LBA2019_e1_101","134.png",53,0,"BiasOldInstruction",2,1175,"Include"
"LBA2019_e1","LBA2019_e1_101","198.png",54,1,"BiasOldInstruction",7,2054,"Include"
"LBA2019_e1","LBA2019_e1_101","137.png",55,0,"BiasOldInstruction",1,2757,"Include"
"LBA2019_e1","LBA2019_e1_101","204.png",56,1,"BiasOldInstruction",7,2316,"Include"
"LBA2019_e1","LBA2019_e1_101","140.png",57,0,"BiasOldInstruction",3,3292,"Include"
"LBA2019_e1","LBA2019_e1_101","144.png",58,0,"BiasOldInstruction",2,1289,"Include"
"LBA2019_e1","LBA2019_e1_101","156.png",59,0,"BiasOldInstruction",5,2550,"Include"
"LBA2019_e1","LBA2019_e1_101","157.png",60,0,"BiasOldInstruction",3,3656,"Include"
"LBA2019_e1","LBA2019_e1_101","214.png",61,1,"BiasOldInstruction",6,1312,"Include"
"LBA2019_e1","LBA2019_e1_101","233.png",62,1,"BiasOldInstruction",4,3929,"Include"
"LBA2019_e1","LBA2019_e1_101","158.png",63,0,"BiasOldInstruction",2,1609,"Include"
"LBA2019_e1","LBA2019_e1_101","234.png",64,1,"BiasOldInstruction",6,2226,"Include"
"LBA2019_e1","LBA2019_e1_101","181.png",65,0,"BiasOldInstruction",1,6496,"Include"
"LBA2019_e1","LBA2019_e1_101","184.png",66,0,"BiasOldInstruction",3,2804,"Include"
"LBA2019_e1","LBA2019_e1_101","186.png",67,0,"BiasOldInstruction",5,2796,"Include"
"LBA2019_e1","LBA2019_e1_101","242.png",68,1,"BiasOldInstruction",6,1222,"Include"
"LBA2019_e1","LBA2019_e1_101","244.png",69,1,"BiasOldInstruction",6,1808,"Include"
"LBA2019_e1","LBA2019_e1_101","190.png",70,0,"BiasOldInstruction",7,2207,"Include"
"LBA2019_e1","LBA2019_e1_101","193.png",71,0,"BiasOldInstruction",7,1683,"Include"
"LBA2019_e1","LBA2019_e1_101","196.png",72,0,"BiasOldInstruction",5,2699,"Include"
"LBA2019_e1","LBA2019_e1_101","258.png",73,1,"BiasOldInstruction",7,1316,"Include"
"LBA2019_e1","LBA2019_e1_101","259.png",74,1,"BiasOldInstruction",7,1039,"Include"
"LBA2019_e1","LBA2019_e1_101","201.png",75,0,"BiasOldInstruction",6,1187,"Include"
"LBA2019_e1","LBA2019_e1_101","205.png",76,0,"BiasOldInstruction",3,2179,"Include"
"LBA2019_e1","LBA2019_e1_101","263.png",77,1,"BiasOldInstruction",7,894,"Include"
"LBA2019_e1","LBA2019_e1_101","206.png",78,0,"BiasOldInstruction",2,2589,"Include"
"LBA2019_e1","LBA2019_e1_101","264.png",79,1,"BiasOldInstruction",6,1425,"Include"
"LBA2019_e1","LBA2019_e1_101","210.png",80,0,"BiasOldInstruction",3,3437,"Include"
"LBA2019_e1","LBA2019_e1_101","267.png",81,1,"BiasOldInstruction",7,1082,"Include"
"LBA2019_e1","LBA2019_e1_101","276.png",82,1,"BiasOldInstruction",7,1046,"Include"
"LBA2019_e1","LBA2019_e1_101","278.png",83,1,"BiasOldInstruction",7,2160,"Include"
"LBA2019_e1","LBA2019_e1_101","285.png",84,1,"BiasOldInstruction",5,3636,"Include"
"LBA2019_e1","LBA2019_e1_101","212.png",85,0,"BiasOldInstruction",6,1328,"Include"
"LBA2019_e1","LBA2019_e1_101","286.png",86,1,"BiasOldInstruction",7,1945,"Include"
"LBA2019_e1","LBA2019_e1_101","215.png",87,0,"BiasOldInstruction",2,4875,"Include"
"LBA2019_e1","LBA2019_e1_101","219.png",88,0,"BiasOldInstruction",5,3812,"Include"
"LBA2019_e1","LBA2019_e1_101","291.png",89,1,"BiasOldInstruction",6,1386,"Include"
"LBA2019_e1","LBA2019_e1_101","292.png",90,1,"BiasOldInstruction",7,1140,"Include"
"LBA2019_e1","LBA2019_e1_101","221.png",91,0,"BiasOldInstruction",2,4316,"Include"
"LBA2019_e1","LBA2019_e1_101","232.png",92,0,"BiasOldInstruction",2,1925,"Include"
"LBA2019_e1","LBA2019_e1_101","238.png",93,0,"BiasOldInstruction",4,2035,"Include"
"LBA2019_e1","LBA2019_e1_101","293.png",94,1,"BiasOldInstruction",6,1562,"Include"
"LBA2019_e1","LBA2019_e1_101","294.png",95,1,"BiasOldInstruction",6,1046,"Include"
"LBA2019_e1","LBA2019_e1_101","297.png",96,1,"BiasOldInstruction",6,1367,"Include"
"LBA2019_e1","LBA2019_e1_101","248.png",97,0,"BiasOldInstruction",2,1257,"Include"
"LBA2019_e1","LBA2019_e1_101","251.png",98,0,"BiasOldInstruction",3,3750,"Include"
"LBA2019_e1","LBA2019_e1_101","253.png",99,0,"BiasOldInstruction",5,2246,"Include"
"LBA2019_e1","LBA2019_e1_101","257.png",100,0,"BiasOldInstruction",6,1257,"Include"
"LBA2019_e1","LBA2019_e1_101","008.png",1,1,"NoBiasInstruction",7,1781,"Include"
"LBA2019_e1","LBA2019_e1_101","017.png",2,1,"NoBiasInstruction",6,3109,"Include"
"LBA2019_e1","LBA2019_e1_101","023.png",3,1,"NoBiasInstruction",7,2156,"Include"
"LBA2019_e1","LBA2019_e1_101","005.png",4,0,"NoBiasInstruction",3,2464,"Include"
"LBA2019_e1","LBA2019_e1_101","027.png",5,1,"NoBiasInstruction",6,3125,"Include"
"LBA2019_e1","LBA2019_e1_101","033.png",6,1,"NoBiasInstruction",6,1296,"Include"
"LBA2019_e1","LBA2019_e1_101","035.png",7,1,"NoBiasInstruction",7,1046,"Include"
"LBA2019_e1","LBA2019_e1_101","054.png",8,1,"NoBiasInstruction",7,1804,"Include"
"LBA2019_e1","LBA2019_e1_101","011.png",9,0,"NoBiasInstruction",2,1429,"Include"
"LBA2019_e1","LBA2019_e1_101","056.png",10,1,"NoBiasInstruction",7,1421,"Include"
"LBA2019_e1","LBA2019_e1_101","064.png",11,1,"NoBiasInstruction",6,1996,"Include"
"LBA2019_e1","LBA2019_e1_101","069.png",12,1,"NoBiasInstruction",2,4621,"Include"
"LBA2019_e1","LBA2019_e1_101","075.png",13,1,"NoBiasInstruction",3,2195,"Include"
"LBA2019_e1","LBA2019_e1_101","092.png",14,1,"NoBiasInstruction",7,1312,"Include"
"LBA2019_e1","LBA2019_e1_101","097.png",15,1,"NoBiasInstruction",3,3601,"Include"
"LBA2019_e1","LBA2019_e1_101","019.png",16,0,"NoBiasInstruction",1,1914,"Include"
"LBA2019_e1","LBA2019_e1_101","020.png",17,0,"NoBiasInstruction",1,1218,"Include"
"LBA2019_e1","LBA2019_e1_101","026.png",18,0,"NoBiasInstruction",1,1648,"Include"
"LBA2019_e1","LBA2019_e1_101","109.png",19,1,"NoBiasInstruction",5,4058,"Include"
"LBA2019_e1","LBA2019_e1_101","110.png",20,1,"NoBiasInstruction",6,2031,"Include"
"LBA2019_e1","LBA2019_e1_101","050.png",21,0,"NoBiasInstruction",7,1156,"Include"
"LBA2019_e1","LBA2019_e1_101","052.png",22,0,"NoBiasInstruction",1,1953,"Include"
"LBA2019_e1","LBA2019_e1_101","114.png",23,1,"NoBiasInstruction",6,4128,"Include"
"LBA2019_e1","LBA2019_e1_101","141.png",24,1,"NoBiasInstruction",2,1808,"Include"
"LBA2019_e1","LBA2019_e1_101","063.png",25,0,"NoBiasInstruction",1,2562,"Include"
"LBA2019_e1","LBA2019_e1_101","065.png",26,0,"NoBiasInstruction",1,1183,"Include"
"LBA2019_e1","LBA2019_e1_101","148.png",27,1,"NoBiasInstruction",7,1964,"Include"
"LBA2019_e1","LBA2019_e1_101","068.png",28,0,"NoBiasInstruction",7,2660,"Include"
"LBA2019_e1","LBA2019_e1_101","073.png",29,0,"NoBiasInstruction",3,2414,"Include"
"LBA2019_e1","LBA2019_e1_101","159.png",30,1,"NoBiasInstruction",6,4023,"Include"
"LBA2019_e1","LBA2019_e1_101","079.png",31,0,"NoBiasInstruction",1,2660,"Include"
"LBA2019_e1","LBA2019_e1_101","161.png",32,1,"NoBiasInstruction",7,2230,"Include"
"LBA2019_e1","LBA2019_e1_101","166.png",33,1,"NoBiasInstruction",3,2789,"Include"
"LBA2019_e1","LBA2019_e1_101","084.png",34,0,"NoBiasInstruction",7,1710,"Include"
"LBA2019_e1","LBA2019_e1_101","086.png",35,0,"NoBiasInstruction",2,1316,"Include"
"LBA2019_e1","LBA2019_e1_101","167.png",36,1,"NoBiasInstruction",4,4867,"Include"
"LBA2019_e1","LBA2019_e1_101","088.png",37,0,"NoBiasInstruction",6,2308,"Include"
"LBA2019_e1","LBA2019_e1_101","089.png",38,0,"NoBiasInstruction",2,2515,"Include"
"LBA2019_e1","LBA2019_e1_101","090.png",39,0,"NoBiasInstruction",3,2835,"Include"
"LBA2019_e1","LBA2019_e1_101","172.png",40,1,"NoBiasInstruction",5,2769,"Include"
"LBA2019_e1","LBA2019_e1_101","102.png",41,0,"NoBiasInstruction",1,2628,"Include"
"LBA2019_e1","LBA2019_e1_101","118.png",42,0,"NoBiasInstruction",6,3195,"Include"
"LBA2019_e1","LBA2019_e1_101","123.png",43,0,"NoBiasInstruction",6,2449,"Include"
"LBA2019_e1","LBA2019_e1_101","129.png",44,0,"NoBiasInstruction",1,1257,"Include"
"LBA2019_e1","LBA2019_e1_101","138.png",45,0,"NoBiasInstruction",2,2031,"Include"
"LBA2019_e1","LBA2019_e1_101","142.png",46,0,"NoBiasInstruction",6,2847,"Include"
"LBA2019_e1","LBA2019_e1_101","180.png",47,1,"NoBiasInstruction",4,2875,"Include"
"LBA2019_e1","LBA2019_e1_101","147.png",48,0,"NoBiasInstruction",2,4457,"Include"
"LBA2019_e1","LBA2019_e1_101","185.png",49,1,"NoBiasInstruction",7,1613,"Include"
"LBA2019_e1","LBA2019_e1_101","189.png",50,1,"NoBiasInstruction",6,2789,"Include"
"LBA2019_e1","LBA2019_e1_101","149.png",51,0,"NoBiasInstruction",2,3085,"Include"
"LBA2019_e1","LBA2019_e1_101","192.png",52,1,"NoBiasInstruction",3,1875,"Include"
"LBA2019_e1","LBA2019_e1_101","197.png",53,1,"NoBiasInstruction",7,2863,"Include"
"LBA2019_e1","LBA2019_e1_101","199.png",54,1,"NoBiasInstruction",7,2929,"Include"
"LBA2019_e1","LBA2019_e1_101","209.png",55,1,"NoBiasInstruction",3,4179,"Include"
"LBA2019_e1","LBA2019_e1_101","152.png",56,0,"NoBiasInstruction",3,3789,"Include"
"LBA2019_e1","LBA2019_e1_101","153.png",57,0,"NoBiasInstruction",6,3261,"Include"
"LBA2019_e1","LBA2019_e1_101","211.png",58,1,"NoBiasInstruction",4,2019,"Include"
"LBA2019_e1","LBA2019_e1_101","154.png",59,0,"NoBiasInstruction",7,1921,"Include"
"LBA2019_e1","LBA2019_e1_101","155.png",60,0,"NoBiasInstruction",3,5542,"Include"
"LBA2019_e1","LBA2019_e1_101","163.png",61,0,"NoBiasInstruction",7,2843,"Include"
"LBA2019_e1","LBA2019_e1_101","168.png",62,0,"NoBiasInstruction",4,2312,"Include"
"LBA2019_e1","LBA2019_e1_101","182.png",63,0,"NoBiasInstruction",5,4351,"Include"
"LBA2019_e1","LBA2019_e1_101","187.png",64,0,"NoBiasInstruction",6,2207,"Include"
"LBA2019_e1","LBA2019_e1_101","223.png",65,1,"NoBiasInstruction",7,2125,"Include"
"LBA2019_e1","LBA2019_e1_101","225.png",66,1,"NoBiasInstruction",5,3285,"Include"
"LBA2019_e1","LBA2019_e1_101","191.png",67,0,"NoBiasInstruction",1,2664,"Include"
"LBA2019_e1","LBA2019_e1_101","227.png",68,1,"NoBiasInstruction",6,2824,"Include"
"LBA2019_e1","LBA2019_e1_101","235.png",69,1,"NoBiasInstruction",7,2699,"Include"
"LBA2019_e1","LBA2019_e1_101","240.png",70,1,"NoBiasInstruction",7,3460,"Include"
"LBA2019_e1","LBA2019_e1_101","200.png",71,0,"NoBiasInstruction",2,2507,"Include"
"LBA2019_e1","LBA2019_e1_101","247.png",72,1,"NoBiasInstruction",6,1683,"Include"
"LBA2019_e1","LBA2019_e1_101","262.png",73,1,"NoBiasInstruction",6,1875,"Include"
"LBA2019_e1","LBA2019_e1_101","208.png",74,0,"NoBiasInstruction",2,4035,"Include"
"LBA2019_e1","LBA2019_e1_101","213.png",75,0,"NoBiasInstruction",4,2312,"Include"
"LBA2019_e1","LBA2019_e1_101","268.png",76,1,"NoBiasInstruction",7,1703,"Include"
"LBA2019_e1","LBA2019_e1_101","269.png",77,1,"NoBiasInstruction",7,1261,"Include"
"LBA2019_e1","LBA2019_e1_101","273.png",78,1,"NoBiasInstruction",7,1015,"Include"
"LBA2019_e1","LBA2019_e1_101","222.png",79,0,"NoBiasInstruction",6,2164,"Include"
"LBA2019_e1","LBA2019_e1_101","224.png",80,0,"NoBiasInstruction",3,2140,"Include"
"LBA2019_e1","LBA2019_e1_101","226.png",81,0,"NoBiasInstruction",5,3750,"Include"
"LBA2019_e1","LBA2019_e1_101","274.png",82,1,"NoBiasInstruction",6,1214,"Include"
"LBA2019_e1","LBA2019_e1_101","282.png",83,1,"NoBiasInstruction",7,1429,"Include"
"LBA2019_e1","LBA2019_e1_101","287.png",84,1,"NoBiasInstruction",7,1597,"Include"
"LBA2019_e1","LBA2019_e1_101","236.png",85,0,"NoBiasInstruction",3,1992,"Include"
"LBA2019_e1","LBA2019_e1_101","290.png",86,1,"NoBiasInstruction",7,1242,"Include"
"LBA2019_e1","LBA2019_e1_101","243.png",87,0,"NoBiasInstruction",7,2210,"Include"
"LBA2019_e1","LBA2019_e1_101","295.png",88,1,"NoBiasInstruction",7,1679,"Include"
"LBA2019_e1","LBA2019_e1_101","246.png",89,0,"NoBiasInstruction",3,2773,"Include"
"LBA2019_e1","LBA2019_e1_101","296.png",90,1,"NoBiasInstruction",7,1140,"Include"
"LBA2019_e1","LBA2019_e1_101","256.png",91,0,"NoBiasInstruction",1,1222,"Include"
"LBA2019_e1","LBA2019_e1_101","261.png",92,0,"NoBiasInstruction",1,1210,"Include"
"LBA2019_e1","LBA2019_e1_101","298.png",93,1,"NoBiasInstruction",4,5601,"Include"
"LBA2019_e1","LBA2019_e1_101","299.png",94,1,"NoBiasInstruction",1,1523,"Include"
"LBA2019_e1","LBA2019_e1_101","300.png",95,1,"NoBiasInstruction",5,2667,"Include"
"LBA2019_e1","LBA2019_e1_101","265.png",96,0,"NoBiasInstruction",2,2562,"Include"
"LBA2019_e1","LBA2019_e1_101","270.png",97,0,"NoBiasInstruction",1,1890,"Include"
"LBA2019_e1","LBA2019_e1_101","271.png",98,0,"NoBiasInstruction",3,5078,"Include"
"LBA2019_e1","LBA2019_e1_101","272.png",99,0,"NoBiasInstruction",1,1433,"Include"
"LBA2019_e1","LBA2019_e1_101","275.png",100,0,"NoBiasInstruction",6,2308,"Include"
"LBA2019_e1","LBA2019_e1_102","007.png",1,0,"BiasNewInstruction",3,2898,"Include"
"LBA2019_e1","LBA2019_e1_102","009.png",2,0,"BiasNewInstruction",1,1187,"Include"
"LBA2019_e1","LBA2019_e1_102","012.png",3,0,"BiasNewInstruction",6,1156,"Include"
"LBA2019_e1","LBA2019_e1_102","004.png",4,1,"BiasNewInstruction",2,1140,"Include"
"LBA2019_e1","LBA2019_e1_102","016.png",5,0,"BiasNewInstruction",6,1406,"Include"
"LBA2019_e1","LBA2019_e1_102","028.png",6,1,"BiasNewInstruction",1,1226,"Include"
"LBA2019_e1","LBA2019_e1_102","022.png",7,0,"BiasNewInstruction",7,1007,"Include"
"LBA2019_e1","LBA2019_e1_102","031.png",8,1,"BiasNewInstruction",6,1031,"Include"
"LBA2019_e1","LBA2019_e1_102","040.png",9,1,"BiasNewInstruction",6,835,"Include"
"LBA2019_e1","LBA2019_e1_102","041.png",10,1,"BiasNewInstruction",7,1632,"Include"
"LBA2019_e1","LBA2019_e1_102","047.png",11,1,"BiasNewInstruction",6,1117,"Include"
"LBA2019_e1","LBA2019_e1_102","029.png",12,0,"BiasNewInstruction",5,1265,"Include"
"LBA2019_e1","LBA2019_e1_102","070.png",13,1,"BiasNewInstruction",3,679,"Include"
"LBA2019_e1","LBA2019_e1_102","038.png",14,0,"BiasNewInstruction",5,2062,"Include"
"LBA2019_e1","LBA2019_e1_102","091.png",15,1,"BiasNewInstruction",2,1523,"Include"
"LBA2019_e1","LBA2019_e1_102","039.png",16,0,"BiasNewInstruction",2,1148,"Include"
"LBA2019_e1","LBA2019_e1_102","099.png",17,1,"BiasNewInstruction",6,1351,"Include"
"LBA2019_e1","LBA2019_e1_102","116.png",18,1,"BiasNewInstruction",2,1039,"Include"
"LBA2019_e1","LBA2019_e1_102","133.png",19,1,"BiasNewInstruction",6,1843,"Include"
"LBA2019_e1","LBA2019_e1_102","042.png",20,0,"BiasNewInstruction",2,1742,"Include"
"LBA2019_e1","LBA2019_e1_102","059.png",21,0,"BiasNewInstruction",1,2742,"Include"
"LBA2019_e1","LBA2019_e1_102","060.png",22,0,"BiasNewInstruction",1,968,"Include"
"LBA2019_e1","LBA2019_e1_102","143.png",23,1,"BiasNewInstruction",1,1000,"Include"
"LBA2019_e1","LBA2019_e1_102","067.png",24,0,"BiasNewInstruction",2,804,"Include"
"LBA2019_e1","LBA2019_e1_102","076.png",25,0,"BiasNewInstruction",1,1046,"Include"
"LBA2019_e1","LBA2019_e1_102","170.png",26,1,"BiasNewInstruction",5,2687,"Include"
"LBA2019_e1","LBA2019_e1_102","174.png",27,1,"BiasNewInstruction",2,2093,"Include"
"LBA2019_e1","LBA2019_e1_102","078.png",28,0,"BiasNewInstruction",2,726,"Include"
"LBA2019_e1","LBA2019_e1_102","176.png",29,1,"BiasNewInstruction",7,1453,"Include"
"LBA2019_e1","LBA2019_e1_102","080.png",30,0,"BiasNewInstruction",1,1007,"Include"
"LBA2019_e1","LBA2019_e1_102","081.png",31,0,"BiasNewInstruction",1,1125,"Include"
"LBA2019_e1","LBA2019_e1_102","082.png",32,0,"BiasNewInstruction",6,1429,"Include"
"LBA2019_e1","LBA2019_e1_102","085.png",33,0,"BiasNewInstruction",5,1492,"Include"
"LBA2019_e1","LBA2019_e1_102","095.png",34,0,"BiasNewInstruction",1,1281,"Include"
"LBA2019_e1","LBA2019_e1_102","101.png",35,0,"BiasNewInstruction",2,1007,"Include"
"LBA2019_e1","LBA2019_e1_102","183.png",36,1,"BiasNewInstruction",4,648,"Include"
"LBA2019_e1","LBA2019_e1_102","105.png",37,0,"BiasNewInstruction",6,2203,"Include"
"LBA2019_e1","LBA2019_e1_102","126.png",38,0,"BiasNewInstruction",6,1890,"Include"
"LBA2019_e1","LBA2019_e1_102","130.png",39,0,"BiasNewInstruction",1,1054,"Include"
"LBA2019_e1","LBA2019_e1_102","198.png",40,1,"BiasNewInstruction",1,1226,"Include"
"LBA2019_e1","LBA2019_e1_102","131.png",41,0,"BiasNewInstruction",1,804,"Include"
"LBA2019_e1","LBA2019_e1_102","136.png",42,0,"BiasNewInstruction",1,695,"Include"
"LBA2019_e1","LBA2019_e1_102","137.png",43,0,"BiasNewInstruction",5,1046,"Include"
"LBA2019_e1","LBA2019_e1_102","214.png",44,1,"BiasNewInstruction",6,859,"Include"
"LBA2019_e1","LBA2019_e1_102","145.png",45,0,"BiasNewInstruction",1,1039,"Include"
"LBA2019_e1","LBA2019_e1_102","146.png",46,0,"BiasNewInstruction",1,1601,"Include"
"LBA2019_e1","LBA2019_e1_102","156.png",47,0,"BiasNewInstruction",5,3210,"Include"
"LBA2019_e1","LBA2019_e1_102","234.png",48,1,"BiasNewInstruction",5,898,"Include"
"LBA2019_e1","LBA2019_e1_102","158.png",49,0,"BiasNewInstruction",7,2351,"Include"
"LBA2019_e1","LBA2019_e1_102","239.png",50,1,"BiasNewInstruction",5,914,"Include"
"LBA2019_e1","LBA2019_e1_102","169.png",51,0,"BiasNewInstruction",1,1226,"Include"
"LBA2019_e1","LBA2019_e1_102","175.png",52,0,"BiasNewInstruction",2,835,"Include"
"LBA2019_e1","LBA2019_e1_102","178.png",53,0,"BiasNewInstruction",3,757,"Include"
"LBA2019_e1","LBA2019_e1_102","241.png",54,1,"BiasNewInstruction",2,1882,"Include"
"LBA2019_e1","LBA2019_e1_102","242.png",55,1,"BiasNewInstruction",1,5335,"Include"
"LBA2019_e1","LBA2019_e1_102","244.png",56,1,"BiasNewInstruction",7,1140,"Include"
"LBA2019_e1","LBA2019_e1_102","181.png",57,0,"BiasNewInstruction",6,1468,"Include"
"LBA2019_e1","LBA2019_e1_102","249.png",58,1,"BiasNewInstruction",1,914,"Include"
"LBA2019_e1","LBA2019_e1_102","186.png",59,0,"BiasNewInstruction",6,1664,"Include"
"LBA2019_e1","LBA2019_e1_102","193.png",60,0,"BiasNewInstruction",6,1328,"Include"
"LBA2019_e1","LBA2019_e1_102","204.png",61,0,"BiasNewInstruction",1,1078,"Include"
"LBA2019_e1","LBA2019_e1_102","250.png",62,1,"BiasNewInstruction",1,1507,"Include"
"LBA2019_e1","LBA2019_e1_102","206.png",63,0,"BiasNewInstruction",1,2625,"Include"
"LBA2019_e1","LBA2019_e1_102","210.png",64,0,"BiasNewInstruction",5,1257,"Include"
"LBA2019_e1","LBA2019_e1_102","215.png",65,0,"BiasNewInstruction",2,1257,"Include"
"LBA2019_e1","LBA2019_e1_102","260.png",66,1,"BiasNewInstruction",6,2601,"Include"
"LBA2019_e1","LBA2019_e1_102","261.png",67,1,"BiasNewInstruction",1,937,"Include"
"LBA2019_e1","LBA2019_e1_102","233.png",68,0,"BiasNewInstruction",3,2984,"Include"
"LBA2019_e1","LBA2019_e1_102","264.png",69,1,"BiasNewInstruction",3,1632,"Include"
"LBA2019_e1","LBA2019_e1_102","279.png",70,1,"BiasNewInstruction",3,2062,"Include"
"LBA2019_e1","LBA2019_e1_102","280.png",71,1,"BiasNewInstruction",5,968,"Include"
"LBA2019_e1","LBA2019_e1_102","238.png",72,0,"BiasNewInstruction",2,1359,"Include"
"LBA2019_e1","LBA2019_e1_102","281.png",73,1,"BiasNewInstruction",5,1070,"Include"
"LBA2019_e1","LBA2019_e1_102","282.png",74,1,"BiasNewInstruction",2,1140,"Include"
"LBA2019_e1","LBA2019_e1_102","248.png",75,0,"BiasNewInstruction",6,937,"Include"
"LBA2019_e1","LBA2019_e1_102","258.png",76,0,"BiasNewInstruction",1,1226,"Include"
"LBA2019_e1","LBA2019_e1_102","259.png",77,0,"BiasNewInstruction",4,1054,"Include"
"LBA2019_e1","LBA2019_e1_102","283.png",78,1,"BiasNewInstruction",6,1703,"Include"
"LBA2019_e1","LBA2019_e1_102","265.png",79,0,"BiasNewInstruction",1,1125,"Include"
"LBA2019_e1","LBA2019_e1_102","266.png",80,0,"BiasNewInstruction",1,1007,"Include"
"LBA2019_e1","LBA2019_e1_102","284.png",81,1,"BiasNewInstruction",6,929,"Include"
"LBA2019_e1","LBA2019_e1_102","268.png",82,0,"BiasNewInstruction",1,1343,"Include"
"LBA2019_e1","LBA2019_e1_102","273.png",83,0,"BiasNewInstruction",6,1539,"Include"
"LBA2019_e1","LBA2019_e1_102","274.png",84,0,"BiasNewInstruction",3,1750,"Include"
"LBA2019_e1","LBA2019_e1_102","285.png",85,1,"BiasNewInstruction",5,3250,"Include"
"LBA2019_e1","LBA2019_e1_102","286.png",86,1,"BiasNewInstruction",6,1507,"Include"
"LBA2019_e1","LBA2019_e1_102","287.png",87,1,"BiasNewInstruction",1,1710,"Include"
"LBA2019_e1","LBA2019_e1_102","288.png",88,1,"BiasNewInstruction",6,1101,"Include"
"LBA2019_e1","LBA2019_e1_102","289.png",89,1,"BiasNewInstruction",1,2835,"Include"
"LBA2019_e1","LBA2019_e1_102","290.png",90,1,"BiasNewInstruction",2,3203,"Include"
"LBA2019_e1","LBA2019_e1_102","291.png",91,1,"BiasNewInstruction",1,890,"Include"
"LBA2019_e1","LBA2019_e1_102","292.png",92,1,"BiasNewInstruction",2,1710,"Include"
"LBA2019_e1","LBA2019_e1_102","293.png",93,1,"BiasNewInstruction",3,2445,"Include"
"LBA2019_e1","LBA2019_e1_102","294.png",94,1,"BiasNewInstruction",5,859,"Include"
"LBA2019_e1","LBA2019_e1_102","295.png",95,1,"BiasNewInstruction",5,5304,"Include"
"LBA2019_e1","LBA2019_e1_102","296.png",96,1,"BiasNewInstruction",5,1312,"Include"
"LBA2019_e1","LBA2019_e1_102","297.png",97,1,"BiasNewInstruction",7,3984,"Include"
"LBA2019_e1","LBA2019_e1_102","298.png",98,1,"BiasNewInstruction",2,1039,"Include"
"LBA2019_e1","LBA2019_e1_102","299.png",99,1,"BiasNewInstruction",5,2054,"Include"
"LBA2019_e1","LBA2019_e1_102","300.png",100,1,"BiasNewInstruction",1,1335,"Include"
"LBA2019_e1","LBA2019_e1_102","005.png",1,0,"BiasOldInstruction",6,1953,"Include"
"LBA2019_e1","LBA2019_e1_102","013.png",2,1,"BiasOldInstruction",5,2054,"Include"
"LBA2019_e1","LBA2019_e1_102","015.png",3,1,"BiasOldInstruction",6,1179,"Include"
"LBA2019_e1","LBA2019_e1_102","017.png",4,1,"BiasOldInstruction",5,2164,"Include"
"LBA2019_e1","LBA2019_e1_102","008.png",5,0,"BiasOldInstruction",1,976,"Include"
"LBA2019_e1","LBA2019_e1_102","019.png",6,0,"BiasOldInstruction",1,1648,"Include"
"LBA2019_e1","LBA2019_e1_102","020.png",7,0,"BiasOldInstruction",2,1328,"Include"
"LBA2019_e1","LBA2019_e1_102","021.png",8,1,"BiasOldInstruction",5,1101,"Include"
"LBA2019_e1","LBA2019_e1_102","023.png",9,0,"BiasOldInstruction",5,2875,"Include"
"LBA2019_e1","LBA2019_e1_102","026.png",10,0,"BiasOldInstruction",5,804,"Include"
"LBA2019_e1","LBA2019_e1_102","027.png",11,1,"BiasOldInstruction",1,976,"Include"
"LBA2019_e1","LBA2019_e1_102","033.png",12,0,"BiasOldInstruction",3,1953,"Include"
"LBA2019_e1","LBA2019_e1_102","035.png",13,1,"BiasOldInstruction",7,1226,"Include"
"LBA2019_e1","LBA2019_e1_102","049.png",14,1,"BiasOldInstruction",5,3117,"Include"
"LBA2019_e1","LBA2019_e1_102","050.png",15,0,"BiasOldInstruction",4,2554,"Include"
"LBA2019_e1","LBA2019_e1_102","054.png",16,0,"BiasOldInstruction",1,1226,"Include"
"LBA2019_e1","LBA2019_e1_102","056.png",17,1,"BiasOldInstruction",7,1609,"Include"
"LBA2019_e1","LBA2019_e1_102","064.png",18,1,"BiasOldInstruction",3,1210,"Include"
"LBA2019_e1","LBA2019_e1_102","065.png",19,0,"BiasOldInstruction",1,1085,"Include"
"LBA2019_e1","LBA2019_e1_102","075.png",20,1,"BiasOldInstruction",3,1703,"Include"
"LBA2019_e1","LBA2019_e1_102","068.png",21,0,"BiasOldInstruction",6,2546,"Include"
"LBA2019_e1","LBA2019_e1_102","069.png",22,0,"BiasOldInstruction",6,625,"Include"
"LBA2019_e1","LBA2019_e1_102","084.png",23,0,"BiasOldInstruction",3,1890,"Include"
"LBA2019_e1","LBA2019_e1_102","087.png",24,1,"BiasOldInstruction",6,1531,"Include"
"LBA2019_e1","LBA2019_e1_102","086.png",25,0,"BiasOldInstruction",4,1601,"Include"
"LBA2019_e1","LBA2019_e1_102","090.png",26,0,"BiasOldInstruction",6,1070,"Include"
"LBA2019_e1","LBA2019_e1_102","092.png",27,1,"BiasOldInstruction",6,1171,"Include"
"LBA2019_e1","LBA2019_e1_102","097.png",28,0,"BiasOldInstruction",3,1664,"Include"
"LBA2019_e1","LBA2019_e1_102","102.png",29,0,"BiasOldInstruction",6,1617,"Include"
"LBA2019_e1","LBA2019_e1_102","109.png",30,0,"BiasOldInstruction",7,625,"Include"
"LBA2019_e1","LBA2019_e1_102","118.png",31,0,"BiasOldInstruction",7,632,"Include"
"LBA2019_e1","LBA2019_e1_102","138.png",32,0,"BiasOldInstruction",6,734,"Include"
"LBA2019_e1","LBA2019_e1_102","093.png",33,1,"BiasOldInstruction",3,1601,"Include"
"LBA2019_e1","LBA2019_e1_102","096.png",34,1,"BiasOldInstruction",5,2734,"Include"
"LBA2019_e1","LBA2019_e1_102","141.png",35,0,"BiasOldInstruction",2,1109,"Include"
"LBA2019_e1","LBA2019_e1_102","142.png",36,0,"BiasOldInstruction",6,843,"Include"
"LBA2019_e1","LBA2019_e1_102","103.png",37,1,"BiasOldInstruction",7,1492,"Include"
"LBA2019_e1","LBA2019_e1_102","147.png",38,0,"BiasOldInstruction",6,1257,"Include"
"LBA2019_e1","LBA2019_e1_102","104.png",39,1,"BiasOldInstruction",6,718,"Include"
"LBA2019_e1","LBA2019_e1_102","152.png",40,0,"BiasOldInstruction",5,1156,"Include"
"LBA2019_e1","LBA2019_e1_102","154.png",41,0,"BiasOldInstruction",4,3898,"Include"
"LBA2019_e1","LBA2019_e1_102","110.png",42,1,"BiasOldInstruction",6,1101,"Include"
"LBA2019_e1","LBA2019_e1_102","159.png",43,0,"BiasOldInstruction",3,1398,"Include"
"LBA2019_e1","LBA2019_e1_102","163.png",44,0,"BiasOldInstruction",5,1953,"Include"
"LBA2019_e1","LBA2019_e1_102","180.png",45,0,"BiasOldInstruction",7,804,"Include"
"LBA2019_e1","LBA2019_e1_102","182.png",46,0,"BiasOldInstruction",6,656,"Include"
"LBA2019_e1","LBA2019_e1_102","185.png",47,0,"BiasOldInstruction",5,2140,"Include"
"LBA2019_e1","LBA2019_e1_102","111.png",48,1,"BiasOldInstruction",3,1406,"Include"
"LBA2019_e1","LBA2019_e1_102","114.png",49,1,"BiasOldInstruction",5,750,"Include"
"LBA2019_e1","LBA2019_e1_102","187.png",50,0,"BiasOldInstruction",3,1070,"Include"
"LBA2019_e1","LBA2019_e1_102","189.png",51,0,"BiasOldInstruction",6,1281,"Include"
"LBA2019_e1","LBA2019_e1_102","119.png",52,1,"BiasOldInstruction",3,1015,"Include"
"LBA2019_e1","LBA2019_e1_102","128.png",53,1,"BiasOldInstruction",7,1734,"Include"
"LBA2019_e1","LBA2019_e1_102","197.png",54,0,"BiasOldInstruction",3,2671,"Include"
"LBA2019_e1","LBA2019_e1_102","200.png",55,0,"BiasOldInstruction",7,796,"Include"
"LBA2019_e1","LBA2019_e1_102","134.png",56,1,"BiasOldInstruction",3,1328,"Include"
"LBA2019_e1","LBA2019_e1_102","208.png",57,0,"BiasOldInstruction",6,1367,"Include"
"LBA2019_e1","LBA2019_e1_102","140.png",58,1,"BiasOldInstruction",5,929,"Include"
"LBA2019_e1","LBA2019_e1_102","222.png",59,0,"BiasOldInstruction",6,2242,"Include"
"LBA2019_e1","LBA2019_e1_102","224.png",60,0,"BiasOldInstruction",3,1679,"Include"
"LBA2019_e1","LBA2019_e1_102","144.png",61,1,"BiasOldInstruction",6,1664,"Include"
"LBA2019_e1","LBA2019_e1_102","225.png",62,0,"BiasOldInstruction",5,960,"Include"
"LBA2019_e1","LBA2019_e1_102","148.png",63,1,"BiasOldInstruction",6,1609,"Include"
"LBA2019_e1","LBA2019_e1_102","240.png",64,0,"BiasOldInstruction",5,1007,"Include"
"LBA2019_e1","LBA2019_e1_102","257.png",65,0,"BiasOldInstruction",1,1125,"Include"
"LBA2019_e1","LBA2019_e1_102","157.png",66,1,"BiasOldInstruction",4,1070,"Include"
"LBA2019_e1","LBA2019_e1_102","161.png",67,1,"BiasOldInstruction",1,1390,"Include"
"LBA2019_e1","LBA2019_e1_102","262.png",68,0,"BiasOldInstruction",1,1179,"Include"
"LBA2019_e1","LBA2019_e1_102","166.png",69,1,"BiasOldInstruction",6,968,"Include"
"LBA2019_e1","LBA2019_e1_102","167.png",70,1,"BiasOldInstruction",1,1101,"Include"
"LBA2019_e1","LBA2019_e1_102","263.png",71,0,"BiasOldInstruction",1,1179,"Include"
"LBA2019_e1","LBA2019_e1_102","269.png",72,0,"BiasOldInstruction",6,1960,"Include"
"LBA2019_e1","LBA2019_e1_102","270.png",73,0,"BiasOldInstruction",1,937,"Include"
"LBA2019_e1","LBA2019_e1_102","172.png",74,1,"BiasOldInstruction",5,734,"Include"
"LBA2019_e1","LBA2019_e1_102","184.png",75,1,"BiasOldInstruction",6,718,"Include"
"LBA2019_e1","LBA2019_e1_102","271.png",76,0,"BiasOldInstruction",1,1703,"Include"
"LBA2019_e1","LBA2019_e1_102","272.png",77,0,"BiasOldInstruction",1,2265,"Include"
"LBA2019_e1","LBA2019_e1_102","275.png",78,0,"BiasOldInstruction",7,765,"Include"
"LBA2019_e1","LBA2019_e1_102","276.png",79,0,"BiasOldInstruction",2,1531,"Include"
"LBA2019_e1","LBA2019_e1_102","277.png",80,0,"BiasOldInstruction",6,929,"Include"
"LBA2019_e1","LBA2019_e1_102","278.png",81,0,"BiasOldInstruction",7,1281,"Include"
"LBA2019_e1","LBA2019_e1_102","190.png",82,1,"BiasOldInstruction",7,929,"Include"
"LBA2019_e1","LBA2019_e1_102","192.png",83,1,"BiasOldInstruction",6,1382,"Include"
"LBA2019_e1","LBA2019_e1_102","196.png",84,1,"BiasOldInstruction",7,1562,"Include"
"LBA2019_e1","LBA2019_e1_102","199.png",85,1,"BiasOldInstruction",7,3640,"Include"
"LBA2019_e1","LBA2019_e1_102","201.png",86,1,"BiasOldInstruction",7,968,"Include"
"LBA2019_e1","LBA2019_e1_102","205.png",87,1,"BiasOldInstruction",3,2304,"Include"
"LBA2019_e1","LBA2019_e1_102","209.png",88,1,"BiasOldInstruction",7,828,"Include"
"LBA2019_e1","LBA2019_e1_102","211.png",89,1,"BiasOldInstruction",6,2234,"Include"
"LBA2019_e1","LBA2019_e1_102","212.png",90,1,"BiasOldInstruction",5,718,"Include"
"LBA2019_e1","LBA2019_e1_102","219.png",91,1,"BiasOldInstruction",6,945,"Include"
"LBA2019_e1","LBA2019_e1_102","221.png",92,1,"BiasOldInstruction",7,1140,"Include"
"LBA2019_e1","LBA2019_e1_102","223.png",93,1,"BiasOldInstruction",6,2406,"Include"
"LBA2019_e1","LBA2019_e1_102","227.png",94,1,"BiasOldInstruction",6,718,"Include"
"LBA2019_e1","LBA2019_e1_102","232.png",95,1,"BiasOldInstruction",1,1914,"Include"
"LBA2019_e1","LBA2019_e1_102","235.png",96,1,"BiasOldInstruction",6,906,"Include"
"LBA2019_e1","LBA2019_e1_102","247.png",97,1,"BiasOldInstruction",7,2507,"Include"
"LBA2019_e1","LBA2019_e1_102","251.png",98,1,"BiasOldInstruction",1,1109,"Include"
"LBA2019_e1","LBA2019_e1_102","254.png",99,1,"BiasOldInstruction",1,1210,"Include"
"LBA2019_e1","LBA2019_e1_102","267.png",100,1,"BiasOldInstruction",1,1101,"Include"
"LBA2019_e1","LBA2019_e1_102","001.png",1,1,"NoBiasInstruction",7,3335,"Include"
"LBA2019_e1","LBA2019_e1_102","003.png",2,1,"NoBiasInstruction",1,1843,"Include"
"LBA2019_e1","LBA2019_e1_102","002.png",3,0,"NoBiasInstruction",5,2890,"Include"
"LBA2019_e1","LBA2019_e1_102","010.png",4,1,"NoBiasInstruction",5,1460,"Include"
"LBA2019_e1","LBA2019_e1_102","006.png",5,0,"NoBiasInstruction",4,2281,"Include"
"LBA2019_e1","LBA2019_e1_102","014.png",6,0,"NoBiasInstruction",1,1468,"Include"
"LBA2019_e1","LBA2019_e1_102","018.png",7,0,"NoBiasInstruction",5,2132,"Include"
"LBA2019_e1","LBA2019_e1_102","030.png",8,0,"NoBiasInstruction",1,1539,"Include"
"LBA2019_e1","LBA2019_e1_102","011.png",9,1,"NoBiasInstruction",3,2226,"Include"
"LBA2019_e1","LBA2019_e1_102","032.png",10,0,"NoBiasInstruction",5,1679,"Include"
"LBA2019_e1","LBA2019_e1_102","034.png",11,0,"NoBiasInstruction",6,1546,"Include"
"LBA2019_e1","LBA2019_e1_102","024.png",12,1,"NoBiasInstruction",1,1320,"Include"
"LBA2019_e1","LBA2019_e1_102","025.png",13,1,"NoBiasInstruction",3,2054,"Include"
"LBA2019_e1","LBA2019_e1_102","045.png",14,1,"NoBiasInstruction",4,3531,"Include"
"LBA2019_e1","LBA2019_e1_102","046.png",15,1,"NoBiasInstruction",3,1609,"Include"
"LBA2019_e1","LBA2019_e1_102","052.png",16,1,"NoBiasInstruction",7,1312,"Include"
"LBA2019_e1","LBA2019_e1_102","036.png",17,0,"NoBiasInstruction",1,1078,"Include"
"LBA2019_e1","LBA2019_e1_102","053.png",18,1,"NoBiasInstruction",2,1890,"Include"
"LBA2019_e1","LBA2019_e1_102","055.png",19,1,"NoBiasInstruction",3,2351,"Include"
"LBA2019_e1","LBA2019_e1_102","037.png",20,0,"NoBiasInstruction",1,1640,"Include"
"LBA2019_e1","LBA2019_e1_102","043.png",21,0,"NoBiasInstruction",2,1531,"Include"
"LBA2019_e1","LBA2019_e1_102","057.png",22,1,"NoBiasInstruction",5,1703,"Include"
"LBA2019_e1","LBA2019_e1_102","058.png",23,1,"NoBiasInstruction",6,945,"Include"
"LBA2019_e1","LBA2019_e1_102","044.png",24,0,"NoBiasInstruction",2,1156,"Include"
"LBA2019_e1","LBA2019_e1_102","061.png",25,1,"NoBiasInstruction",7,1492,"Include"
"LBA2019_e1","LBA2019_e1_102","048.png",26,0,"NoBiasInstruction",5,1921,"Include"
"LBA2019_e1","LBA2019_e1_102","051.png",27,0,"NoBiasInstruction",5,1328,"Include"
"LBA2019_e1","LBA2019_e1_102","066.png",28,0,"NoBiasInstruction",2,1750,"Include"
"LBA2019_e1","LBA2019_e1_102","062.png",29,1,"NoBiasInstruction",6,1250,"Include"
"LBA2019_e1","LBA2019_e1_102","071.png",30,0,"NoBiasInstruction",5,2203,"Include"
"LBA2019_e1","LBA2019_e1_102","072.png",31,0,"NoBiasInstruction",4,1562,"Include"
"LBA2019_e1","LBA2019_e1_102","074.png",32,0,"NoBiasInstruction",1,1601,"Include"
"LBA2019_e1","LBA2019_e1_102","077.png",33,0,"NoBiasInstruction",1,1390,"Include"
"LBA2019_e1","LBA2019_e1_102","063.png",34,1,"NoBiasInstruction",7,1593,"Include"
"LBA2019_e1","LBA2019_e1_102","073.png",35,1,"NoBiasInstruction",3,1968,"Include"
"LBA2019_e1","LBA2019_e1_102","100.png",36,0,"NoBiasInstruction",5,1328,"Include"
"LBA2019_e1","LBA2019_e1_102","079.png",37,1,"NoBiasInstruction",2,1351,"Include"
"LBA2019_e1","LBA2019_e1_102","083.png",38,1,"NoBiasInstruction",3,2085,"Include"
"LBA2019_e1","LBA2019_e1_102","088.png",39,1,"NoBiasInstruction",4,1734,"Include"
"LBA2019_e1","LBA2019_e1_102","107.png",40,0,"NoBiasInstruction",5,1679,"Include"
"LBA2019_e1","LBA2019_e1_102","108.png",41,0,"NoBiasInstruction",1,1320,"Include"
"LBA2019_e1","LBA2019_e1_102","089.png",42,1,"NoBiasInstruction",6,2210,"Include"
"LBA2019_e1","LBA2019_e1_102","094.png",43,1,"NoBiasInstruction",6,1046,"Include"
"LBA2019_e1","LBA2019_e1_102","098.png",44,1,"NoBiasInstruction",4,2382,"Include"
"LBA2019_e1","LBA2019_e1_102","112.png",45,0,"NoBiasInstruction",5,1398,"Include"
"LBA2019_e1","LBA2019_e1_102","117.png",46,0,"NoBiasInstruction",7,2296,"Include"
"LBA2019_e1","LBA2019_e1_102","120.png",47,0,"NoBiasInstruction",6,1226,"Include"
"LBA2019_e1","LBA2019_e1_102","106.png",48,1,"NoBiasInstruction",7,1562,"Include"
"LBA2019_e1","LBA2019_e1_102","121.png",49,0,"NoBiasInstruction",5,1890,"Include"
"LBA2019_e1","LBA2019_e1_102","122.png",50,0,"NoBiasInstruction",3,1929,"Include"
"LBA2019_e1","LBA2019_e1_102","124.png",51,0,"NoBiasInstruction",4,3648,"Include"
"LBA2019_e1","LBA2019_e1_102","113.png",52,1,"NoBiasInstruction",4,2953,"Include"
"LBA2019_e1","LBA2019_e1_102","125.png",53,0,"NoBiasInstruction",2,2132,"Include"
"LBA2019_e1","LBA2019_e1_102","132.png",54,0,"NoBiasInstruction",3,1960,"Include"
"LBA2019_e1","LBA2019_e1_102","135.png",55,0,"NoBiasInstruction",3,1335,"Include"
"LBA2019_e1","LBA2019_e1_102","150.png",56,0,"NoBiasInstruction",5,1265,"Include"
"LBA2019_e1","LBA2019_e1_102","115.png",57,1,"NoBiasInstruction",7,1281,"Include"
"LBA2019_e1","LBA2019_e1_102","151.png",58,0,"NoBiasInstruction",2,1289,"Include"
"LBA2019_e1","LBA2019_e1_102","160.png",59,0,"NoBiasInstruction",1,1187,"Include"
"LBA2019_e1","LBA2019_e1_102","162.png",60,0,"NoBiasInstruction",2,2460,"Include"
"LBA2019_e1","LBA2019_e1_102","165.png",61,0,"NoBiasInstruction",6,875,"Include"
"LBA2019_e1","LBA2019_e1_102","123.png",62,1,"NoBiasInstruction",7,820,"Include"
"LBA2019_e1","LBA2019_e1_102","127.png",63,1,"NoBiasInstruction",3,1632,"Include"
"LBA2019_e1","LBA2019_e1_102","171.png",64,0,"NoBiasInstruction",7,1117,"Include"
"LBA2019_e1","LBA2019_e1_102","129.png",65,1,"NoBiasInstruction",5,1492,"Include"
"LBA2019_e1","LBA2019_e1_102","139.png",66,1,"NoBiasInstruction",6,1773,"Include"
"LBA2019_e1","LBA2019_e1_102","177.png",67,0,"NoBiasInstruction",7,2632,"Include"
"LBA2019_e1","LBA2019_e1_102","179.png",68,0,"NoBiasInstruction",6,1531,"Include"
"LBA2019_e1","LBA2019_e1_102","149.png",69,1,"NoBiasInstruction",2,2054,"Include"
"LBA2019_e1","LBA2019_e1_102","153.png",70,1,"NoBiasInstruction",5,1000,"Include"
"LBA2019_e1","LBA2019_e1_102","188.png",71,0,"NoBiasInstruction",2,2132,"Include"
"LBA2019_e1","LBA2019_e1_102","155.png",72,1,"NoBiasInstruction",6,1039,"Include"
"LBA2019_e1","LBA2019_e1_102","164.png",73,1,"NoBiasInstruction",6,2085,"Include"
"LBA2019_e1","LBA2019_e1_102","194.png",74,0,"NoBiasInstruction",6,1492,"Include"
"LBA2019_e1","LBA2019_e1_102","168.png",75,1,"NoBiasInstruction",2,1171,"Include"
"LBA2019_e1","LBA2019_e1_102","173.png",76,1,"NoBiasInstruction",5,1070,"Include"
"LBA2019_e1","LBA2019_e1_102","191.png",77,1,"NoBiasInstruction",7,1960,"Include"
"LBA2019_e1","LBA2019_e1_102","195.png",78,1,"NoBiasInstruction",7,1226,"Include"
"LBA2019_e1","LBA2019_e1_102","202.png",79,0,"NoBiasInstruction",5,1539,"Include"
"LBA2019_e1","LBA2019_e1_102","203.png",80,0,"NoBiasInstruction",5,1148,"Include"
"LBA2019_e1","LBA2019_e1_102","207.png",81,1,"NoBiasInstruction",4,3078,"Include"
"LBA2019_e1","LBA2019_e1_102","217.png",82,0,"NoBiasInstruction",1,1960,"Include"
"LBA2019_e1","LBA2019_e1_102","218.png",83,0,"NoBiasInstruction",4,2335,"Include"
"LBA2019_e1","LBA2019_e1_102","213.png",84,1,"NoBiasInstruction",2,1632,"Include"
"LBA2019_e1","LBA2019_e1_102","229.png",85,0,"NoBiasInstruction",2,1226,"Include"
"LBA2019_e1","LBA2019_e1_102","216.png",86,1,"NoBiasInstruction",5,4585,"Include"
"LBA2019_e1","LBA2019_e1_102","231.png",87,0,"NoBiasInstruction",2,1218,"Include"
"LBA2019_e1","LBA2019_e1_102","220.png",88,1,"NoBiasInstruction",6,875,"Include"
"LBA2019_e1","LBA2019_e1_102","226.png",89,1,"NoBiasInstruction",1,1000,"Include"
"LBA2019_e1","LBA2019_e1_102","228.png",90,1,"NoBiasInstruction",1,1070,"Include"
"LBA2019_e1","LBA2019_e1_102","230.png",91,1,"NoBiasInstruction",5,1687,"Include"
"LBA2019_e1","LBA2019_e1_102","237.png",92,0,"NoBiasInstruction",1,1148,"Include"
"LBA2019_e1","LBA2019_e1_102","252.png",93,0,"NoBiasInstruction",3,2039,"Include"
"LBA2019_e1","LBA2019_e1_102","236.png",94,1,"NoBiasInstruction",6,2828,"Include"
"LBA2019_e1","LBA2019_e1_102","243.png",95,1,"NoBiasInstruction",6,1039,"Include"
"LBA2019_e1","LBA2019_e1_102","245.png",96,1,"NoBiasInstruction",5,820,"Include"
"LBA2019_e1","LBA2019_e1_102","246.png",97,1,"NoBiasInstruction",6,1242,"Include"
"LBA2019_e1","LBA2019_e1_102","253.png",98,1,"NoBiasInstruction",7,1226,"Include"
"LBA2019_e1","LBA2019_e1_102","255.png",99,0,"NoBiasInstruction",6,1367,"Include"
"LBA2019_e1","LBA2019_e1_102","256.png",100,0,"NoBiasInstruction",1,1039,"Include"
"LBA2019_e1","LBA2019_e1_104","007.png",1,0,"BiasNewInstruction",2,1648,"Include"
"LBA2019_e1","LBA2019_e1_104","006.png",2,1,"BiasNewInstruction",2,1578,"Include"
"LBA2019_e1","LBA2019_e1_104","033.png",3,1,"BiasNewInstruction",5,1109,"Include"
"LBA2019_e1","LBA2019_e1_104","035.png",4,1,"BiasNewInstruction",7,800,"Include"
"LBA2019_e1","LBA2019_e1_104","009.png",5,0,"BiasNewInstruction",2,1222,"Include"
"LBA2019_e1","LBA2019_e1_104","036.png",6,1,"BiasNewInstruction",2,1039,"Include"
"LBA2019_e1","LBA2019_e1_104","047.png",7,1,"BiasNewInstruction",6,1386,"Include"
"LBA2019_e1","LBA2019_e1_104","056.png",8,1,"BiasNewInstruction",2,1121,"Include"
"LBA2019_e1","LBA2019_e1_104","010.png",9,0,"BiasNewInstruction",5,1773,"Include"
"LBA2019_e1","LBA2019_e1_104","057.png",10,1,"BiasNewInstruction",1,1250,"Include"
"LBA2019_e1","LBA2019_e1_104","062.png",11,1,"BiasNewInstruction",6,1210,"Include"
"LBA2019_e1","LBA2019_e1_104","011.png",12,0,"BiasNewInstruction",2,1023,"Include"
"LBA2019_e1","LBA2019_e1_104","063.png",13,1,"BiasNewInstruction",2,910,"Include"
"LBA2019_e1","LBA2019_e1_104","067.png",14,1,"BiasNewInstruction",2,945,"Include"
"LBA2019_e1","LBA2019_e1_104","025.png",15,0,"BiasNewInstruction",5,1074,"Include"
"LBA2019_e1","LBA2019_e1_104","028.png",16,0,"BiasNewInstruction",1,1261,"Include"
"LBA2019_e1","LBA2019_e1_104","032.png",17,0,"BiasNewInstruction",3,1500,"Include"
"LBA2019_e1","LBA2019_e1_104","074.png",18,1,"BiasNewInstruction",6,910,"Include"
"LBA2019_e1","LBA2019_e1_104","091.png",19,1,"BiasNewInstruction",6,1285,"Include"
"LBA2019_e1","LBA2019_e1_104","099.png",20,1,"BiasNewInstruction",6,1457,"Include"
"LBA2019_e1","LBA2019_e1_104","102.png",21,1,"BiasNewInstruction",3,898,"Include"
"LBA2019_e1","LBA2019_e1_104","109.png",22,1,"BiasNewInstruction",2,2125,"Include"
"LBA2019_e1","LBA2019_e1_104","037.png",23,0,"BiasNewInstruction",3,1117,"Include"
"LBA2019_e1","LBA2019_e1_104","041.png",24,0,"BiasNewInstruction",6,910,"Include"
"LBA2019_e1","LBA2019_e1_104","043.png",25,0,"BiasNewInstruction",2,1187,"Include"
"LBA2019_e1","LBA2019_e1_104","046.png",26,0,"BiasNewInstruction",6,1394,"Include"
"LBA2019_e1","LBA2019_e1_104","049.png",27,0,"BiasNewInstruction",6,1187,"Include"
"LBA2019_e1","LBA2019_e1_104","117.png",28,1,"BiasNewInstruction",6,1578,"Include"
"LBA2019_e1","LBA2019_e1_104","120.png",29,1,"BiasNewInstruction",3,898,"Include"
"LBA2019_e1","LBA2019_e1_104","129.png",30,1,"BiasNewInstruction",6,1035,"Include"
"LBA2019_e1","LBA2019_e1_104","050.png",31,0,"BiasNewInstruction",6,1078,"Include"
"LBA2019_e1","LBA2019_e1_104","131.png",32,1,"BiasNewInstruction",5,1738,"Include"
"LBA2019_e1","LBA2019_e1_104","052.png",33,0,"BiasNewInstruction",3,2445,"Include"
"LBA2019_e1","LBA2019_e1_104","136.png",34,1,"BiasNewInstruction",2,1175,"Include"
"LBA2019_e1","LBA2019_e1_104","142.png",35,1,"BiasNewInstruction",6,1000,"Include"
"LBA2019_e1","LBA2019_e1_104","065.png",36,0,"BiasNewInstruction",2,871,"Include"
"LBA2019_e1","LBA2019_e1_104","158.png",37,1,"BiasNewInstruction",3,929,"Include"
"LBA2019_e1","LBA2019_e1_104","068.png",38,0,"BiasNewInstruction",2,906,"Include"
"LBA2019_e1","LBA2019_e1_104","069.png",39,0,"BiasNewInstruction",6,832,"Include"
"LBA2019_e1","LBA2019_e1_104","168.png",40,1,"BiasNewInstruction",6,1597,"Include"
"LBA2019_e1","LBA2019_e1_104","071.png",41,0,"BiasNewInstruction",6,1070,"Include"
"LBA2019_e1","LBA2019_e1_104","173.png",42,1,"BiasNewInstruction",6,1105,"Include"
"LBA2019_e1","LBA2019_e1_104","073.png",43,0,"BiasNewInstruction",2,1898,"Include"
"LBA2019_e1","LBA2019_e1_104","184.png",44,1,"BiasNewInstruction",2,1984,"Include"
"LBA2019_e1","LBA2019_e1_104","083.png",45,0,"BiasNewInstruction",6,968,"Include"
"LBA2019_e1","LBA2019_e1_104","185.png",46,1,"BiasNewInstruction",6,1070,"Include"
"LBA2019_e1","LBA2019_e1_104","189.png",47,1,"BiasNewInstruction",6,898,"Include"
"LBA2019_e1","LBA2019_e1_104","192.png",48,1,"BiasNewInstruction",2,1773,"Include"
"LBA2019_e1","LBA2019_e1_104","085.png",49,0,"BiasNewInstruction",2,1820,"Include"
"LBA2019_e1","LBA2019_e1_104","206.png",50,1,"BiasNewInstruction",2,1527,"Include"
"LBA2019_e1","LBA2019_e1_104","209.png",51,1,"BiasNewInstruction",3,1929,"Include"
"LBA2019_e1","LBA2019_e1_104","087.png",52,0,"BiasNewInstruction",6,1500,"Include"
"LBA2019_e1","LBA2019_e1_104","232.png",53,1,"BiasNewInstruction",2,1210,"Include"
"LBA2019_e1","LBA2019_e1_104","233.png",54,1,"BiasNewInstruction",3,1140,"Include"
"LBA2019_e1","LBA2019_e1_104","234.png",55,1,"BiasNewInstruction",2,1277,"Include"
"LBA2019_e1","LBA2019_e1_104","237.png",56,1,"BiasNewInstruction",7,2949,"Include"
"LBA2019_e1","LBA2019_e1_104","093.png",57,0,"BiasNewInstruction",2,1828,"Include"
"LBA2019_e1","LBA2019_e1_104","100.png",58,0,"BiasNewInstruction",3,1187,"Include"
"LBA2019_e1","LBA2019_e1_104","104.png",59,0,"BiasNewInstruction",3,1742,"Include"
"LBA2019_e1","LBA2019_e1_104","106.png",60,0,"BiasNewInstruction",6,1261,"Include"
"LBA2019_e1","LBA2019_e1_104","113.png",61,0,"BiasNewInstruction",2,2062,"Include"
"LBA2019_e1","LBA2019_e1_104","116.png",62,0,"BiasNewInstruction",2,2703,"Include"
"LBA2019_e1","LBA2019_e1_104","238.png",63,1,"BiasNewInstruction",2,1667,"Include"
"LBA2019_e1","LBA2019_e1_104","121.png",64,0,"BiasNewInstruction",6,2242,"Include"
"LBA2019_e1","LBA2019_e1_104","251.png",65,1,"BiasNewInstruction",6,1808,"Include"
"LBA2019_e1","LBA2019_e1_104","252.png",66,1,"BiasNewInstruction",2,1875,"Include"
"LBA2019_e1","LBA2019_e1_104","259.png",67,1,"BiasNewInstruction",3,1855,"Include"
"LBA2019_e1","LBA2019_e1_104","128.png",68,0,"BiasNewInstruction",6,910,"Include"
"LBA2019_e1","LBA2019_e1_104","137.png",69,0,"BiasNewInstruction",6,1187,"Include"
"LBA2019_e1","LBA2019_e1_104","141.png",70,0,"BiasNewInstruction",3,1761,"Include"
"LBA2019_e1","LBA2019_e1_104","265.png",71,1,"BiasNewInstruction",2,1281,"Include"
"LBA2019_e1","LBA2019_e1_104","272.png",72,1,"BiasNewInstruction",6,1105,"Include"
"LBA2019_e1","LBA2019_e1_104","276.png",73,1,"BiasNewInstruction",6,1121,"Include"
"LBA2019_e1","LBA2019_e1_104","277.png",74,1,"BiasNewInstruction",2,964,"Include"
"LBA2019_e1","LBA2019_e1_104","150.png",75,0,"BiasNewInstruction",3,1039,"Include"
"LBA2019_e1","LBA2019_e1_104","279.png",76,1,"BiasNewInstruction",2,1039,"Include"
"LBA2019_e1","LBA2019_e1_104","163.png",77,0,"BiasNewInstruction",3,1250,"Include"
"LBA2019_e1","LBA2019_e1_104","169.png",78,0,"BiasNewInstruction",6,800,"Include"
"LBA2019_e1","LBA2019_e1_104","174.png",79,0,"BiasNewInstruction",6,906,"Include"
"LBA2019_e1","LBA2019_e1_104","280.png",80,1,"BiasNewInstruction",6,1542,"Include"
"LBA2019_e1","LBA2019_e1_104","283.png",81,1,"BiasNewInstruction",6,1000,"Include"
"LBA2019_e1","LBA2019_e1_104","175.png",82,0,"BiasNewInstruction",6,1636,"Include"
"LBA2019_e1","LBA2019_e1_104","287.png",83,1,"BiasNewInstruction",5,964,"Include"
"LBA2019_e1","LBA2019_e1_104","289.png",84,1,"BiasNewInstruction",6,1117,"Include"
"LBA2019_e1","LBA2019_e1_104","180.png",85,0,"BiasNewInstruction",3,3792,"Include"
"LBA2019_e1","LBA2019_e1_104","208.png",86,0,"BiasNewInstruction",2,2417,"Include"
"LBA2019_e1","LBA2019_e1_104","213.png",87,0,"BiasNewInstruction",6,1117,"Include"
"LBA2019_e1","LBA2019_e1_104","216.png",88,0,"BiasNewInstruction",6,1328,"Include"
"LBA2019_e1","LBA2019_e1_104","292.png",89,1,"BiasNewInstruction",6,964,"Include"
"LBA2019_e1","LBA2019_e1_104","293.png",90,1,"BiasNewInstruction",6,1039,"Include"
"LBA2019_e1","LBA2019_e1_104","217.png",91,0,"BiasNewInstruction",2,1390,"Include"
"LBA2019_e1","LBA2019_e1_104","294.png",92,1,"BiasNewInstruction",6,789,"Include"
"LBA2019_e1","LBA2019_e1_104","218.png",93,0,"BiasNewInstruction",2,1214,"Include"
"LBA2019_e1","LBA2019_e1_104","219.png",94,0,"BiasNewInstruction",6,2097,"Include"
"LBA2019_e1","LBA2019_e1_104","221.png",95,0,"BiasNewInstruction",6,984,"Include"
"LBA2019_e1","LBA2019_e1_104","253.png",96,0,"BiasNewInstruction",2,839,"Include"
"LBA2019_e1","LBA2019_e1_104","258.png",97,0,"BiasNewInstruction",6,1609,"Include"
"LBA2019_e1","LBA2019_e1_104","261.png",98,0,"BiasNewInstruction",2,2972,"Include"
"LBA2019_e1","LBA2019_e1_104","262.png",99,0,"BiasNewInstruction",2,7164,"Include"
"LBA2019_e1","LBA2019_e1_104","278.png",100,0,"BiasNewInstruction",2,1070,"Include"
"LBA2019_e1","LBA2019_e1_104","003.png",1,1,"BiasOldInstruction",2,1238,"Include"
"LBA2019_e1","LBA2019_e1_104","001.png",2,0,"BiasOldInstruction",2,1257,"Include"
"LBA2019_e1","LBA2019_e1_104","005.png",3,0,"BiasOldInstruction",2,1253,"Include"
"LBA2019_e1","LBA2019_e1_104","022.png",4,0,"BiasOldInstruction",6,941,"Include"
"LBA2019_e1","LBA2019_e1_104","021.png",5,1,"BiasOldInstruction",6,1316,"Include"
"LBA2019_e1","LBA2019_e1_104","030.png",6,1,"BiasOldInstruction",2,945,"Include"
"LBA2019_e1","LBA2019_e1_104","027.png",7,0,"BiasOldInstruction",2,1007,"Include"
"LBA2019_e1","LBA2019_e1_104","031.png",8,0,"BiasOldInstruction",6,1218,"Include"
"LBA2019_e1","LBA2019_e1_104","034.png",9,0,"BiasOldInstruction",3,1781,"Include"
"LBA2019_e1","LBA2019_e1_104","040.png",10,0,"BiasOldInstruction",4,1792,"Include"
"LBA2019_e1","LBA2019_e1_104","053.png",11,0,"BiasOldInstruction",4,1332,"Include"
"LBA2019_e1","LBA2019_e1_104","042.png",12,1,"BiasOldInstruction",7,1207,"Include"
"LBA2019_e1","LBA2019_e1_104","044.png",13,1,"BiasOldInstruction",6,2035,"Include"
"LBA2019_e1","LBA2019_e1_104","048.png",14,1,"BiasOldInstruction",3,964,"Include"
"LBA2019_e1","LBA2019_e1_104","055.png",15,1,"BiasOldInstruction",2,1316,"Include"
"LBA2019_e1","LBA2019_e1_104","060.png",16,1,"BiasOldInstruction",6,1246,"Include"
"LBA2019_e1","LBA2019_e1_104","054.png",17,0,"BiasOldInstruction",2,937,"Include"
"LBA2019_e1","LBA2019_e1_104","059.png",18,0,"BiasOldInstruction",3,1503,"Include"
"LBA2019_e1","LBA2019_e1_104","066.png",19,0,"BiasOldInstruction",5,1820,"Include"
"LBA2019_e1","LBA2019_e1_104","061.png",20,1,"BiasOldInstruction",5,1187,"Include"
"LBA2019_e1","LBA2019_e1_104","070.png",21,1,"BiasOldInstruction",6,1015,"Include"
"LBA2019_e1","LBA2019_e1_104","076.png",22,0,"BiasOldInstruction",6,1355,"Include"
"LBA2019_e1","LBA2019_e1_104","078.png",23,1,"BiasOldInstruction",6,1140,"Include"
"LBA2019_e1","LBA2019_e1_104","077.png",24,0,"BiasOldInstruction",3,1328,"Include"
"LBA2019_e1","LBA2019_e1_104","086.png",25,0,"BiasOldInstruction",2,1332,"Include"
"LBA2019_e1","LBA2019_e1_104","098.png",26,0,"BiasOldInstruction",2,1042,"Include"
"LBA2019_e1","LBA2019_e1_104","101.png",27,0,"BiasOldInstruction",6,1398,"Include"
"LBA2019_e1","LBA2019_e1_104","110.png",28,0,"BiasOldInstruction",6,1117,"Include"
"LBA2019_e1","LBA2019_e1_104","118.png",29,0,"BiasOldInstruction",6,976,"Include"
"LBA2019_e1","LBA2019_e1_104","079.png",30,1,"BiasOldInstruction",3,1531,"Include"
"LBA2019_e1","LBA2019_e1_104","122.png",31,0,"BiasOldInstruction",6,1597,"Include"
"LBA2019_e1","LBA2019_e1_104","123.png",32,0,"BiasOldInstruction",6,1398,"Include"
"LBA2019_e1","LBA2019_e1_104","097.png",33,1,"BiasOldInstruction",3,1000,"Include"
"LBA2019_e1","LBA2019_e1_104","124.png",34,0,"BiasOldInstruction",3,1359,"Include"
"LBA2019_e1","LBA2019_e1_104","105.png",35,1,"BiasOldInstruction",6,804,"Include"
"LBA2019_e1","LBA2019_e1_104","126.png",36,0,"BiasOldInstruction",2,941,"Include"
"LBA2019_e1","LBA2019_e1_104","107.png",37,1,"BiasOldInstruction",3,1246,"Include"
"LBA2019_e1","LBA2019_e1_104","135.png",38,0,"BiasOldInstruction",2,976,"Include"
"LBA2019_e1","LBA2019_e1_104","114.png",39,1,"BiasOldInstruction",6,871,"Include"
"LBA2019_e1","LBA2019_e1_104","115.png",40,1,"BiasOldInstruction",6,875,"Include"
"LBA2019_e1","LBA2019_e1_104","125.png",41,1,"BiasOldInstruction",5,1261,"Include"
"LBA2019_e1","LBA2019_e1_104","130.png",42,1,"BiasOldInstruction",2,1628,"Include"
"LBA2019_e1","LBA2019_e1_104","132.png",43,1,"BiasOldInstruction",6,1050,"Include"
"LBA2019_e1","LBA2019_e1_104","133.png",44,1,"BiasOldInstruction",2,1050,"Include"
"LBA2019_e1","LBA2019_e1_104","138.png",45,0,"BiasOldInstruction",6,1574,"Include"
"LBA2019_e1","LBA2019_e1_104","147.png",46,1,"BiasOldInstruction",6,859,"Include"
"LBA2019_e1","LBA2019_e1_104","155.png",47,0,"BiasOldInstruction",3,933,"Include"
"LBA2019_e1","LBA2019_e1_104","159.png",48,0,"BiasOldInstruction",3,1609,"Include"
"LBA2019_e1","LBA2019_e1_104","160.png",49,0,"BiasOldInstruction",2,910,"Include"
"LBA2019_e1","LBA2019_e1_104","149.png",50,1,"BiasOldInstruction",2,589,"Include"
"LBA2019_e1","LBA2019_e1_104","161.png",51,0,"BiasOldInstruction",2,1046,"Include"
"LBA2019_e1","LBA2019_e1_104","166.png",52,0,"BiasOldInstruction",6,871,"Include"
"LBA2019_e1","LBA2019_e1_104","176.png",53,0,"BiasOldInstruction",6,937,"Include"
"LBA2019_e1","LBA2019_e1_104","178.png",54,0,"BiasOldInstruction",2,1160,"Include"
"LBA2019_e1","LBA2019_e1_104","182.png",55,0,"BiasOldInstruction",3,1933,"Include"
"LBA2019_e1","LBA2019_e1_104","186.png",56,0,"BiasOldInstruction",3,1019,"Include"
"LBA2019_e1","LBA2019_e1_104","151.png",57,1,"BiasOldInstruction",6,980,"Include"
"LBA2019_e1","LBA2019_e1_104","195.png",58,0,"BiasOldInstruction",6,1113,"Include"
"LBA2019_e1","LBA2019_e1_104","196.png",59,0,"BiasOldInstruction",2,976,"Include"
"LBA2019_e1","LBA2019_e1_104","153.png",60,1,"BiasOldInstruction",3,839,"Include"
"LBA2019_e1","LBA2019_e1_104","164.png",61,1,"BiasOldInstruction",6,2121,"Include"
"LBA2019_e1","LBA2019_e1_104","199.png",62,0,"BiasOldInstruction",2,804,"Include"
"LBA2019_e1","LBA2019_e1_104","165.png",63,1,"BiasOldInstruction",5,1070,"Include"
"LBA2019_e1","LBA2019_e1_104","179.png",64,1,"BiasOldInstruction",6,941,"Include"
"LBA2019_e1","LBA2019_e1_104","188.png",65,1,"BiasOldInstruction",5,753,"Include"
"LBA2019_e1","LBA2019_e1_104","203.png",66,0,"BiasOldInstruction",6,1054,"Include"
"LBA2019_e1","LBA2019_e1_104","204.png",67,0,"BiasOldInstruction",3,1015,"Include"
"LBA2019_e1","LBA2019_e1_104","210.png",68,0,"BiasOldInstruction",3,1007,"Include"
"LBA2019_e1","LBA2019_e1_104","211.png",69,0,"BiasOldInstruction",2,894,"Include"
"LBA2019_e1","LBA2019_e1_104","193.png",70,1,"BiasOldInstruction",6,789,"Include"
"LBA2019_e1","LBA2019_e1_104","197.png",71,1,"BiasOldInstruction",3,789,"Include"
"LBA2019_e1","LBA2019_e1_104","215.png",72,0,"BiasOldInstruction",5,1492,"Include"
"LBA2019_e1","LBA2019_e1_104","200.png",73,1,"BiasOldInstruction",6,1066,"Include"
"LBA2019_e1","LBA2019_e1_104","205.png",74,1,"BiasOldInstruction",3,839,"Include"
"LBA2019_e1","LBA2019_e1_104","207.png",75,1,"BiasOldInstruction",3,910,"Include"
"LBA2019_e1","LBA2019_e1_104","220.png",76,0,"BiasOldInstruction",6,824,"Include"
"LBA2019_e1","LBA2019_e1_104","229.png",77,1,"BiasOldInstruction",6,1152,"Include"
"LBA2019_e1","LBA2019_e1_104","224.png",78,0,"BiasOldInstruction",3,906,"Include"
"LBA2019_e1","LBA2019_e1_104","235.png",79,1,"BiasOldInstruction",6,1277,"Include"
"LBA2019_e1","LBA2019_e1_104","236.png",80,1,"BiasOldInstruction",3,1191,"Include"
"LBA2019_e1","LBA2019_e1_104","244.png",81,1,"BiasOldInstruction",6,875,"Include"
"LBA2019_e1","LBA2019_e1_104","230.png",82,0,"BiasOldInstruction",3,976,"Include"
"LBA2019_e1","LBA2019_e1_104","239.png",83,0,"BiasOldInstruction",6,1078,"Include"
"LBA2019_e1","LBA2019_e1_104","247.png",84,1,"BiasOldInstruction",3,1351,"Include"
"LBA2019_e1","LBA2019_e1_104","256.png",85,1,"BiasOldInstruction",3,980,"Include"
"LBA2019_e1","LBA2019_e1_104","284.png",86,1,"BiasOldInstruction",6,753,"Include"
"LBA2019_e1","LBA2019_e1_104","240.png",87,0,"BiasOldInstruction",3,1046,"Include"
"LBA2019_e1","LBA2019_e1_104","285.png",88,1,"BiasOldInstruction",3,824,"Include"
"LBA2019_e1","LBA2019_e1_104","241.png",89,0,"BiasOldInstruction",6,828,"Include"
"LBA2019_e1","LBA2019_e1_104","245.png",90,0,"BiasOldInstruction",6,1082,"Include"
"LBA2019_e1","LBA2019_e1_104","290.png",91,1,"BiasOldInstruction",3,898,"Include"
"LBA2019_e1","LBA2019_e1_104","291.png",92,1,"BiasOldInstruction",2,894,"Include"
"LBA2019_e1","LBA2019_e1_104","295.png",93,1,"BiasOldInstruction",3,1246,"Include"
"LBA2019_e1","LBA2019_e1_104","296.png",94,1,"BiasOldInstruction",4,925,"Include"
"LBA2019_e1","LBA2019_e1_104","246.png",95,0,"BiasOldInstruction",6,1000,"Include"
"LBA2019_e1","LBA2019_e1_104","297.png",96,1,"BiasOldInstruction",5,1035,"Include"
"LBA2019_e1","LBA2019_e1_104","298.png",97,1,"BiasOldInstruction",2,1152,"Include"
"LBA2019_e1","LBA2019_e1_104","255.png",98,0,"BiasOldInstruction",2,1250,"Include"
"LBA2019_e1","LBA2019_e1_104","299.png",99,1,"BiasOldInstruction",6,1457,"Include"
"LBA2019_e1","LBA2019_e1_104","300.png",100,1,"BiasOldInstruction",4,628,"Include"
"LBA2019_e1","LBA2019_e1_104","008.png",1,1,"NoBiasInstruction",1,2199,"Include"
"LBA2019_e1","LBA2019_e1_104","012.png",2,1,"NoBiasInstruction",1,1492,"Include"
"LBA2019_e1","LBA2019_e1_104","013.png",3,1,"NoBiasInstruction",2,3285,"Include"
"LBA2019_e1","LBA2019_e1_104","002.png",4,0,"NoBiasInstruction",6,1472,"Include"
"LBA2019_e1","LBA2019_e1_104","004.png",5,0,"NoBiasInstruction",2,2523,"Include"
"LBA2019_e1","LBA2019_e1_104","014.png",6,1,"NoBiasInstruction",6,2441,"Include"
"LBA2019_e1","LBA2019_e1_104","015.png",7,0,"NoBiasInstruction",6,2203,"Include"
"LBA2019_e1","LBA2019_e1_104","016.png",8,1,"NoBiasInstruction",6,1785,"Include"
"LBA2019_e1","LBA2019_e1_104","018.png",9,1,"NoBiasInstruction",6,1507,"Include"
"LBA2019_e1","LBA2019_e1_104","020.png",10,1,"NoBiasInstruction",6,2527,"Include"
"LBA2019_e1","LBA2019_e1_104","029.png",11,1,"NoBiasInstruction",7,1457,"Include"
"LBA2019_e1","LBA2019_e1_104","017.png",12,0,"NoBiasInstruction",6,1503,"Include"
"LBA2019_e1","LBA2019_e1_104","039.png",13,1,"NoBiasInstruction",7,1281,"Include"
"LBA2019_e1","LBA2019_e1_104","019.png",14,0,"NoBiasInstruction",2,3007,"Include"
"LBA2019_e1","LBA2019_e1_104","023.png",15,0,"NoBiasInstruction",4,2136,"Include"
"LBA2019_e1","LBA2019_e1_104","024.png",16,0,"NoBiasInstruction",4,1476,"Include"
"LBA2019_e1","LBA2019_e1_104","026.png",17,0,"NoBiasInstruction",3,2066,"Include"
"LBA2019_e1","LBA2019_e1_104","038.png",18,0,"NoBiasInstruction",3,2390,"Include"
"LBA2019_e1","LBA2019_e1_104","045.png",19,1,"NoBiasInstruction",6,1457,"Include"
"LBA2019_e1","LBA2019_e1_104","051.png",20,1,"NoBiasInstruction",6,1527,"Include"
"LBA2019_e1","LBA2019_e1_104","058.png",21,0,"NoBiasInstruction",2,1253,"Include"
"LBA2019_e1","LBA2019_e1_104","064.png",22,1,"NoBiasInstruction",3,1648,"Include"
"LBA2019_e1","LBA2019_e1_104","072.png",23,0,"NoBiasInstruction",3,2203,"Include"
"LBA2019_e1","LBA2019_e1_104","080.png",24,0,"NoBiasInstruction",5,1570,"Include"
"LBA2019_e1","LBA2019_e1_104","088.png",25,0,"NoBiasInstruction",2,1886,"Include"
"LBA2019_e1","LBA2019_e1_104","089.png",26,0,"NoBiasInstruction",2,1328,"Include"
"LBA2019_e1","LBA2019_e1_104","090.png",27,0,"NoBiasInstruction",5,1152,"Include"
"LBA2019_e1","LBA2019_e1_104","092.png",28,0,"NoBiasInstruction",6,2070,"Include"
"LBA2019_e1","LBA2019_e1_104","094.png",29,0,"NoBiasInstruction",6,1617,"Include"
"LBA2019_e1","LBA2019_e1_104","095.png",30,0,"NoBiasInstruction",3,2589,"Include"
"LBA2019_e1","LBA2019_e1_104","096.png",31,0,"NoBiasInstruction",5,1636,"Include"
"LBA2019_e1","LBA2019_e1_104","111.png",32,0,"NoBiasInstruction",3,2726,"Include"
"LBA2019_e1","LBA2019_e1_104","075.png",33,1,"NoBiasInstruction",5,968,"Include"
"LBA2019_e1","LBA2019_e1_104","112.png",34,0,"NoBiasInstruction",2,1843,"Include"
"LBA2019_e1","LBA2019_e1_104","119.png",35,0,"NoBiasInstruction",5,1648,"Include"
"LBA2019_e1","LBA2019_e1_104","081.png",36,1,"NoBiasInstruction",6,1597,"Include"
"LBA2019_e1","LBA2019_e1_104","127.png",37,0,"NoBiasInstruction",5,1996,"Include"
"LBA2019_e1","LBA2019_e1_104","082.png",38,1,"NoBiasInstruction",6,2105,"Include"
"LBA2019_e1","LBA2019_e1_104","134.png",39,0,"NoBiasInstruction",4,1195,"Include"
"LBA2019_e1","LBA2019_e1_104","144.png",40,0,"NoBiasInstruction",6,1152,"Include"
"LBA2019_e1","LBA2019_e1_104","152.png",41,0,"NoBiasInstruction",6,2160,"Include"
"LBA2019_e1","LBA2019_e1_104","084.png",42,1,"NoBiasInstruction",7,1390,"Include"
"LBA2019_e1","LBA2019_e1_104","103.png",43,1,"NoBiasInstruction",2,1929,"Include"
"LBA2019_e1","LBA2019_e1_104","108.png",44,1,"NoBiasInstruction",2,1964,"Include"
"LBA2019_e1","LBA2019_e1_104","154.png",45,0,"NoBiasInstruction",3,2625,"Include"
"LBA2019_e1","LBA2019_e1_104","156.png",46,0,"NoBiasInstruction",3,2878,"Include"
"LBA2019_e1","LBA2019_e1_104","162.png",47,0,"NoBiasInstruction",3,2027,"Include"
"LBA2019_e1","LBA2019_e1_104","177.png",48,0,"NoBiasInstruction",5,976,"Include"
"LBA2019_e1","LBA2019_e1_104","183.png",49,0,"NoBiasInstruction",5,1160,"Include"
"LBA2019_e1","LBA2019_e1_104","187.png",50,0,"NoBiasInstruction",6,1351,"Include"
"LBA2019_e1","LBA2019_e1_104","139.png",51,1,"NoBiasInstruction",3,1386,"Include"
"LBA2019_e1","LBA2019_e1_104","198.png",52,0,"NoBiasInstruction",2,2417,"Include"
"LBA2019_e1","LBA2019_e1_104","214.png",53,0,"NoBiasInstruction",6,1074,"Include"
"LBA2019_e1","LBA2019_e1_104","222.png",54,0,"NoBiasInstruction",2,2062,"Include"
"LBA2019_e1","LBA2019_e1_104","225.png",55,0,"NoBiasInstruction",5,1613,"Include"
"LBA2019_e1","LBA2019_e1_104","231.png",56,0,"NoBiasInstruction",3,1582,"Include"
"LBA2019_e1","LBA2019_e1_104","243.png",57,0,"NoBiasInstruction",3,2773,"Include"
"LBA2019_e1","LBA2019_e1_104","140.png",58,1,"NoBiasInstruction",2,3324,"Include"
"LBA2019_e1","LBA2019_e1_104","143.png",59,1,"NoBiasInstruction",6,1472,"Include"
"LBA2019_e1","LBA2019_e1_104","145.png",60,1,"NoBiasInstruction",6,3742,"Include"
"LBA2019_e1","LBA2019_e1_104","146.png",61,1,"NoBiasInstruction",6,1175,"Include"
"LBA2019_e1","LBA2019_e1_104","254.png",62,0,"NoBiasInstruction",2,1824,"Include"
"LBA2019_e1","LBA2019_e1_104","148.png",63,1,"NoBiasInstruction",6,3496,"Include"
"LBA2019_e1","LBA2019_e1_104","263.png",64,0,"NoBiasInstruction",2,1183,"Include"
"LBA2019_e1","LBA2019_e1_104","266.png",65,0,"NoBiasInstruction",2,1328,"Include"
"LBA2019_e1","LBA2019_e1_104","268.png",66,0,"NoBiasInstruction",5,1507,"Include"
"LBA2019_e1","LBA2019_e1_104","269.png",67,0,"NoBiasInstruction",2,2617,"Include"
"LBA2019_e1","LBA2019_e1_104","157.png",68,1,"NoBiasInstruction",6,1117,"Include"
"LBA2019_e1","LBA2019_e1_104","270.png",69,0,"NoBiasInstruction",6,2546,"Include"
"LBA2019_e1","LBA2019_e1_104","167.png",70,1,"NoBiasInstruction",5,1648,"Include"
"LBA2019_e1","LBA2019_e1_104","271.png",71,0,"NoBiasInstruction",6,1546,"Include"
"LBA2019_e1","LBA2019_e1_104","273.png",72,0,"NoBiasInstruction",6,1191,"Include"
"LBA2019_e1","LBA2019_e1_104","170.png",73,1,"NoBiasInstruction",6,1351,"Include"
"LBA2019_e1","LBA2019_e1_104","171.png",74,1,"NoBiasInstruction",6,2949,"Include"
"LBA2019_e1","LBA2019_e1_104","274.png",75,0,"NoBiasInstruction",2,3613,"Include"
"LBA2019_e1","LBA2019_e1_104","281.png",76,0,"NoBiasInstruction",2,1335,"Include"
"LBA2019_e1","LBA2019_e1_104","172.png",77,1,"NoBiasInstruction",6,1187,"Include"
"LBA2019_e1","LBA2019_e1_104","181.png",78,1,"NoBiasInstruction",6,2687,"Include"
"LBA2019_e1","LBA2019_e1_104","286.png",79,0,"NoBiasInstruction",2,3507,"Include"
"LBA2019_e1","LBA2019_e1_104","288.png",80,0,"NoBiasInstruction",3,3468,"Include"
"LBA2019_e1","LBA2019_e1_104","190.png",81,1,"NoBiasInstruction",6,1144,"Include"
"LBA2019_e1","LBA2019_e1_104","191.png",82,1,"NoBiasInstruction",6,1035,"Include"
"LBA2019_e1","LBA2019_e1_104","194.png",83,1,"NoBiasInstruction",3,4128,"Include"
"LBA2019_e1","LBA2019_e1_104","201.png",84,1,"NoBiasInstruction",3,1472,"Include"
"LBA2019_e1","LBA2019_e1_104","202.png",85,1,"NoBiasInstruction",6,1492,"Include"
"LBA2019_e1","LBA2019_e1_104","212.png",86,1,"NoBiasInstruction",3,1597,"Include"
"LBA2019_e1","LBA2019_e1_104","223.png",87,1,"NoBiasInstruction",2,1757,"Include"
"LBA2019_e1","LBA2019_e1_104","226.png",88,1,"NoBiasInstruction",2,1421,"Include"
"LBA2019_e1","LBA2019_e1_104","227.png",89,1,"NoBiasInstruction",3,1648,"Include"
"LBA2019_e1","LBA2019_e1_104","228.png",90,1,"NoBiasInstruction",3,1632,"Include"
"LBA2019_e1","LBA2019_e1_104","242.png",91,1,"NoBiasInstruction",2,1527,"Include"
"LBA2019_e1","LBA2019_e1_104","248.png",92,1,"NoBiasInstruction",6,1105,"Include"
"LBA2019_e1","LBA2019_e1_104","249.png",93,1,"NoBiasInstruction",5,1246,"Include"
"LBA2019_e1","LBA2019_e1_104","250.png",94,1,"NoBiasInstruction",3,1738,"Include"
"LBA2019_e1","LBA2019_e1_104","257.png",95,1,"NoBiasInstruction",3,3496,"Include"
"LBA2019_e1","LBA2019_e1_104","260.png",96,1,"NoBiasInstruction",2,1281,"Include"
"LBA2019_e1","LBA2019_e1_104","264.png",97,1,"NoBiasInstruction",6,1492,"Include"
"LBA2019_e1","LBA2019_e1_104","267.png",98,1,"NoBiasInstruction",3,1191,"Include"
"LBA2019_e1","LBA2019_e1_104","275.png",99,1,"NoBiasInstruction",6,964,"Include"
"LBA2019_e1","LBA2019_e1_104","282.png",100,1,"NoBiasInstruction",6,1187,"Include"
"LBA2019_e1","LBA2019_e1_107","002.png",1,1,"BiasNewInstruction",2,1796,"Include"
"LBA2019_e1","LBA2019_e1_107","015.png",2,0,"BiasNewInstruction",2,2449,"Include"
"LBA2019_e1","LBA2019_e1_107","017.png",3,0,"BiasNewInstruction",6,1121,"Include"
"LBA2019_e1","LBA2019_e1_107","004.png",4,1,"BiasNewInstruction",2,3507,"Include"
"LBA2019_e1","LBA2019_e1_107","026.png",5,0,"BiasNewInstruction",2,1011,"Include"
"LBA2019_e1","LBA2019_e1_107","033.png",6,0,"BiasNewInstruction",2,3718,"Include"
"LBA2019_e1","LBA2019_e1_107","008.png",7,1,"BiasNewInstruction",6,1421,"Include"
"LBA2019_e1","LBA2019_e1_107","012.png",8,1,"BiasNewInstruction",2,1457,"Include"
"LBA2019_e1","LBA2019_e1_107","035.png",9,0,"BiasNewInstruction",6,2164,"Include"
"LBA2019_e1","LBA2019_e1_107","016.png",10,1,"BiasNewInstruction",6,1890,"Include"
"LBA2019_e1","LBA2019_e1_107","019.png",11,1,"BiasNewInstruction",2,1226,"Include"
"LBA2019_e1","LBA2019_e1_107","036.png",12,0,"BiasNewInstruction",2,1781,"Include"
"LBA2019_e1","LBA2019_e1_107","056.png",13,0,"BiasNewInstruction",1,1082,"Include"
"LBA2019_e1","LBA2019_e1_107","020.png",14,1,"BiasNewInstruction",7,1140,"Include"
"LBA2019_e1","LBA2019_e1_107","023.png",15,1,"BiasNewInstruction",6,1914,"Include"
"LBA2019_e1","LBA2019_e1_107","057.png",16,0,"BiasNewInstruction",1,1011,"Include"
"LBA2019_e1","LBA2019_e1_107","024.png",17,1,"BiasNewInstruction",5,2125,"Include"
"LBA2019_e1","LBA2019_e1_107","058.png",18,0,"BiasNewInstruction",5,1464,"Include"
"LBA2019_e1","LBA2019_e1_107","062.png",19,0,"BiasNewInstruction",6,1398,"Include"
"LBA2019_e1","LBA2019_e1_107","067.png",20,0,"BiasNewInstruction",5,2167,"Include"
"LBA2019_e1","LBA2019_e1_107","072.png",21,0,"BiasNewInstruction",2,2492,"Include"
"LBA2019_e1","LBA2019_e1_107","094.png",22,0,"BiasNewInstruction",6,2105,"Include"
"LBA2019_e1","LBA2019_e1_107","038.png",23,1,"BiasNewInstruction",2,2550,"Include"
"LBA2019_e1","LBA2019_e1_107","102.png",24,0,"BiasNewInstruction",1,1507,"Include"
"LBA2019_e1","LBA2019_e1_107","039.png",25,1,"BiasNewInstruction",6,1578,"Include"
"LBA2019_e1","LBA2019_e1_107","075.png",26,1,"BiasNewInstruction",2,2335,"Include"
"LBA2019_e1","LBA2019_e1_107","080.png",27,1,"BiasNewInstruction",2,1925,"Include"
"LBA2019_e1","LBA2019_e1_107","119.png",28,0,"BiasNewInstruction",6,1078,"Include"
"LBA2019_e1","LBA2019_e1_107","120.png",29,0,"BiasNewInstruction",7,835,"Include"
"LBA2019_e1","LBA2019_e1_107","127.png",30,0,"BiasNewInstruction",5,1996,"Include"
"LBA2019_e1","LBA2019_e1_107","081.png",31,1,"BiasNewInstruction",1,2191,"Include"
"LBA2019_e1","LBA2019_e1_107","082.png",32,1,"BiasNewInstruction",5,1808,"Include"
"LBA2019_e1","LBA2019_e1_107","084.png",33,1,"BiasNewInstruction",6,1000,"Include"
"LBA2019_e1","LBA2019_e1_107","088.png",34,1,"BiasNewInstruction",2,1562,"Include"
"LBA2019_e1","LBA2019_e1_107","129.png",35,0,"BiasNewInstruction",6,1222,"Include"
"LBA2019_e1","LBA2019_e1_107","089.png",36,1,"BiasNewInstruction",6,1140,"Include"
"LBA2019_e1","LBA2019_e1_107","090.png",37,1,"BiasNewInstruction",2,3144,"Include"
"LBA2019_e1","LBA2019_e1_107","092.png",38,1,"BiasNewInstruction",6,1246,"Include"
"LBA2019_e1","LBA2019_e1_107","095.png",39,1,"BiasNewInstruction",2,2300,"Include"
"LBA2019_e1","LBA2019_e1_107","096.png",40,1,"BiasNewInstruction",2,1226,"Include"
"LBA2019_e1","LBA2019_e1_107","103.png",41,1,"BiasNewInstruction",6,964,"Include"
"LBA2019_e1","LBA2019_e1_107","108.png",42,1,"BiasNewInstruction",2,2050,"Include"
"LBA2019_e1","LBA2019_e1_107","131.png",43,0,"BiasNewInstruction",2,1011,"Include"
"LBA2019_e1","LBA2019_e1_107","134.png",44,0,"BiasNewInstruction",6,2042,"Include"
"LBA2019_e1","LBA2019_e1_107","111.png",45,1,"BiasNewInstruction",2,1894,"Include"
"LBA2019_e1","LBA2019_e1_107","112.png",46,1,"BiasNewInstruction",6,1105,"Include"
"LBA2019_e1","LBA2019_e1_107","144.png",47,0,"BiasNewInstruction",6,1332,"Include"
"LBA2019_e1","LBA2019_e1_107","152.png",48,0,"BiasNewInstruction",2,1648,"Include"
"LBA2019_e1","LBA2019_e1_107","158.png",49,0,"BiasNewInstruction",2,1078,"Include"
"LBA2019_e1","LBA2019_e1_107","168.png",50,0,"BiasNewInstruction",6,1078,"Include"
"LBA2019_e1","LBA2019_e1_107","139.png",51,1,"BiasNewInstruction",6,1039,"Include"
"LBA2019_e1","LBA2019_e1_107","185.png",52,0,"BiasNewInstruction",6,1058,"Include"
"LBA2019_e1","LBA2019_e1_107","187.png",53,0,"BiasNewInstruction",2,1929,"Include"
"LBA2019_e1","LBA2019_e1_107","140.png",54,1,"BiasNewInstruction",7,859,"Include"
"LBA2019_e1","LBA2019_e1_107","143.png",55,1,"BiasNewInstruction",6,1355,"Include"
"LBA2019_e1","LBA2019_e1_107","145.png",56,1,"BiasNewInstruction",2,1355,"Include"
"LBA2019_e1","LBA2019_e1_107","189.png",57,0,"BiasNewInstruction",2,2597,"Include"
"LBA2019_e1","LBA2019_e1_107","154.png",58,1,"BiasNewInstruction",1,1277,"Include"
"LBA2019_e1","LBA2019_e1_107","198.png",59,0,"BiasNewInstruction",2,1605,"Include"
"LBA2019_e1","LBA2019_e1_107","209.png",60,0,"BiasNewInstruction",6,800,"Include"
"LBA2019_e1","LBA2019_e1_107","214.png",61,0,"BiasNewInstruction",6,1042,"Include"
"LBA2019_e1","LBA2019_e1_107","156.png",62,1,"BiasNewInstruction",6,1527,"Include"
"LBA2019_e1","LBA2019_e1_107","225.png",63,0,"BiasNewInstruction",2,1390,"Include"
"LBA2019_e1","LBA2019_e1_107","157.png",64,1,"BiasNewInstruction",6,1210,"Include"
"LBA2019_e1","LBA2019_e1_107","162.png",65,1,"BiasNewInstruction",7,824,"Include"
"LBA2019_e1","LBA2019_e1_107","167.png",66,1,"BiasNewInstruction",6,1738,"Include"
"LBA2019_e1","LBA2019_e1_107","170.png",67,1,"BiasNewInstruction",2,1417,"Include"
"LBA2019_e1","LBA2019_e1_107","177.png",68,1,"BiasNewInstruction",6,1070,"Include"
"LBA2019_e1","LBA2019_e1_107","181.png",69,1,"BiasNewInstruction",6,1035,"Include"
"LBA2019_e1","LBA2019_e1_107","231.png",70,0,"BiasNewInstruction",6,1191,"Include"
"LBA2019_e1","LBA2019_e1_107","232.png",71,0,"BiasNewInstruction",1,1886,"Include"
"LBA2019_e1","LBA2019_e1_107","237.png",72,0,"BiasNewInstruction",2,1472,"Include"
"LBA2019_e1","LBA2019_e1_107","183.png",73,1,"BiasNewInstruction",5,2843,"Include"
"LBA2019_e1","LBA2019_e1_107","222.png",74,1,"BiasNewInstruction",2,4023,"Include"
"LBA2019_e1","LBA2019_e1_107","226.png",75,1,"BiasNewInstruction",2,1246,"Include"
"LBA2019_e1","LBA2019_e1_107","228.png",76,1,"BiasNewInstruction",2,1914,"Include"
"LBA2019_e1","LBA2019_e1_107","251.png",77,0,"BiasNewInstruction",1,1292,"Include"
"LBA2019_e1","LBA2019_e1_107","242.png",78,1,"BiasNewInstruction",6,1046,"Include"
"LBA2019_e1","LBA2019_e1_107","252.png",79,0,"BiasNewInstruction",2,964,"Include"
"LBA2019_e1","LBA2019_e1_107","269.png",80,0,"BiasNewInstruction",2,3093,"Include"
"LBA2019_e1","LBA2019_e1_107","272.png",81,0,"BiasNewInstruction",6,1011,"Include"
"LBA2019_e1","LBA2019_e1_107","275.png",82,0,"BiasNewInstruction",2,1078,"Include"
"LBA2019_e1","LBA2019_e1_107","277.png",83,0,"BiasNewInstruction",2,964,"Include"
"LBA2019_e1","LBA2019_e1_107","279.png",84,0,"BiasNewInstruction",2,1722,"Include"
"LBA2019_e1","LBA2019_e1_107","243.png",85,1,"BiasNewInstruction",6,789,"Include"
"LBA2019_e1","LBA2019_e1_107","250.png",86,1,"BiasNewInstruction",6,1066,"Include"
"LBA2019_e1","LBA2019_e1_107","254.png",87,1,"BiasNewInstruction",5,1734,"Include"
"LBA2019_e1","LBA2019_e1_107","281.png",88,0,"BiasNewInstruction",2,1656,"Include"
"LBA2019_e1","LBA2019_e1_107","258.png",89,1,"BiasNewInstruction",1,1738,"Include"
"LBA2019_e1","LBA2019_e1_107","265.png",90,1,"BiasNewInstruction",6,1503,"Include"
"LBA2019_e1","LBA2019_e1_107","266.png",91,1,"BiasNewInstruction",2,1210,"Include"
"LBA2019_e1","LBA2019_e1_107","289.png",92,0,"BiasNewInstruction",6,1652,"Include"
"LBA2019_e1","LBA2019_e1_107","290.png",93,0,"BiasNewInstruction",2,1359,"Include"
"LBA2019_e1","LBA2019_e1_107","291.png",94,0,"BiasNewInstruction",1,1492,"Include"
"LBA2019_e1","LBA2019_e1_107","273.png",95,1,"BiasNewInstruction",5,1039,"Include"
"LBA2019_e1","LBA2019_e1_107","292.png",96,0,"BiasNewInstruction",2,2140,"Include"
"LBA2019_e1","LBA2019_e1_107","295.png",97,0,"BiasNewInstruction",6,984,"Include"
"LBA2019_e1","LBA2019_e1_107","298.png",98,0,"BiasNewInstruction",2,2527,"Include"
"LBA2019_e1","LBA2019_e1_107","299.png",99,0,"BiasNewInstruction",2,1855,"Include"
"LBA2019_e1","LBA2019_e1_107","300.png",100,0,"BiasNewInstruction",5,2203,"Include"
"LBA2019_e1","LBA2019_e1_107","006.png",1,1,"BiasOldInstruction",6,2027,"Include"
"LBA2019_e1","LBA2019_e1_107","009.png",2,0,"BiasOldInstruction",1,937,"Include"
"LBA2019_e1","LBA2019_e1_107","011.png",3,0,"BiasOldInstruction",7,1007,"Include"
"LBA2019_e1","LBA2019_e1_107","021.png",4,0,"BiasOldInstruction",2,1187,"Include"
"LBA2019_e1","LBA2019_e1_107","041.png",5,0,"BiasOldInstruction",1,980,"Include"
"LBA2019_e1","LBA2019_e1_107","042.png",6,0,"BiasOldInstruction",2,2128,"Include"
"LBA2019_e1","LBA2019_e1_107","043.png",7,0,"BiasOldInstruction",2,1429,"Include"
"LBA2019_e1","LBA2019_e1_107","044.png",8,0,"BiasOldInstruction",5,1472,"Include"
"LBA2019_e1","LBA2019_e1_107","048.png",9,0,"BiasOldInstruction",6,937,"Include"
"LBA2019_e1","LBA2019_e1_107","007.png",10,1,"BiasOldInstruction",6,1210,"Include"
"LBA2019_e1","LBA2019_e1_107","052.png",11,0,"BiasOldInstruction",2,1152,"Include"
"LBA2019_e1","LBA2019_e1_107","010.png",12,1,"BiasOldInstruction",2,933,"Include"
"LBA2019_e1","LBA2019_e1_107","055.png",13,0,"BiasOldInstruction",6,937,"Include"
"LBA2019_e1","LBA2019_e1_107","060.png",14,0,"BiasOldInstruction",2,3714,"Include"
"LBA2019_e1","LBA2019_e1_107","025.png",15,1,"BiasOldInstruction",7,753,"Include"
"LBA2019_e1","LBA2019_e1_107","028.png",16,1,"BiasOldInstruction",2,1328,"Include"
"LBA2019_e1","LBA2019_e1_107","032.png",17,1,"BiasOldInstruction",5,1878,"Include"
"LBA2019_e1","LBA2019_e1_107","061.png",18,0,"BiasOldInstruction",6,1296,"Include"
"LBA2019_e1","LBA2019_e1_107","037.png",19,1,"BiasOldInstruction",6,1347,"Include"
"LBA2019_e1","LBA2019_e1_107","078.png",20,0,"BiasOldInstruction",2,937,"Include"
"LBA2019_e1","LBA2019_e1_107","046.png",21,1,"BiasOldInstruction",5,3472,"Include"
"LBA2019_e1","LBA2019_e1_107","047.png",22,1,"BiasOldInstruction",2,1667,"Include"
"LBA2019_e1","LBA2019_e1_107","079.png",23,0,"BiasOldInstruction",2,1925,"Include"
"LBA2019_e1","LBA2019_e1_107","083.png",24,0,"BiasOldInstruction",2,1128,"Include"
"LBA2019_e1","LBA2019_e1_107","049.png",25,1,"BiasOldInstruction",6,1152,"Include"
"LBA2019_e1","LBA2019_e1_107","050.png",26,1,"BiasOldInstruction",6,1363,"Include"
"LBA2019_e1","LBA2019_e1_107","063.png",27,1,"BiasOldInstruction",5,2355,"Include"
"LBA2019_e1","LBA2019_e1_107","087.png",28,0,"BiasOldInstruction",5,1175,"Include"
"LBA2019_e1","LBA2019_e1_107","065.png",29,1,"BiasOldInstruction",1,804,"Include"
"LBA2019_e1","LBA2019_e1_107","093.png",30,0,"BiasOldInstruction",2,1359,"Include"
"LBA2019_e1","LBA2019_e1_107","068.png",31,1,"BiasOldInstruction",6,1070,"Include"
"LBA2019_e1","LBA2019_e1_107","097.png",32,0,"BiasOldInstruction",2,1917,"Include"
"LBA2019_e1","LBA2019_e1_107","069.png",33,1,"BiasOldInstruction",5,1425,"Include"
"LBA2019_e1","LBA2019_e1_107","100.png",34,0,"BiasOldInstruction",6,1503,"Include"
"LBA2019_e1","LBA2019_e1_107","104.png",35,0,"BiasOldInstruction",6,2843,"Include"
"LBA2019_e1","LBA2019_e1_107","071.png",36,1,"BiasOldInstruction",2,2511,"Include"
"LBA2019_e1","LBA2019_e1_107","073.png",37,1,"BiasOldInstruction",2,1578,"Include"
"LBA2019_e1","LBA2019_e1_107","105.png",38,0,"BiasOldInstruction",6,867,"Include"
"LBA2019_e1","LBA2019_e1_107","074.png",39,1,"BiasOldInstruction",2,1152,"Include"
"LBA2019_e1","LBA2019_e1_107","106.png",40,0,"BiasOldInstruction",6,945,"Include"
"LBA2019_e1","LBA2019_e1_107","085.png",41,1,"BiasOldInstruction",2,1125,"Include"
"LBA2019_e1","LBA2019_e1_107","107.png",42,0,"BiasOldInstruction",6,1429,"Include"
"LBA2019_e1","LBA2019_e1_107","091.png",43,1,"BiasOldInstruction",6,4515,"Include"
"LBA2019_e1","LBA2019_e1_107","115.png",44,0,"BiasOldInstruction",6,871,"Include"
"LBA2019_e1","LBA2019_e1_107","116.png",45,0,"BiasOldInstruction",5,1386,"Include"
"LBA2019_e1","LBA2019_e1_107","128.png",46,0,"BiasOldInstruction",2,863,"Include"
"LBA2019_e1","LBA2019_e1_107","130.png",47,0,"BiasOldInstruction",2,1074,"Include"
"LBA2019_e1","LBA2019_e1_107","132.png",48,0,"BiasOldInstruction",2,2230,"Include"
"LBA2019_e1","LBA2019_e1_107","133.png",49,0,"BiasOldInstruction",2,1105,"Include"
"LBA2019_e1","LBA2019_e1_107","099.png",50,1,"BiasOldInstruction",6,1019,"Include"
"LBA2019_e1","LBA2019_e1_107","141.png",51,0,"BiasOldInstruction",2,863,"Include"
"LBA2019_e1","LBA2019_e1_107","149.png",52,0,"BiasOldInstruction",2,1050,"Include"
"LBA2019_e1","LBA2019_e1_107","163.png",53,0,"BiasOldInstruction",2,1757,"Include"
"LBA2019_e1","LBA2019_e1_107","109.png",54,1,"BiasOldInstruction",5,1105,"Include"
"LBA2019_e1","LBA2019_e1_107","113.png",55,1,"BiasOldInstruction",2,1000,"Include"
"LBA2019_e1","LBA2019_e1_107","165.png",56,0,"BiasOldInstruction",6,980,"Include"
"LBA2019_e1","LBA2019_e1_107","117.png",57,1,"BiasOldInstruction",2,1226,"Include"
"LBA2019_e1","LBA2019_e1_107","121.png",58,1,"BiasOldInstruction",6,664,"Include"
"LBA2019_e1","LBA2019_e1_107","136.png",59,1,"BiasOldInstruction",5,3671,"Include"
"LBA2019_e1","LBA2019_e1_107","137.png",60,1,"BiasOldInstruction",2,1050,"Include"
"LBA2019_e1","LBA2019_e1_107","142.png",61,1,"BiasOldInstruction",6,1121,"Include"
"LBA2019_e1","LBA2019_e1_107","175.png",62,0,"BiasOldInstruction",2,2289,"Include"
"LBA2019_e1","LBA2019_e1_107","179.png",63,0,"BiasOldInstruction",2,1953,"Include"
"LBA2019_e1","LBA2019_e1_107","193.png",64,0,"BiasOldInstruction",6,2906,"Include"
"LBA2019_e1","LBA2019_e1_107","197.png",65,0,"BiasOldInstruction",2,1222,"Include"
"LBA2019_e1","LBA2019_e1_107","205.png",66,0,"BiasOldInstruction",6,1257,"Include"
"LBA2019_e1","LBA2019_e1_107","150.png",67,1,"BiasOldInstruction",2,1699,"Include"
"LBA2019_e1","LBA2019_e1_107","169.png",68,1,"BiasOldInstruction",6,2140,"Include"
"LBA2019_e1","LBA2019_e1_107","217.png",69,0,"BiasOldInstruction",6,863,"Include"
"LBA2019_e1","LBA2019_e1_107","173.png",70,1,"BiasOldInstruction",6,1105,"Include"
"LBA2019_e1","LBA2019_e1_107","221.png",71,0,"BiasOldInstruction",2,2207,"Include"
"LBA2019_e1","LBA2019_e1_107","174.png",72,1,"BiasOldInstruction",6,996,"Include"
"LBA2019_e1","LBA2019_e1_107","180.png",73,1,"BiasOldInstruction",2,1492,"Include"
"LBA2019_e1","LBA2019_e1_107","235.png",74,0,"BiasOldInstruction",7,1000,"Include"
"LBA2019_e1","LBA2019_e1_107","236.png",75,0,"BiasOldInstruction",7,1148,"Include"
"LBA2019_e1","LBA2019_e1_107","244.png",76,0,"BiasOldInstruction",5,2171,"Include"
"LBA2019_e1","LBA2019_e1_107","247.png",77,0,"BiasOldInstruction",2,1218,"Include"
"LBA2019_e1","LBA2019_e1_107","184.png",78,1,"BiasOldInstruction",5,2597,"Include"
"LBA2019_e1","LBA2019_e1_107","192.png",79,1,"BiasOldInstruction",6,1070,"Include"
"LBA2019_e1","LBA2019_e1_107","206.png",80,1,"BiasOldInstruction",2,1738,"Include"
"LBA2019_e1","LBA2019_e1_107","253.png",81,0,"BiasOldInstruction",1,1050,"Include"
"LBA2019_e1","LBA2019_e1_107","208.png",82,1,"BiasOldInstruction",3,2703,"Include"
"LBA2019_e1","LBA2019_e1_107","213.png",83,1,"BiasOldInstruction",2,2546,"Include"
"LBA2019_e1","LBA2019_e1_107","256.png",84,0,"BiasOldInstruction",5,1550,"Include"
"LBA2019_e1","LBA2019_e1_107","263.png",85,0,"BiasOldInstruction",6,1046,"Include"
"LBA2019_e1","LBA2019_e1_107","216.png",86,1,"BiasOldInstruction",6,1000,"Include"
"LBA2019_e1","LBA2019_e1_107","218.png",87,1,"BiasOldInstruction",2,3250,"Include"
"LBA2019_e1","LBA2019_e1_107","219.png",88,1,"BiasOldInstruction",2,2453,"Include"
"LBA2019_e1","LBA2019_e1_107","233.png",89,1,"BiasOldInstruction",5,1070,"Include"
"LBA2019_e1","LBA2019_e1_107","286.png",90,0,"BiasOldInstruction",2,1617,"Include"
"LBA2019_e1","LBA2019_e1_107","234.png",91,1,"BiasOldInstruction",5,1222,"Include"
"LBA2019_e1","LBA2019_e1_107","238.png",92,1,"BiasOldInstruction",6,1859,"Include"
"LBA2019_e1","LBA2019_e1_107","288.png",93,0,"BiasOldInstruction",6,1394,"Include"
"LBA2019_e1","LBA2019_e1_107","293.png",94,0,"BiasOldInstruction",6,1140,"Include"
"LBA2019_e1","LBA2019_e1_107","259.png",95,1,"BiasOldInstruction",6,1457,"Include"
"LBA2019_e1","LBA2019_e1_107","260.png",96,1,"BiasOldInstruction",6,1156,"Include"
"LBA2019_e1","LBA2019_e1_107","264.png",97,1,"BiasOldInstruction",6,2386,"Include"
"LBA2019_e1","LBA2019_e1_107","268.png",98,1,"BiasOldInstruction",1,964,"Include"
"LBA2019_e1","LBA2019_e1_107","274.png",99,1,"BiasOldInstruction",6,1046,"Include"
"LBA2019_e1","LBA2019_e1_107","280.png",100,1,"BiasOldInstruction",2,980,"Include"
"LBA2019_e1","LBA2019_e1_107","001.png",1,1,"NoBiasInstruction",3,1992,"Include"
"LBA2019_e1","LBA2019_e1_107","005.png",2,0,"NoBiasInstruction",2,2000,"Include"
"LBA2019_e1","LBA2019_e1_107","003.png",3,1,"NoBiasInstruction",7,1101,"Include"
"LBA2019_e1","LBA2019_e1_107","013.png",4,0,"NoBiasInstruction",2,2382,"Include"
"LBA2019_e1","LBA2019_e1_107","014.png",5,0,"NoBiasInstruction",1,1113,"Include"
"LBA2019_e1","LBA2019_e1_107","018.png",6,0,"NoBiasInstruction",6,1394,"Include"
"LBA2019_e1","LBA2019_e1_107","022.png",7,0,"NoBiasInstruction",2,1082,"Include"
"LBA2019_e1","LBA2019_e1_107","027.png",8,1,"NoBiasInstruction",6,1386,"Include"
"LBA2019_e1","LBA2019_e1_107","029.png",9,0,"NoBiasInstruction",6,1855,"Include"
"LBA2019_e1","LBA2019_e1_107","031.png",10,0,"NoBiasInstruction",3,2339,"Include"
"LBA2019_e1","LBA2019_e1_107","040.png",11,0,"NoBiasInstruction",2,2242,"Include"
"LBA2019_e1","LBA2019_e1_107","045.png",12,0,"NoBiasInstruction",6,1335,"Include"
"LBA2019_e1","LBA2019_e1_107","030.png",13,1,"NoBiasInstruction",6,1878,"Include"
"LBA2019_e1","LBA2019_e1_107","034.png",14,1,"NoBiasInstruction",7,1960,"Include"
"LBA2019_e1","LBA2019_e1_107","051.png",15,0,"NoBiasInstruction",5,1707,"Include"
"LBA2019_e1","LBA2019_e1_107","053.png",16,1,"NoBiasInstruction",7,1574,"Include"
"LBA2019_e1","LBA2019_e1_107","054.png",17,0,"NoBiasInstruction",5,4140,"Include"
"LBA2019_e1","LBA2019_e1_107","066.png",18,1,"NoBiasInstruction",3,4652,"Include"
"LBA2019_e1","LBA2019_e1_107","070.png",19,1,"NoBiasInstruction",7,1488,"Include"
"LBA2019_e1","LBA2019_e1_107","077.png",20,1,"NoBiasInstruction",7,1085,"Include"
"LBA2019_e1","LBA2019_e1_107","059.png",21,0,"NoBiasInstruction",2,1460,"Include"
"LBA2019_e1","LBA2019_e1_107","064.png",22,0,"NoBiasInstruction",2,1609,"Include"
"LBA2019_e1","LBA2019_e1_107","076.png",23,0,"NoBiasInstruction",2,2589,"Include"
"LBA2019_e1","LBA2019_e1_107","086.png",24,1,"NoBiasInstruction",6,1636,"Include"
"LBA2019_e1","LBA2019_e1_107","098.png",25,1,"NoBiasInstruction",3,4515,"Include"
"LBA2019_e1","LBA2019_e1_107","114.png",26,1,"NoBiasInstruction",7,1300,"Include"
"LBA2019_e1","LBA2019_e1_107","123.png",27,1,"NoBiasInstruction",7,1492,"Include"
"LBA2019_e1","LBA2019_e1_107","101.png",28,0,"NoBiasInstruction",3,4035,"Include"
"LBA2019_e1","LBA2019_e1_107","110.png",29,0,"NoBiasInstruction",7,1289,"Include"
"LBA2019_e1","LBA2019_e1_107","125.png",30,1,"NoBiasInstruction",7,1777,"Include"
"LBA2019_e1","LBA2019_e1_107","118.png",31,0,"NoBiasInstruction",3,1671,"Include"
"LBA2019_e1","LBA2019_e1_107","126.png",32,1,"NoBiasInstruction",6,1140,"Include"
"LBA2019_e1","LBA2019_e1_107","122.png",33,0,"NoBiasInstruction",1,2519,"Include"
"LBA2019_e1","LBA2019_e1_107","135.png",34,1,"NoBiasInstruction",3,2867,"Include"
"LBA2019_e1","LBA2019_e1_107","124.png",35,0,"NoBiasInstruction",3,3433,"Include"
"LBA2019_e1","LBA2019_e1_107","138.png",36,1,"NoBiasInstruction",6,1457,"Include"
"LBA2019_e1","LBA2019_e1_107","147.png",37,1,"NoBiasInstruction",3,1929,"Include"
"LBA2019_e1","LBA2019_e1_107","151.png",38,1,"NoBiasInstruction",7,1843,"Include"
"LBA2019_e1","LBA2019_e1_107","146.png",39,0,"NoBiasInstruction",2,2316,"Include"
"LBA2019_e1","LBA2019_e1_107","148.png",40,0,"NoBiasInstruction",2,1480,"Include"
"LBA2019_e1","LBA2019_e1_107","155.png",41,0,"NoBiasInstruction",6,945,"Include"
"LBA2019_e1","LBA2019_e1_107","153.png",42,1,"NoBiasInstruction",5,3882,"Include"
"LBA2019_e1","LBA2019_e1_107","159.png",43,1,"NoBiasInstruction",7,1492,"Include"
"LBA2019_e1","LBA2019_e1_107","161.png",44,1,"NoBiasInstruction",2,2898,"Include"
"LBA2019_e1","LBA2019_e1_107","160.png",45,0,"NoBiasInstruction",1,1253,"Include"
"LBA2019_e1","LBA2019_e1_107","171.png",46,0,"NoBiasInstruction",2,1644,"Include"
"LBA2019_e1","LBA2019_e1_107","172.png",47,0,"NoBiasInstruction",6,1296,"Include"
"LBA2019_e1","LBA2019_e1_107","190.png",48,0,"NoBiasInstruction",2,2949,"Include"
"LBA2019_e1","LBA2019_e1_107","164.png",49,1,"NoBiasInstruction",6,1261,"Include"
"LBA2019_e1","LBA2019_e1_107","191.png",50,0,"NoBiasInstruction",5,3015,"Include"
"LBA2019_e1","LBA2019_e1_107","166.png",51,1,"NoBiasInstruction",6,1687,"Include"
"LBA2019_e1","LBA2019_e1_107","176.png",52,1,"NoBiasInstruction",6,1281,"Include"
"LBA2019_e1","LBA2019_e1_107","178.png",53,1,"NoBiasInstruction",5,4164,"Include"
"LBA2019_e1","LBA2019_e1_107","182.png",54,1,"NoBiasInstruction",6,1109,"Include"
"LBA2019_e1","LBA2019_e1_107","194.png",55,0,"NoBiasInstruction",6,2312,"Include"
"LBA2019_e1","LBA2019_e1_107","195.png",56,0,"NoBiasInstruction",3,3128,"Include"
"LBA2019_e1","LBA2019_e1_107","196.png",57,0,"NoBiasInstruction",2,1332,"Include"
"LBA2019_e1","LBA2019_e1_107","201.png",58,0,"NoBiasInstruction",2,1609,"Include"
"LBA2019_e1","LBA2019_e1_107","202.png",59,0,"NoBiasInstruction",5,3687,"Include"
"LBA2019_e1","LBA2019_e1_107","186.png",60,1,"NoBiasInstruction",2,3707,"Include"
"LBA2019_e1","LBA2019_e1_107","188.png",61,1,"NoBiasInstruction",7,2441,"Include"
"LBA2019_e1","LBA2019_e1_107","203.png",62,0,"NoBiasInstruction",1,4164,"Include"
"LBA2019_e1","LBA2019_e1_107","199.png",63,1,"NoBiasInstruction",5,1843,"Include"
"LBA2019_e1","LBA2019_e1_107","210.png",64,0,"NoBiasInstruction",2,4914,"Include"
"LBA2019_e1","LBA2019_e1_107","211.png",65,0,"NoBiasInstruction",1,1503,"Include"
"LBA2019_e1","LBA2019_e1_107","200.png",66,1,"NoBiasInstruction",6,2175,"Include"
"LBA2019_e1","LBA2019_e1_107","204.png",67,1,"NoBiasInstruction",5,5042,"Include"
"LBA2019_e1","LBA2019_e1_107","207.png",68,1,"NoBiasInstruction",2,2968,"Include"
"LBA2019_e1","LBA2019_e1_107","212.png",69,0,"NoBiasInstruction",2,2910,"Include"
"LBA2019_e1","LBA2019_e1_107","223.png",70,0,"NoBiasInstruction",6,2703,"Include"
"LBA2019_e1","LBA2019_e1_107","215.png",71,1,"NoBiasInstruction",2,4246,"Include"
"LBA2019_e1","LBA2019_e1_107","220.png",72,1,"NoBiasInstruction",6,933,"Include"
"LBA2019_e1","LBA2019_e1_107","227.png",73,0,"NoBiasInstruction",2,3929,"Include"
"LBA2019_e1","LBA2019_e1_107","224.png",74,1,"NoBiasInstruction",7,2402,"Include"
"LBA2019_e1","LBA2019_e1_107","230.png",75,0,"NoBiasInstruction",3,4210,"Include"
"LBA2019_e1","LBA2019_e1_107","229.png",76,1,"NoBiasInstruction",5,1894,"Include"
"LBA2019_e1","LBA2019_e1_107","239.png",77,1,"NoBiasInstruction",6,1386,"Include"
"LBA2019_e1","LBA2019_e1_107","240.png",78,1,"NoBiasInstruction",7,2863,"Include"
"LBA2019_e1","LBA2019_e1_107","241.png",79,1,"NoBiasInstruction",2,2593,"Include"
"LBA2019_e1","LBA2019_e1_107","257.png",80,1,"NoBiasInstruction",7,949,"Include"
"LBA2019_e1","LBA2019_e1_107","245.png",81,0,"NoBiasInstruction",2,1289,"Include"
"LBA2019_e1","LBA2019_e1_107","246.png",82,0,"NoBiasInstruction",3,1636,"Include"
"LBA2019_e1","LBA2019_e1_107","261.png",83,1,"NoBiasInstruction",7,1085,"Include"
"LBA2019_e1","LBA2019_e1_107","248.png",84,0,"NoBiasInstruction",6,3656,"Include"
"LBA2019_e1","LBA2019_e1_107","249.png",85,0,"NoBiasInstruction",2,2027,"Include"
"LBA2019_e1","LBA2019_e1_107","267.png",86,1,"NoBiasInstruction",7,1121,"Include"
"LBA2019_e1","LBA2019_e1_107","270.png",87,1,"NoBiasInstruction",2,2828,"Include"
"LBA2019_e1","LBA2019_e1_107","284.png",88,1,"NoBiasInstruction",6,1246,"Include"
"LBA2019_e1","LBA2019_e1_107","255.png",89,0,"NoBiasInstruction",7,1632,"Include"
"LBA2019_e1","LBA2019_e1_107","285.png",90,1,"NoBiasInstruction",6,1890,"Include"
"LBA2019_e1","LBA2019_e1_107","287.png",91,1,"NoBiasInstruction",6,1925,"Include"
"LBA2019_e1","LBA2019_e1_107","262.png",92,0,"NoBiasInstruction",2,3253,"Include"
"LBA2019_e1","LBA2019_e1_107","294.png",93,1,"NoBiasInstruction",2,3425,"Include"
"LBA2019_e1","LBA2019_e1_107","296.png",94,1,"NoBiasInstruction",6,1246,"Include"
"LBA2019_e1","LBA2019_e1_107","271.png",95,0,"NoBiasInstruction",2,1917,"Include"
"LBA2019_e1","LBA2019_e1_107","297.png",96,1,"NoBiasInstruction",6,1421,"Include"
"LBA2019_e1","LBA2019_e1_107","276.png",97,0,"NoBiasInstruction",1,1113,"Include"
"LBA2019_e1","LBA2019_e1_107","278.png",98,0,"NoBiasInstruction",5,3039,"Include"
"LBA2019_e1","LBA2019_e1_107","282.png",99,0,"NoBiasInstruction",3,2000,"Include"
"LBA2019_e1","LBA2019_e1_107","283.png",100,0,"NoBiasInstruction",2,3824,"Include"
"LBA2019_e1","LBA2019_e1_108","010.png",1,1,"BiasNewInstruction",2,2234,"Include"
"LBA2019_e1","LBA2019_e1_108","002.png",2,0,"BiasNewInstruction",3,3859,"Include"
"LBA2019_e1","LBA2019_e1_108","004.png",3,0,"BiasNewInstruction",2,1632,"Include"
"LBA2019_e1","LBA2019_e1_108","005.png",4,0,"BiasNewInstruction",3,13488,"Include"
"LBA2019_e1","LBA2019_e1_108","014.png",5,1,"BiasNewInstruction",2,1261,"Include"
"LBA2019_e1","LBA2019_e1_108","025.png",6,0,"BiasNewInstruction",6,5714,"Include"
"LBA2019_e1","LBA2019_e1_108","015.png",7,1,"BiasNewInstruction",3,5640,"Include"
"LBA2019_e1","LBA2019_e1_108","027.png",8,1,"BiasNewInstruction",5,2000,"Include"
"LBA2019_e1","LBA2019_e1_108","033.png",9,1,"BiasNewInstruction",3,4386,"Include"
"LBA2019_e1","LBA2019_e1_108","035.png",10,1,"BiasNewInstruction",6,1140,"Include"
"LBA2019_e1","LBA2019_e1_108","044.png",11,0,"BiasNewInstruction",3,1042,"Include"
