"exp","id","item","trial","isold","condition1","rating","RT","excluding"
"LM2020_e1","LM2020_e1_101","MS077.png",1,1,"StimDots",7,1816,"Include"
"LM2020_e1","LM2020_e1_101","MS083.png",2,1,"StimDots",7,1109,"Include"
"LM2020_e1","LM2020_e1_101","MS107.png",3,1,"StimDots",6,1332,"Include"
"LM2020_e1","LM2020_e1_101","MS160.png",4,0,"StimDots",3,1578,"Include"
"LM2020_e1","LM2020_e1_101","MS015.png",5,1,"StimDots",7,1457,"Include"
"LM2020_e1","LM2020_e1_101","MS047.png",6,0,"StimDots",4,2632,"Include"
"LM2020_e1","LM2020_e1_101","MS059.png",7,0,"StimDots",6,1507,"Include"
"LM2020_e1","LM2020_e1_101","MS048.png",8,0,"StimDots",6,2589,"Include"
"LM2020_e1","LM2020_e1_101","MS175.png",9,0,"StimDots",1,1613,"Include"
"LM2020_e1","LM2020_e1_101","MS124.png",10,1,"StimDots",6,1246,"Include"
"LM2020_e1","LM2020_e1_101","MS156.png",11,0,"StimDots",4,2242,"Include"
"LM2020_e1","LM2020_e1_101","MS177.png",12,0,"StimDots",6,1886,"Include"
"LM2020_e1","LM2020_e1_101","MS046.png",13,0,"StimDots",1,1316,"Include"
"LM2020_e1","LM2020_e1_101","MS017.png",14,1,"StimDots",6,1984,"Include"
"LM2020_e1","LM2020_e1_101","MS135.png",15,0,"StimDots",7,1222,"Include"
"LM2020_e1","LM2020_e1_101","MS146.png",16,1,"StimDots",7,1175,"Include"
"LM2020_e1","LM2020_e1_101","MS053.png",17,0,"StimDots",1,1351,"Include"
"LM2020_e1","LM2020_e1_101","MS180.png",18,0,"StimDots",4,1511,"Include"
"LM2020_e1","LM2020_e1_101","MS018.png",19,0,"StimDots",2,2550,"Include"
"LM2020_e1","LM2020_e1_101","MS030.png",20,0,"StimDots",4,2320,"Include"
"LM2020_e1","LM2020_e1_101","MS104.png",21,0,"StimDots",6,2101,"Include"
"LM2020_e1","LM2020_e1_101","MS101.png",22,1,"StimDots",7,2726,"Include"
"LM2020_e1","LM2020_e1_101","MS040.png",23,0,"StimDots",4,1019,"Include"
"LM2020_e1","LM2020_e1_101","MS147.png",24,1,"StimDots",7,2140,"Include"
"LM2020_e1","LM2020_e1_101","MS140.png",25,1,"StimDots",1,1351,"Include"
"LM2020_e1","LM2020_e1_101","MS084.png",26,0,"StimDots",1,1335,"Include"
"LM2020_e1","LM2020_e1_101","MS144.png",27,1,"StimDots",5,1175,"Include"
"LM2020_e1","LM2020_e1_101","MS082.png",28,1,"StimDots",1,2734,"Include"
"LM2020_e1","LM2020_e1_101","MS088.png",29,1,"StimDots",2,4093,"Include"
"LM2020_e1","LM2020_e1_101","MS132.png",30,0,"StimDots",1,2871,"Include"
"LM2020_e1","LM2020_e1_101","MS054.png",31,0,"StimDots",5,2417,"Include"
"LM2020_e1","LM2020_e1_101","MS118.png",32,0,"StimDots",7,2062,"Include"
"LM2020_e1","LM2020_e1_101","MS148.png",33,1,"StimDots",6,2582,"Include"
"LM2020_e1","LM2020_e1_101","MS158.png",34,0,"StimDots",6,1324,"Include"
"LM2020_e1","LM2020_e1_101","MS094.png",35,0,"StimDots",7,2968,"Include"
"LM2020_e1","LM2020_e1_101","MS087.png",36,1,"StimDots",4,2269,"Include"
"LM2020_e1","LM2020_e1_101","MS168.png",37,0,"StimDots",1,1437,"Include"
"LM2020_e1","LM2020_e1_101","MS172.png",38,0,"StimDots",6,1675,"Include"
"LM2020_e1","LM2020_e1_101","MS056.png",39,1,"StimDots",1,1242,"Include"
"LM2020_e1","LM2020_e1_101","MS055.png",40,1,"StimDots",7,1597,"Include"
"LM2020_e1","LM2020_e1_101","MS041.png",41,1,"StimDots",7,1507,"Include"
"LM2020_e1","LM2020_e1_101","MS004.png",42,1,"StimDots",1,1433,"Include"
"LM2020_e1","LM2020_e1_101","MS038.png",43,0,"StimDots",5,3359,"Include"
"LM2020_e1","LM2020_e1_101","MS166.png",44,1,"StimDots",3,1949,"Include"
"LM2020_e1","LM2020_e1_101","MS092.png",45,1,"StimDots",1,2621,"Include"
"LM2020_e1","LM2020_e1_101","MS100.png",46,1,"StimDots",5,1472,"Include"
"LM2020_e1","LM2020_e1_101","MS145.png",47,1,"StimDots",7,1175,"Include"
"LM2020_e1","LM2020_e1_101","MS036.png",48,0,"StimDots",2,1953,"Include"
"LM2020_e1","LM2020_e1_101","MS080.png",49,0,"StimDots",7,1609,"Include"
"LM2020_e1","LM2020_e1_101","MS178.png",50,0,"StimDots",2,4000,"Include"
"LM2020_e1","LM2020_e1_101","MS020.png",51,1,"StimDots",7,1035,"Include"
"LM2020_e1","LM2020_e1_101","MS117.png",52,0,"StimDots",2,2312,"Include"
"LM2020_e1","LM2020_e1_101","MS095.png",53,1,"StimDots",3,2832,"Include"
"LM2020_e1","LM2020_e1_101","MS028.png",54,1,"StimDots",5,1785,"Include"
"LM2020_e1","LM2020_e1_101","MS063.png",55,0,"StimDots",7,2828,"Include"
"LM2020_e1","LM2020_e1_101","MS102.png",56,0,"StimDots",7,1105,"Include"
"LM2020_e1","LM2020_e1_101","MS133.png",57,1,"StimDots",6,3671,"Include"
"LM2020_e1","LM2020_e1_101","MS073.png",58,0,"StimDots",1,1320,"Include"
"LM2020_e1","LM2020_e1_101","MS013.png",59,0,"StimDots",6,1226,"Include"
"LM2020_e1","LM2020_e1_101","MS090.png",60,0,"StimDots",7,1367,"Include"
"LM2020_e1","LM2020_e1_101","MS151.png",61,0,"StimDots",7,1492,"Include"
"LM2020_e1","LM2020_e1_101","MS005.png",62,1,"StimDots",7,1773,"Include"
"LM2020_e1","LM2020_e1_101","MS130.png",63,1,"StimDots",7,1179,"Include"
"LM2020_e1","LM2020_e1_101","MS150.png",64,1,"StimDots",7,1257,"Include"
"LM2020_e1","LM2020_e1_101","MS029.png",65,1,"StimDots",7,2621,"Include"
"LM2020_e1","LM2020_e1_101","MS122.png",66,0,"StimDots",3,3195,"Include"
"LM2020_e1","LM2020_e1_101","MS129.png",67,1,"StimDots",5,1750,"Include"
"LM2020_e1","LM2020_e1_101","MS019.png",68,1,"StimDots",1,1421,"Include"
"LM2020_e1","LM2020_e1_101","MS025.png",69,1,"StimDots",5,1667,"Include"
"LM2020_e1","LM2020_e1_101","MS106.png",70,1,"StimDots",7,1738,"Include"
"LM2020_e1","LM2020_e1_101","MS113.png",71,0,"StimDots",1,1296,"Include"
"LM2020_e1","LM2020_e1_101","MS008.png",72,1,"StimDots",6,1703,"Include"
"LM2020_e1","LM2020_e1_101","MS065.png",73,0,"StimDots",1,2273,"Include"
"LM2020_e1","LM2020_e1_101","MS179.png",74,0,"StimDots",7,1105,"Include"
"LM2020_e1","LM2020_e1_101","MS068.png",75,0,"StimDots",7,1000,"Include"
"LM2020_e1","LM2020_e1_101","MS089.png",76,0,"StimDots",7,2558,"Include"
"LM2020_e1","LM2020_e1_101","MS069.png",77,1,"StimDots",2,2445,"Include"
"LM2020_e1","LM2020_e1_101","MS091.png",78,0,"StimDots",7,1140,"Include"
"LM2020_e1","LM2020_e1_101","MS112.png",79,1,"StimDots",6,1285,"Include"
"LM2020_e1","LM2020_e1_101","MS071.png",80,1,"StimDots",6,1671,"Include"
"LM2020_e1","LM2020_e1_101","MS061.png",81,0,"StimDots",7,1050,"Include"
"LM2020_e1","LM2020_e1_101","MS037.png",82,1,"StimDots",6,1246,"Include"
"LM2020_e1","LM2020_e1_101","MS012.png",83,1,"StimDots",7,1562,"Include"
"LM2020_e1","LM2020_e1_101","MS074.png",84,1,"StimDots",5,1246,"Include"
"LM2020_e1","LM2020_e1_101","MS127.png",85,0,"StimDots",6,1535,"Include"
"LM2020_e1","LM2020_e1_101","MS131.png",86,1,"StimDots",1,1222,"Include"
"LM2020_e1","LM2020_e1_101","MS070.png",87,1,"StimDots",3,2054,"Include"
"LM2020_e1","LM2020_e1_101","MS079.png",88,1,"StimDots",4,3078,"Include"
"LM2020_e1","LM2020_e1_101","MS024.png",89,1,"StimDots",6,1433,"Include"
"LM2020_e1","LM2020_e1_101","MS098.png",90,0,"StimDots",1,1824,"Include"
"LM2020_e1","LM2020_e1_101","MS039.png",91,1,"StimDots",1,2511,"Include"
"LM2020_e1","LM2020_e1_101","MS057.png",92,1,"StimDots",7,1667,"Include"
"LM2020_e1","LM2020_e1_101","MS159.png",93,0,"StimDots",7,937,"Include"
"LM2020_e1","LM2020_e1_101","MS060.png",94,1,"StimDots",6,1398,"Include"
"LM2020_e1","LM2020_e1_101","MS006.png",95,1,"StimDots",6,1292,"Include"
"LM2020_e1","LM2020_e1_101","MS134.png",96,0,"StimDots",2,2027,"Include"
"LM2020_e1","LM2020_e1_101","MS085.png",97,0,"StimDots",2,1925,"Include"
"LM2020_e1","LM2020_e1_101","MS086.png",98,0,"StimDots",6,1863,"Include"
"LM2020_e1","LM2020_e1_101","MS142.png",99,0,"StimDots",2,1855,"Include"
"LM2020_e1","LM2020_e1_101","MS072.png",100,0,"StimDots",1,1085,"Include"
"LM2020_e1","LM2020_e1_101","SWIRL008.png",1,1,"StimSwirl",2,2253,"Include"
"LM2020_e1","LM2020_e1_101","SWIRL005.png",2,0,"StimSwirl",7,2476,"Include"
"LM2020_e1","LM2020_e1_101","SWIRL017.png",3,1,"StimSwirl",6,6343,"Include"
"LM2020_e1","LM2020_e1_101","SWIRL011.png",4,0,"StimSwirl",1,2523,"Include"
"LM2020_e1","LM2020_e1_101","SWIRL023.png",5,1,"StimSwirl",2,2757,"Include"
"LM2020_e1","LM2020_e1_101","SWIRL019.png",6,0,"StimSwirl",7,2906,"Include"
"LM2020_e1","LM2020_e1_101","SWIRL020.png",7,0,"StimSwirl",4,6351,"Include"
"LM2020_e1","LM2020_e1_101","SWIRL027.png",8,1,"StimSwirl",5,5218,"Include"
"LM2020_e1","LM2020_e1_101","SWIRL033.png",9,1,"StimSwirl",7,2722,"Include"
"LM2020_e1","LM2020_e1_101","SWIRL035.png",10,1,"StimSwirl",1,4351,"Include"
"LM2020_e1","LM2020_e1_101","SWIRL026.png",11,0,"StimSwirl",6,2875,"Include"
"LM2020_e1","LM2020_e1_101","SWIRL050.png",12,0,"StimSwirl",7,2488,"Include"
"LM2020_e1","LM2020_e1_101","SWIRL052.png",13,0,"StimSwirl",6,3609,"Include"
"LM2020_e1","LM2020_e1_101","SWIRL063.png",14,0,"StimSwirl",1,3195,"Include"
"LM2020_e1","LM2020_e1_101","SWIRL065.png",15,0,"StimSwirl",4,3476,"Include"
"LM2020_e1","LM2020_e1_101","SWIRL054.png",16,1,"StimSwirl",6,4210,"Include"
"LM2020_e1","LM2020_e1_101","SWIRL068.png",17,0,"StimSwirl",7,2242,"Include"
"LM2020_e1","LM2020_e1_101","SWIRL073.png",18,0,"StimSwirl",2,2105,"Include"
"LM2020_e1","LM2020_e1_101","SWIRL056.png",19,1,"StimSwirl",2,1878,"Include"
"LM2020_e1","LM2020_e1_101","SWIRL079.png",20,0,"StimSwirl",7,5156,"Include"
"LM2020_e1","LM2020_e1_101","SWIRL084.png",21,0,"StimSwirl",2,1988,"Include"
"LM2020_e1","LM2020_e1_101","SWIRL086.png",22,0,"StimSwirl",4,3007,"Include"
"LM2020_e1","LM2020_e1_101","SWIRL088.png",23,0,"StimSwirl",5,4562,"Include"
"LM2020_e1","LM2020_e1_101","SWIRL089.png",24,0,"StimSwirl",7,4492,"Include"
"LM2020_e1","LM2020_e1_101","SWIRL064.png",25,1,"StimSwirl",7,3507,"Include"
"LM2020_e1","LM2020_e1_101","SWIRL069.png",26,1,"StimSwirl",2,3753,"Include"
"LM2020_e1","LM2020_e1_101","SWIRL090.png",27,0,"StimSwirl",6,4734,"Include"
"LM2020_e1","LM2020_e1_101","SWIRL102.png",28,0,"StimSwirl",4,3539,"Include"
"LM2020_e1","LM2020_e1_101","SWIRL075.png",29,1,"StimSwirl",4,1859,"Include"
"LM2020_e1","LM2020_e1_101","SWIRL118.png",30,0,"StimSwirl",6,1929,"Include"
"LM2020_e1","LM2020_e1_101","SWIRL092.png",31,1,"StimSwirl",6,1855,"Include"
"LM2020_e1","LM2020_e1_101","SWIRL123.png",32,0,"StimSwirl",2,3507,"Include"
"LM2020_e1","LM2020_e1_101","SWIRL129.png",33,0,"StimSwirl",7,2312,"Include"
"LM2020_e1","LM2020_e1_101","SWIRL097.png",34,1,"StimSwirl",4,2898,"Include"
"LM2020_e1","LM2020_e1_101","SWIRL138.png",35,0,"StimSwirl",4,2839,"Include"
"LM2020_e1","LM2020_e1_101","SWIRL142.png",36,0,"StimSwirl",4,2273,"Include"
"LM2020_e1","LM2020_e1_101","SWIRL109.png",37,1,"StimSwirl",6,3953,"Include"
"LM2020_e1","LM2020_e1_101","SWIRL147.png",38,0,"StimSwirl",5,1710,"Include"
"LM2020_e1","LM2020_e1_101","SWIRL149.png",39,0,"StimSwirl",7,1886,"Include"
"LM2020_e1","LM2020_e1_101","SWIRL152.png",40,0,"StimSwirl",4,7199,"Include"
"LM2020_e1","LM2020_e1_101","SWIRL153.png",41,0,"StimSwirl",6,1914,"Include"
"LM2020_e1","LM2020_e1_101","SWIRL110.png",42,1,"StimSwirl",6,1738,"Include"
"LM2020_e1","LM2020_e1_101","SWIRL114.png",43,1,"StimSwirl",6,1843,"Include"
"LM2020_e1","LM2020_e1_101","SWIRL154.png",44,0,"StimSwirl",1,3402,"Include"
"LM2020_e1","LM2020_e1_101","SWIRL141.png",45,1,"StimSwirl",1,1714,"Include"
"LM2020_e1","LM2020_e1_101","SWIRL155.png",46,0,"StimSwirl",6,4902,"Include"
"LM2020_e1","LM2020_e1_101","SWIRL163.png",47,0,"StimSwirl",6,1542,"Include"
"LM2020_e1","LM2020_e1_101","SWIRL168.png",48,0,"StimSwirl",4,2988,"Include"
"LM2020_e1","LM2020_e1_101","SWIRL148.png",49,1,"StimSwirl",4,3355,"Include"
"LM2020_e1","LM2020_e1_101","SWIRL159.png",50,1,"StimSwirl",2,1847,"Include"
"LM2020_e1","LM2020_e1_101","SWIRL161.png",51,1,"StimSwirl",2,1679,"Include"
"LM2020_e1","LM2020_e1_101","SWIRL182.png",52,0,"StimSwirl",2,2070,"Include"
"LM2020_e1","LM2020_e1_101","SWIRL166.png",53,1,"StimSwirl",6,1703,"Include"
"LM2020_e1","LM2020_e1_101","SWIRL187.png",54,0,"StimSwirl",4,2519,"Include"
"LM2020_e1","LM2020_e1_101","SWIRL191.png",55,0,"StimSwirl",3,1960,"Include"
"LM2020_e1","LM2020_e1_101","SWIRL200.png",56,0,"StimSwirl",5,1757,"Include"
"LM2020_e1","LM2020_e1_101","SWIRL167.png",57,1,"StimSwirl",7,2031,"Include"
"LM2020_e1","LM2020_e1_101","SWIRL208.png",58,0,"StimSwirl",7,1921,"Include"
"LM2020_e1","LM2020_e1_101","SWIRL172.png",59,1,"StimSwirl",1,3109,"Include"
"LM2020_e1","LM2020_e1_101","SWIRL180.png",60,1,"StimSwirl",1,2863,"Include"
"LM2020_e1","LM2020_e1_101","SWIRL185.png",61,1,"StimSwirl",1,1562,"Include"
"LM2020_e1","LM2020_e1_101","SWIRL189.png",62,1,"StimSwirl",6,1562,"Include"
"LM2020_e1","LM2020_e1_101","SWIRL213.png",63,0,"StimSwirl",6,1105,"Include"
"LM2020_e1","LM2020_e1_101","SWIRL222.png",64,0,"StimSwirl",6,3261,"Include"
"LM2020_e1","LM2020_e1_101","SWIRL224.png",65,0,"StimSwirl",6,1363,"Include"
"LM2020_e1","LM2020_e1_101","SWIRL192.png",66,1,"StimSwirl",1,2441,"Include"
"LM2020_e1","LM2020_e1_101","SWIRL197.png",67,1,"StimSwirl",1,1492,"Include"
"LM2020_e1","LM2020_e1_101","SWIRL226.png",68,0,"StimSwirl",5,3054,"Include"
"LM2020_e1","LM2020_e1_101","SWIRL236.png",69,0,"StimSwirl",5,3078,"Include"
"LM2020_e1","LM2020_e1_101","SWIRL199.png",70,1,"StimSwirl",7,1738,"Include"
"LM2020_e1","LM2020_e1_101","SWIRL209.png",71,1,"StimSwirl",1,1949,"Include"
"LM2020_e1","LM2020_e1_101","SWIRL243.png",72,0,"StimSwirl",6,3789,"Include"
"LM2020_e1","LM2020_e1_101","SWIRL246.png",73,0,"StimSwirl",2,2769,"Include"
"LM2020_e1","LM2020_e1_101","SWIRL256.png",74,0,"StimSwirl",6,1636,"Include"
"LM2020_e1","LM2020_e1_101","SWIRL211.png",75,1,"StimSwirl",7,1105,"Include"
"LM2020_e1","LM2020_e1_101","SWIRL223.png",76,1,"StimSwirl",1,1468,"Include"
"LM2020_e1","LM2020_e1_101","SWIRL261.png",77,0,"StimSwirl",2,1964,"Include"
"LM2020_e1","LM2020_e1_101","SWIRL265.png",78,0,"StimSwirl",7,1402,"Include"
"LM2020_e1","LM2020_e1_101","SWIRL225.png",79,1,"StimSwirl",3,1738,"Include"
"LM2020_e1","LM2020_e1_101","SWIRL227.png",80,1,"StimSwirl",1,3496,"Include"
"LM2020_e1","LM2020_e1_101","SWIRL235.png",81,1,"StimSwirl",6,3617,"Include"
"LM2020_e1","LM2020_e1_101","SWIRL270.png",82,0,"StimSwirl",1,2167,"Include"
"LM2020_e1","LM2020_e1_101","SWIRL240.png",83,1,"StimSwirl",7,1527,"Include"
"LM2020_e1","LM2020_e1_101","SWIRL247.png",84,1,"StimSwirl",2,1699,"Include"
"LM2020_e1","LM2020_e1_101","SWIRL271.png",85,0,"StimSwirl",2,1890,"Include"
"LM2020_e1","LM2020_e1_101","SWIRL262.png",86,1,"StimSwirl",6,1683,"Include"
"LM2020_e1","LM2020_e1_101","SWIRL272.png",87,0,"StimSwirl",2,1363,"Include"
"LM2020_e1","LM2020_e1_101","SWIRL268.png",88,1,"StimSwirl",6,1242,"Include"
"LM2020_e1","LM2020_e1_101","SWIRL275.png",89,0,"StimSwirl",5,2234,"Include"
"LM2020_e1","LM2020_e1_101","SWIRL269.png",90,1,"StimSwirl",1,1683,"Include"
"LM2020_e1","LM2020_e1_101","SWIRL273.png",91,1,"StimSwirl",6,1351,"Include"
"LM2020_e1","LM2020_e1_101","SWIRL274.png",92,1,"StimSwirl",2,1667,"Include"
"LM2020_e1","LM2020_e1_101","SWIRL282.png",93,1,"StimSwirl",5,2789,"Include"
"LM2020_e1","LM2020_e1_101","SWIRL287.png",94,1,"StimSwirl",1,1363,"Include"
"LM2020_e1","LM2020_e1_101","SWIRL290.png",95,1,"StimSwirl",6,1750,"Include"
"LM2020_e1","LM2020_e1_101","SWIRL295.png",96,1,"StimSwirl",2,3671,"Include"
"LM2020_e1","LM2020_e1_101","SWIRL296.png",97,1,"StimSwirl",2,2265,"Include"
"LM2020_e1","LM2020_e1_101","SWIRL298.png",98,1,"StimSwirl",6,2089,"Include"
"LM2020_e1","LM2020_e1_101","SWIRL299.png",99,1,"StimSwirl",7,1316,"Include"
"LM2020_e1","LM2020_e1_101","SWIRL300.png",100,1,"StimSwirl",1,1714,"Include"
"LM2020_e1","LM2020_e1_101","PROD001.png",1,1,"StimBrand",7,1570,"Include"
"LM2020_e1","LM2020_e1_101","PROD003.png",2,1,"StimBrand",7,1152,"Include"
"LM2020_e1","LM2020_e1_101","PROD002.png",3,0,"StimBrand",1,1257,"Include"
"LM2020_e1","LM2020_e1_101","PROD006.png",4,1,"StimBrand",7,1175,"Include"
"LM2020_e1","LM2020_e1_101","PROD004.png",5,0,"StimBrand",1,1546,"Include"
"LM2020_e1","LM2020_e1_101","PROD010.png",6,1,"StimBrand",7,1105,"Include"
"LM2020_e1","LM2020_e1_101","PROD018.png",7,0,"StimBrand",3,2304,"Include"
"LM2020_e1","LM2020_e1_101","PROD028.png",8,0,"StimBrand",1,1718,"Include"
"LM2020_e1","LM2020_e1_101","PROD014.png",9,1,"StimBrand",7,964,"Include"
"LM2020_e1","LM2020_e1_101","PROD032.png",10,0,"StimBrand",1,2871,"Include"
"LM2020_e1","LM2020_e1_101","PROD024.png",11,1,"StimBrand",7,1312,"Include"
"LM2020_e1","LM2020_e1_101","PROD034.png",12,0,"StimBrand",1,1148,"Include"
"LM2020_e1","LM2020_e1_101","PROD036.png",13,0,"StimBrand",1,2019,"Include"
"LM2020_e1","LM2020_e1_101","PROD025.png",14,1,"StimBrand",7,1316,"Include"
"LM2020_e1","LM2020_e1_101","PROD030.png",15,1,"StimBrand",7,1000,"Include"
"LM2020_e1","LM2020_e1_101","PROD037.png",16,0,"StimBrand",1,1074,"Include"
"LM2020_e1","LM2020_e1_101","PROD045.png",17,1,"StimBrand",7,1074,"Include"
"LM2020_e1","LM2020_e1_101","PROD043.png",18,0,"StimBrand",1,1253,"Include"
"LM2020_e1","LM2020_e1_101","PROD046.png",19,1,"StimBrand",7,1351,"Include"
"LM2020_e1","LM2020_e1_101","PROD044.png",20,0,"StimBrand",1,2003,"Include"
"LM2020_e1","LM2020_e1_101","PROD051.png",21,0,"StimBrand",1,2523,"Include"
"LM2020_e1","LM2020_e1_101","PROD066.png",22,0,"StimBrand",1,1500,"Include"
"LM2020_e1","LM2020_e1_101","PROD070.png",23,0,"StimBrand",1,1851,"Include"
"LM2020_e1","LM2020_e1_101","PROD048.png",24,1,"StimBrand",7,1000,"Include"
"LM2020_e1","LM2020_e1_101","PROD074.png",25,0,"StimBrand",1,1183,"Include"
"LM2020_e1","LM2020_e1_101","PROD077.png",26,0,"StimBrand",1,1195,"Include"
"LM2020_e1","LM2020_e1_101","PROD053.png",27,1,"StimBrand",1,2699,"Include"
"LM2020_e1","LM2020_e1_101","PROD099.png",28,0,"StimBrand",1,1648,"Include"
"LM2020_e1","LM2020_e1_101","PROD055.png",29,1,"StimBrand",7,1355,"Include"
"LM2020_e1","LM2020_e1_101","PROD100.png",30,0,"StimBrand",1,1750,"Include"
"LM2020_e1","LM2020_e1_101","PROD057.png",31,1,"StimBrand",7,1109,"Include"
"LM2020_e1","LM2020_e1_101","PROD108.png",32,0,"StimBrand",1,1550,"Include"
"LM2020_e1","LM2020_e1_101","PROD112.png",33,0,"StimBrand",2,2554,"Include"
"LM2020_e1","LM2020_e1_101","PROD058.png",34,1,"StimBrand",7,1613,"Include"
"LM2020_e1","LM2020_e1_101","PROD061.png",35,1,"StimBrand",7,1070,"Include"
"LM2020_e1","LM2020_e1_101","PROD062.png",36,1,"StimBrand",2,2722,"Include"
"LM2020_e1","LM2020_e1_101","PROD117.png",37,0,"StimBrand",1,1503,"Include"
"LM2020_e1","LM2020_e1_101","PROD122.png",38,0,"StimBrand",1,2062,"Include"
"LM2020_e1","LM2020_e1_101","PROD125.png",39,0,"StimBrand",1,2449,"Include"
"LM2020_e1","LM2020_e1_101","PROD071.png",40,1,"StimBrand",7,1281,"Include"
"LM2020_e1","LM2020_e1_101","PROD072.png",41,1,"StimBrand",7,1214,"Include"
"LM2020_e1","LM2020_e1_101","PROD132.png",42,0,"StimBrand",2,1371,"Include"
"LM2020_e1","LM2020_e1_101","PROD083.png",43,1,"StimBrand",2,2792,"Include"
"LM2020_e1","LM2020_e1_101","PROD094.png",44,1,"StimBrand",7,1171,"Include"
"LM2020_e1","LM2020_e1_101","PROD098.png",45,1,"StimBrand",7,894,"Include"
"LM2020_e1","LM2020_e1_101","PROD106.png",46,1,"StimBrand",7,976,"Include"
"LM2020_e1","LM2020_e1_101","PROD162.png",47,0,"StimBrand",1,1363,"Include"
"LM2020_e1","LM2020_e1_101","PROD170.png",48,0,"StimBrand",2,1992,"Include"
"LM2020_e1","LM2020_e1_101","PROD107.png",49,1,"StimBrand",7,2621,"Include"
"LM2020_e1","LM2020_e1_101","PROD171.png",50,0,"StimBrand",2,2488,"Include"
"LM2020_e1","LM2020_e1_101","PROD113.png",51,1,"StimBrand",7,1296,"Include"
"LM2020_e1","LM2020_e1_101","PROD176.png",52,0,"StimBrand",5,4632,"Include"
"LM2020_e1","LM2020_e1_101","PROD177.png",53,0,"StimBrand",2,2664,"Include"
"LM2020_e1","LM2020_e1_101","PROD115.png",54,1,"StimBrand",7,1000,"Include"
"LM2020_e1","LM2020_e1_101","PROD179.png",55,0,"StimBrand",2,3054,"Include"
"LM2020_e1","LM2020_e1_101","PROD120.png",56,1,"StimBrand",7,1316,"Include"
"LM2020_e1","LM2020_e1_101","PROD188.png",57,0,"StimBrand",1,1468,"Include"
"LM2020_e1","LM2020_e1_101","PROD202.png",58,0,"StimBrand",1,2031,"Include"
"LM2020_e1","LM2020_e1_101","PROD203.png",59,0,"StimBrand",2,2144,"Include"
"LM2020_e1","LM2020_e1_101","PROD229.png",60,0,"StimBrand",2,2027,"Include"
"LM2020_e1","LM2020_e1_101","PROD121.png",61,1,"StimBrand",7,1292,"Include"
"LM2020_e1","LM2020_e1_101","PROD237.png",62,0,"StimBrand",2,1574,"Include"
"LM2020_e1","LM2020_e1_101","PROD239.png",63,0,"StimBrand",1,1328,"Include"
"LM2020_e1","LM2020_e1_101","PROD241.png",64,0,"StimBrand",1,1878,"Include"
"LM2020_e1","LM2020_e1_101","PROD249.png",65,0,"StimBrand",1,1359,"Include"
"LM2020_e1","LM2020_e1_101","PROD124.png",66,1,"StimBrand",7,1179,"Include"
"LM2020_e1","LM2020_e1_101","PROD250.png",67,0,"StimBrand",1,1113,"Include"
"LM2020_e1","LM2020_e1_101","PROD254.png",68,0,"StimBrand",1,1289,"Include"
"LM2020_e1","LM2020_e1_101","PROD127.png",69,1,"StimBrand",7,1187,"Include"
"LM2020_e1","LM2020_e1_101","PROD255.png",70,0,"StimBrand",1,1050,"Include"
"LM2020_e1","LM2020_e1_101","PROD135.png",71,1,"StimBrand",7,2621,"Include"
"LM2020_e1","LM2020_e1_101","PROD260.png",72,0,"StimBrand",2,1609,"Include"
"LM2020_e1","LM2020_e1_101","PROD139.png",73,1,"StimBrand",7,933,"Include"
"LM2020_e1","LM2020_e1_101","PROD150.png",74,1,"StimBrand",7,964,"Include"
"LM2020_e1","LM2020_e1_101","PROD151.png",75,1,"StimBrand",7,1246,"Include"
"LM2020_e1","LM2020_e1_101","PROD266.png",76,0,"StimBrand",2,1222,"Include"
"LM2020_e1","LM2020_e1_101","PROD277.png",77,0,"StimBrand",2,4203,"Include"
"LM2020_e1","LM2020_e1_101","PROD160.png",78,1,"StimBrand",7,1667,"Include"
"LM2020_e1","LM2020_e1_101","PROD164.png",79,1,"StimBrand",7,1140,"Include"
"LM2020_e1","LM2020_e1_101","PROD165.png",80,1,"StimBrand",7,859,"Include"
"LM2020_e1","LM2020_e1_101","PROD173.png",81,1,"StimBrand",7,1015,"Include"
"LM2020_e1","LM2020_e1_101","PROD194.png",82,1,"StimBrand",7,1734,"Include"
"LM2020_e1","LM2020_e1_101","PROD279.png",83,0,"StimBrand",5,4207,"Include"
"LM2020_e1","LM2020_e1_101","PROD280.png",84,0,"StimBrand",2,1949,"Include"
"LM2020_e1","LM2020_e1_101","PROD195.png",85,1,"StimBrand",7,1222,"Include"
"LM2020_e1","LM2020_e1_101","PROD281.png",86,0,"StimBrand",2,1609,"Include"
"LM2020_e1","LM2020_e1_101","PROD283.png",87,0,"StimBrand",1,1398,"Include"
"LM2020_e1","LM2020_e1_101","PROD207.png",88,1,"StimBrand",7,1671,"Include"
"LM2020_e1","LM2020_e1_101","PROD216.png",89,1,"StimBrand",7,929,"Include"
"LM2020_e1","LM2020_e1_101","PROD217.png",90,1,"StimBrand",7,820,"Include"
"LM2020_e1","LM2020_e1_101","PROD218.png",91,1,"StimBrand",7,3320,"Include"
"LM2020_e1","LM2020_e1_101","PROD284.png",92,0,"StimBrand",2,1855,"Include"
"LM2020_e1","LM2020_e1_101","PROD220.png",93,1,"StimBrand",7,1105,"Include"
"LM2020_e1","LM2020_e1_101","PROD228.png",94,1,"StimBrand",7,1281,"Include"
"LM2020_e1","LM2020_e1_101","PROD230.png",95,1,"StimBrand",7,976,"Include"
"LM2020_e1","LM2020_e1_101","PROD231.png",96,1,"StimBrand",7,1453,"Include"
"LM2020_e1","LM2020_e1_101","PROD245.png",97,1,"StimBrand",7,1246,"Include"
"LM2020_e1","LM2020_e1_101","PROD252.png",98,1,"StimBrand",7,1843,"Include"
"LM2020_e1","LM2020_e1_101","PROD288.png",99,0,"StimBrand",1,1460,"Include"
"LM2020_e1","LM2020_e1_101","PROD289.png",100,0,"StimBrand",1,1472,"Include"
"LM2020_e1","LM2020_e1_101","OFF009.png",1,1,"StimOffBrand",1,1847,"Include"
"LM2020_e1","LM2020_e1_101","OFF016.png",2,1,"StimOffBrand",5,2054,"Include"
"LM2020_e1","LM2020_e1_101","OFF022.png",3,1,"StimOffBrand",5,3601,"Include"
"LM2020_e1","LM2020_e1_101","OFF007.png",4,0,"StimOffBrand",2,1503,"Include"
"LM2020_e1","LM2020_e1_101","OFF029.png",5,1,"StimOffBrand",2,2207,"Include"
"LM2020_e1","LM2020_e1_101","OFF012.png",6,0,"StimOffBrand",1,1460,"Include"
"LM2020_e1","LM2020_e1_101","OFF013.png",7,0,"StimOffBrand",1,1335,"Include"
"LM2020_e1","LM2020_e1_101","OFF015.png",8,0,"StimOffBrand",1,2312,"Include"
"LM2020_e1","LM2020_e1_101","OFF031.png",9,1,"StimOffBrand",2,1667,"Include"
"LM2020_e1","LM2020_e1_101","OFF038.png",10,1,"StimOffBrand",7,1421,"Include"
"LM2020_e1","LM2020_e1_101","OFF021.png",11,0,"StimOffBrand",1,1542,"Include"
"LM2020_e1","LM2020_e1_101","OFF040.png",12,1,"StimOffBrand",7,1960,"Include"
"LM2020_e1","LM2020_e1_101","OFF041.png",13,1,"StimOffBrand",7,1527,"Include"
"LM2020_e1","LM2020_e1_101","OFF042.png",14,1,"StimOffBrand",1,2761,"Include"
"LM2020_e1","LM2020_e1_101","OFF039.png",15,0,"StimOffBrand",1,1578,"Include"
"LM2020_e1","LM2020_e1_101","OFF047.png",16,1,"StimOffBrand",1,1785,"Include"
"LM2020_e1","LM2020_e1_101","OFF060.png",17,1,"StimOffBrand",2,1492,"Include"
"LM2020_e1","LM2020_e1_101","OFF076.png",18,1,"StimOffBrand",6,1316,"Include"
"LM2020_e1","LM2020_e1_101","OFF082.png",19,1,"StimOffBrand",7,1421,"Include"
"LM2020_e1","LM2020_e1_101","OFF091.png",20,1,"StimOffBrand",7,1382,"Include"
"LM2020_e1","LM2020_e1_101","OFF049.png",21,0,"StimOffBrand",1,1601,"Include"
"LM2020_e1","LM2020_e1_101","OFF095.png",22,1,"StimOffBrand",7,1492,"Include"
"LM2020_e1","LM2020_e1_101","OFF059.png",23,0,"StimOffBrand",1,1503,"Include"
"LM2020_e1","LM2020_e1_101","OFF067.png",24,0,"StimOffBrand",2,3011,"Include"
"LM2020_e1","LM2020_e1_101","OFF078.png",25,0,"StimOffBrand",2,1671,"Include"
"LM2020_e1","LM2020_e1_101","OFF116.png",26,1,"StimOffBrand",1,1601,"Include"
"LM2020_e1","LM2020_e1_101","OFF126.png",27,1,"StimOffBrand",2,2453,"Include"
"LM2020_e1","LM2020_e1_101","OFF130.png",28,1,"StimOffBrand",2,1820,"Include"
"LM2020_e1","LM2020_e1_101","OFF080.png",29,0,"StimOffBrand",2,1468,"Include"
"LM2020_e1","LM2020_e1_101","OFF131.png",30,1,"StimOffBrand",6,2171,"Include"
"LM2020_e1","LM2020_e1_101","OFF081.png",31,0,"StimOffBrand",6,2140,"Include"
"LM2020_e1","LM2020_e1_101","OFF133.png",32,1,"StimOffBrand",7,2914,"Include"
"LM2020_e1","LM2020_e1_101","OFF085.png",33,0,"StimOffBrand",2,1531,"Include"
"LM2020_e1","LM2020_e1_101","OFF087.png",34,0,"StimOffBrand",2,2054,"Include"
"LM2020_e1","LM2020_e1_101","OFF093.png",35,0,"StimOffBrand",2,2562,"Include"
"LM2020_e1","LM2020_e1_101","OFF136.png",36,1,"StimOffBrand",6,1574,"Include"
"LM2020_e1","LM2020_e1_101","OFF096.png",37,0,"StimOffBrand",2,1890,"Include"
"LM2020_e1","LM2020_e1_101","OFF101.png",38,0,"StimOffBrand",1,1437,"Include"
"LM2020_e1","LM2020_e1_101","OFF143.png",39,1,"StimOffBrand",1,3074,"Include"
"LM2020_e1","LM2020_e1_101","OFF103.png",40,0,"StimOffBrand",1,1699,"Include"
"LM2020_e1","LM2020_e1_101","OFF104.png",41,0,"StimOffBrand",1,1953,"Include"
"LM2020_e1","LM2020_e1_101","OFF105.png",42,0,"StimOffBrand",2,1820,"Include"
"LM2020_e1","LM2020_e1_101","OFF145.png",43,1,"StimOffBrand",7,1632,"Include"
"LM2020_e1","LM2020_e1_101","OFF146.png",44,1,"StimOffBrand",7,1542,"Include"
"LM2020_e1","LM2020_e1_101","OFF111.png",45,0,"StimOffBrand",2,1933,"Include"
"LM2020_e1","LM2020_e1_101","OFF169.png",46,1,"StimOffBrand",7,1117,"Include"
"LM2020_e1","LM2020_e1_101","OFF174.png",47,1,"StimOffBrand",7,1703,"Include"
"LM2020_e1","LM2020_e1_101","OFF119.png",48,0,"StimOffBrand",1,1332,"Include"
"LM2020_e1","LM2020_e1_101","OFF175.png",49,1,"StimOffBrand",2,1531,"Include"
"LM2020_e1","LM2020_e1_101","OFF178.png",50,1,"StimOffBrand",7,1582,"Include"
"LM2020_e1","LM2020_e1_101","OFF183.png",51,1,"StimOffBrand",2,1527,"Include"
"LM2020_e1","LM2020_e1_101","OFF128.png",52,0,"StimOffBrand",1,2207,"Include"
"LM2020_e1","LM2020_e1_101","OFF134.png",53,0,"StimOffBrand",1,1281,"Include"
"LM2020_e1","LM2020_e1_101","OFF198.png",54,1,"StimOffBrand",2,1468,"Include"
"LM2020_e1","LM2020_e1_101","OFF204.png",55,1,"StimOffBrand",7,1460,"Include"
"LM2020_e1","LM2020_e1_101","OFF137.png",56,0,"StimOffBrand",1,1921,"Include"
"LM2020_e1","LM2020_e1_101","OFF214.png",57,1,"StimOffBrand",7,1070,"Include"
"LM2020_e1","LM2020_e1_101","OFF233.png",58,1,"StimOffBrand",7,1492,"Include"
"LM2020_e1","LM2020_e1_101","OFF140.png",59,0,"StimOffBrand",2,1671,"Include"
"LM2020_e1","LM2020_e1_101","OFF234.png",60,1,"StimOffBrand",7,1101,"Include"
"LM2020_e1","LM2020_e1_101","OFF242.png",61,1,"StimOffBrand",2,2457,"Include"
"LM2020_e1","LM2020_e1_101","OFF244.png",62,1,"StimOffBrand",1,1492,"Include"
"LM2020_e1","LM2020_e1_101","OFF144.png",63,0,"StimOffBrand",1,2339,"Include"
"LM2020_e1","LM2020_e1_101","OFF258.png",64,1,"StimOffBrand",1,1613,"Include"
"LM2020_e1","LM2020_e1_101","OFF259.png",65,1,"StimOffBrand",1,980,"Include"
"LM2020_e1","LM2020_e1_101","OFF156.png",66,0,"StimOffBrand",1,1441,"Include"
"LM2020_e1","LM2020_e1_101","OFF263.png",67,1,"StimOffBrand",7,1468,"Include"
"LM2020_e1","LM2020_e1_101","OFF157.png",68,0,"StimOffBrand",1,1179,"Include"
"LM2020_e1","LM2020_e1_101","OFF264.png",69,1,"StimOffBrand",6,2281,"Include"
"LM2020_e1","LM2020_e1_101","OFF158.png",70,0,"StimOffBrand",1,1964,"Include"
"LM2020_e1","LM2020_e1_101","OFF181.png",71,0,"StimOffBrand",1,2160,"Include"
"LM2020_e1","LM2020_e1_101","OFF267.png",72,1,"StimOffBrand",1,2031,"Include"
"LM2020_e1","LM2020_e1_101","OFF184.png",73,0,"StimOffBrand",1,1890,"Include"
"LM2020_e1","LM2020_e1_101","OFF276.png",74,1,"StimOffBrand",7,1679,"Include"
"LM2020_e1","LM2020_e1_101","OFF186.png",75,0,"StimOffBrand",2,2105,"Include"
"LM2020_e1","LM2020_e1_101","OFF190.png",76,0,"StimOffBrand",2,1191,"Include"
"LM2020_e1","LM2020_e1_101","OFF193.png",77,0,"StimOffBrand",2,2847,"Include"
"LM2020_e1","LM2020_e1_101","OFF278.png",78,1,"StimOffBrand",2,1503,"Include"
"LM2020_e1","LM2020_e1_101","OFF196.png",79,0,"StimOffBrand",2,1433,"Include"
"LM2020_e1","LM2020_e1_101","OFF201.png",80,0,"StimOffBrand",2,1257,"Include"
"LM2020_e1","LM2020_e1_101","OFF285.png",81,1,"StimOffBrand",1,1632,"Include"
"LM2020_e1","LM2020_e1_101","OFF205.png",82,0,"StimOffBrand",1,1917,"Include"
"LM2020_e1","LM2020_e1_101","OFF286.png",83,1,"StimOffBrand",2,1847,"Include"
"LM2020_e1","LM2020_e1_101","OFF206.png",84,0,"StimOffBrand",1,1359,"Include"
"LM2020_e1","LM2020_e1_101","OFF210.png",85,0,"StimOffBrand",2,1710,"Include"
"LM2020_e1","LM2020_e1_101","OFF291.png",86,1,"StimOffBrand",2,1738,"Include"
"LM2020_e1","LM2020_e1_101","OFF292.png",87,1,"StimOffBrand",1,1667,"Include"
"LM2020_e1","LM2020_e1_101","OFF212.png",88,0,"StimOffBrand",1,1640,"Include"
"LM2020_e1","LM2020_e1_101","OFF293.png",89,1,"StimOffBrand",7,1878,"Include"
"LM2020_e1","LM2020_e1_101","OFF215.png",90,0,"StimOffBrand",2,1671,"Include"
"LM2020_e1","LM2020_e1_101","OFF294.png",91,1,"StimOffBrand",1,2195,"Include"
"LM2020_e1","LM2020_e1_101","OFF297.png",92,1,"StimOffBrand",7,2101,"Include"
"LM2020_e1","LM2020_e1_101","OFF219.png",93,0,"StimOffBrand",1,2589,"Include"
"LM2020_e1","LM2020_e1_101","OFF221.png",94,0,"StimOffBrand",1,1882,"Include"
"LM2020_e1","LM2020_e1_101","OFF232.png",95,0,"StimOffBrand",1,1019,"Include"
"LM2020_e1","LM2020_e1_101","OFF238.png",96,0,"StimOffBrand",1,1292,"Include"
"LM2020_e1","LM2020_e1_101","OFF248.png",97,0,"StimOffBrand",1,1296,"Include"
"LM2020_e1","LM2020_e1_101","OFF251.png",98,0,"StimOffBrand",2,1082,"Include"
"LM2020_e1","LM2020_e1_101","OFF253.png",99,0,"StimOffBrand",2,1406,"Include"
"LM2020_e1","LM2020_e1_101","OFF257.png",100,0,"StimOffBrand",1,1363,"Include"
"LM2020_e1","LM2020_e1_104","MS159.png",1,0,"StimDots",2,5367,"Include"
"LM2020_e1","LM2020_e1_104","MS099.png",2,0,"StimDots",2,1406,"Include"
"LM2020_e1","LM2020_e1_104","MS030.png",3,1,"StimDots",1,1527,"Include"
"LM2020_e1","LM2020_e1_104","MS142.png",4,1,"StimDots",3,2511,"Include"
"LM2020_e1","LM2020_e1_104","MS086.png",5,1,"StimDots",6,1820,"Include"
"LM2020_e1","LM2020_e1_104","MS055.png",6,0,"StimDots",2,1960,"Include"
"LM2020_e1","LM2020_e1_104","MS041.png",7,0,"StimDots",2,2265,"Include"
"LM2020_e1","LM2020_e1_104","MS070.png",8,1,"StimDots",6,1433,"Include"
"LM2020_e1","LM2020_e1_104","MS107.png",9,1,"StimDots",3,1632,"Include"
"LM2020_e1","LM2020_e1_104","MS016.png",10,1,"StimDots",1,1597,"Include"
"LM2020_e1","LM2020_e1_104","MS115.png",11,0,"StimDots",2,1679,"Include"
"LM2020_e1","LM2020_e1_104","MS164.png",12,1,"StimDots",2,1890,"Include"
"LM2020_e1","LM2020_e1_104","MS007.png",13,1,"StimDots",3,2734,"Include"
"LM2020_e1","LM2020_e1_104","MS153.png",14,1,"StimDots",4,6273,"Include"
"LM2020_e1","LM2020_e1_104","MS021.png",15,0,"StimDots",4,2757,"Include"
"LM2020_e1","LM2020_e1_104","MS032.png",16,1,"StimDots",3,6636,"Include"
"LM2020_e1","LM2020_e1_104","MS078.png",17,0,"StimDots",2,1507,"Include"
"LM2020_e1","LM2020_e1_104","MS033.png",18,1,"StimDots",5,2121,"Include"
"LM2020_e1","LM2020_e1_104","MS162.png",19,0,"StimDots",3,1042,"Include"
"LM2020_e1","LM2020_e1_104","MS156.png",20,1,"StimDots",2,1398,"Include"
"LM2020_e1","LM2020_e1_104","MS029.png",21,0,"StimDots",4,2980,"Include"
"LM2020_e1","LM2020_e1_104","MS045.png",22,1,"StimDots",4,1820,"Include"
"LM2020_e1","LM2020_e1_104","MS082.png",23,0,"StimDots",2,3601,"Include"
"LM2020_e1","LM2020_e1_104","MS132.png",24,1,"StimDots",6,1457,"Include"
"LM2020_e1","LM2020_e1_104","MS002.png",25,0,"StimDots",5,3496,"Include"
"LM2020_e1","LM2020_e1_104","MS059.png",26,1,"StimDots",6,2578,"Include"
"LM2020_e1","LM2020_e1_104","MS038.png",27,0,"StimDots",4,1843,"Include"
"LM2020_e1","LM2020_e1_104","MS001.png",28,1,"StimDots",2,1492,"Include"
"LM2020_e1","LM2020_e1_104","MS126.png",29,1,"StimDots",2,1562,"Include"
"LM2020_e1","LM2020_e1_104","MS093.png",30,1,"StimDots",3,3964,"Include"
"LM2020_e1","LM2020_e1_104","MS044.png",31,1,"StimDots",2,1808,"Include"
"LM2020_e1","LM2020_e1_104","MS122.png",32,0,"StimDots",6,1246,"Include"
"LM2020_e1","LM2020_e1_104","MS009.png",33,0,"StimDots",4,2527,"Include"
"LM2020_e1","LM2020_e1_104","MS140.png",34,0,"StimDots",2,1773,"Include"
"LM2020_e1","LM2020_e1_104","MS017.png",35,0,"StimDots",5,1195,"Include"
"LM2020_e1","LM2020_e1_104","MS109.png",36,0,"StimDots",2,1949,"Include"
"LM2020_e1","LM2020_e1_104","MS172.png",37,1,"StimDots",4,1386,"Include"
"LM2020_e1","LM2020_e1_104","MS110.png",38,0,"StimDots",6,5324,"Include"
"LM2020_e1","LM2020_e1_104","MS134.png",39,0,"StimDots",6,2546,"Include"
"LM2020_e1","LM2020_e1_104","MS079.png",40,0,"StimDots",7,6625,"Include"
"LM2020_e1","LM2020_e1_104","MS008.png",41,0,"StimDots",6,1734,"Include"
"LM2020_e1","LM2020_e1_104","MS094.png",42,1,"StimDots",3,1949,"Include"
"LM2020_e1","LM2020_e1_104","MS040.png",43,1,"StimDots",4,976,"Include"
"LM2020_e1","LM2020_e1_104","MS037.png",44,0,"StimDots",7,1105,"Include"
"LM2020_e1","LM2020_e1_104","MS090.png",45,0,"StimDots",3,1105,"Include"
"LM2020_e1","LM2020_e1_104","MS066.png",46,0,"StimDots",6,2027,"Include"
"LM2020_e1","LM2020_e1_104","MS154.png",47,1,"StimDots",4,1839,"Include"
"LM2020_e1","LM2020_e1_104","MS174.png",48,0,"StimDots",6,1421,"Include"
"LM2020_e1","LM2020_e1_104","MS148.png",49,1,"StimDots",5,1105,"Include"
"LM2020_e1","LM2020_e1_104","MS114.png",50,1,"StimDots",2,1046,"Include"
"LM2020_e1","LM2020_e1_104","MS179.png",51,0,"StimDots",6,1050,"Include"
"LM2020_e1","LM2020_e1_104","MS067.png",52,0,"StimDots",3,1109,"Include"
"LM2020_e1","LM2020_e1_104","MS127.png",53,0,"StimDots",5,3812,"Include"
"LM2020_e1","LM2020_e1_104","MS042.png",54,1,"StimDots",6,1472,"Include"
"LM2020_e1","LM2020_e1_104","MS028.png",55,0,"StimDots",7,1734,"Include"
"LM2020_e1","LM2020_e1_104","MS133.png",56,1,"StimDots",4,6519,"Include"
"LM2020_e1","LM2020_e1_104","MS152.png",57,1,"StimDots",6,2441,"Include"
"LM2020_e1","LM2020_e1_104","MS119.png",58,1,"StimDots",1,4316,"Include"
"LM2020_e1","LM2020_e1_104","MS012.png",59,1,"StimDots",5,1257,"Include"
"LM2020_e1","LM2020_e1_104","MS089.png",60,1,"StimDots",3,2125,"Include"
"LM2020_e1","LM2020_e1_104","MS011.png",61,1,"StimDots",7,2054,"Include"
"LM2020_e1","LM2020_e1_104","MS024.png",62,1,"StimDots",6,6523,"Include"
"LM2020_e1","LM2020_e1_104","MS081.png",63,1,"StimDots",5,1386,"Include"
"LM2020_e1","LM2020_e1_104","MS013.png",64,0,"StimDots",4,1468,"Include"
"LM2020_e1","LM2020_e1_104","MS003.png",65,1,"StimDots",6,3949,"Include"
"LM2020_e1","LM2020_e1_104","MS100.png",66,1,"StimDots",7,3738,"Include"
"LM2020_e1","LM2020_e1_104","MS149.png",67,1,"StimDots",4,2261,"Include"
"LM2020_e1","LM2020_e1_104","MS056.png",68,0,"StimDots",6,1578,"Include"
"LM2020_e1","LM2020_e1_104","MS077.png",69,0,"StimDots",4,2804,"Include"
"LM2020_e1","LM2020_e1_104","MS063.png",70,0,"StimDots",6,2199,"Include"
"LM2020_e1","LM2020_e1_104","MS095.png",71,1,"StimDots",7,1175,"Include"
"LM2020_e1","LM2020_e1_104","MS131.png",72,0,"StimDots",4,2664,"Include"
"LM2020_e1","LM2020_e1_104","MS173.png",73,1,"StimDots",2,2406,"Include"
"LM2020_e1","LM2020_e1_104","MS076.png",74,0,"StimDots",6,996,"Include"
"LM2020_e1","LM2020_e1_104","MS027.png",75,0,"StimDots",4,3785,"Include"
"LM2020_e1","LM2020_e1_104","MS138.png",76,1,"StimDots",3,2066,"Include"
"LM2020_e1","LM2020_e1_104","MS120.png",77,0,"StimDots",7,1035,"Include"
"LM2020_e1","LM2020_e1_104","MS053.png",78,1,"StimDots",6,1351,"Include"
"LM2020_e1","LM2020_e1_104","MS054.png",79,0,"StimDots",5,1261,"Include"
"LM2020_e1","LM2020_e1_104","MS165.png",80,0,"StimDots",7,1152,"Include"
"LM2020_e1","LM2020_e1_104","MS047.png",81,1,"StimDots",7,5742,"Include"
"LM2020_e1","LM2020_e1_104","MS145.png",82,1,"StimDots",2,3003,"Include"
"LM2020_e1","LM2020_e1_104","MS124.png",83,0,"StimDots",7,1542,"Include"
"LM2020_e1","LM2020_e1_104","MS157.png",84,0,"StimDots",3,3761,"Include"
"LM2020_e1","LM2020_e1_104","MS139.png",85,0,"StimDots",1,1175,"Include"
"LM2020_e1","LM2020_e1_104","MS116.png",86,0,"StimDots",4,2898,"Include"
"LM2020_e1","LM2020_e1_104","MS071.png",87,1,"StimDots",6,1351,"Include"
"LM2020_e1","LM2020_e1_104","MS069.png",88,0,"StimDots",7,875,"Include"
"LM2020_e1","LM2020_e1_104","MS155.png",89,0,"StimDots",6,1117,"Include"
"LM2020_e1","LM2020_e1_104","MS168.png",90,1,"StimDots",2,1839,"Include"
"LM2020_e1","LM2020_e1_104","MS068.png",91,1,"StimDots",6,863,"Include"
"LM2020_e1","LM2020_e1_104","MS130.png",92,0,"StimDots",5,1457,"Include"
"LM2020_e1","LM2020_e1_104","MS123.png",93,0,"StimDots",6,4597,"Include"
"LM2020_e1","LM2020_e1_104","MS065.png",94,0,"StimDots",4,1007,"Include"
"LM2020_e1","LM2020_e1_104","MS051.png",95,1,"StimDots",5,1046,"Include"
"LM2020_e1","LM2020_e1_104","MS039.png",96,0,"StimDots",2,1722,"Include"
"LM2020_e1","LM2020_e1_104","MS022.png",97,1,"StimDots",2,2476,"Include"
"LM2020_e1","LM2020_e1_104","MS046.png",98,0,"StimDots",1,1355,"Include"
"LM2020_e1","LM2020_e1_104","MS062.png",99,1,"StimDots",2,3777,"Include"
"LM2020_e1","LM2020_e1_104","MS035.png",100,1,"StimDots",1,1468,"Include"
"LM2020_e1","LM2020_e1_104","SWIRL008.png",1,1,"StimSwirl",2,5683,"Include"
"LM2020_e1","LM2020_e1_104","SWIRL002.png",2,0,"StimSwirl",3,3777,"Include"
"LM2020_e1","LM2020_e1_104","SWIRL004.png",3,0,"StimSwirl",7,3882,"Include"
"LM2020_e1","LM2020_e1_104","SWIRL015.png",4,0,"StimSwirl",1,2207,"Include"
"LM2020_e1","LM2020_e1_104","SWIRL012.png",5,1,"StimSwirl",7,1679,"Include"
"LM2020_e1","LM2020_e1_104","SWIRL013.png",6,1,"StimSwirl",2,4832,"Include"
"LM2020_e1","LM2020_e1_104","SWIRL014.png",7,1,"StimSwirl",4,27753,"Include"
"LM2020_e1","LM2020_e1_104","SWIRL017.png",8,0,"StimSwirl",3,3156,"Include"
"LM2020_e1","LM2020_e1_104","SWIRL016.png",9,1,"StimSwirl",2,4039,"Include"
"LM2020_e1","LM2020_e1_104","SWIRL019.png",10,0,"StimSwirl",1,2382,"Include"
"LM2020_e1","LM2020_e1_104","SWIRL023.png",11,0,"StimSwirl",2,3605,"Include"
"LM2020_e1","LM2020_e1_104","SWIRL018.png",12,1,"StimSwirl",6,2402,"Include"
"LM2020_e1","LM2020_e1_104","SWIRL020.png",13,1,"StimSwirl",7,2421,"Include"
"LM2020_e1","LM2020_e1_104","SWIRL029.png",14,1,"StimSwirl",7,5117,"Include"
"LM2020_e1","LM2020_e1_104","SWIRL039.png",15,1,"StimSwirl",1,2734,"Include"
"LM2020_e1","LM2020_e1_104","SWIRL045.png",16,1,"StimSwirl",4,3320,"Include"
"LM2020_e1","LM2020_e1_104","SWIRL051.png",17,1,"StimSwirl",3,4914,"Include"
"LM2020_e1","LM2020_e1_104","SWIRL064.png",18,1,"StimSwirl",7,1453,"Include"
"LM2020_e1","LM2020_e1_104","SWIRL075.png",19,1,"StimSwirl",1,3882,"Include"
"LM2020_e1","LM2020_e1_104","SWIRL081.png",20,1,"StimSwirl",2,4210,"Include"
"LM2020_e1","LM2020_e1_104","SWIRL024.png",21,0,"StimSwirl",4,3507,"Include"
"LM2020_e1","LM2020_e1_104","SWIRL082.png",22,1,"StimSwirl",2,7750,"Include"
"LM2020_e1","LM2020_e1_104","SWIRL026.png",23,0,"StimSwirl",2,4316,"Include"
"LM2020_e1","LM2020_e1_104","SWIRL038.png",24,0,"StimSwirl",3,2246,"Include"
"LM2020_e1","LM2020_e1_104","SWIRL084.png",25,1,"StimSwirl",5,6480,"Include"
"LM2020_e1","LM2020_e1_104","SWIRL058.png",26,0,"StimSwirl",2,3503,"Include"
"LM2020_e1","LM2020_e1_104","SWIRL103.png",27,1,"StimSwirl",4,2734,"Include"
"LM2020_e1","LM2020_e1_104","SWIRL108.png",28,1,"StimSwirl",3,4023,"Include"
"LM2020_e1","LM2020_e1_104","SWIRL072.png",29,0,"StimSwirl",1,3671,"Include"
"LM2020_e1","LM2020_e1_104","SWIRL080.png",30,0,"StimSwirl",3,3820,"Include"
"LM2020_e1","LM2020_e1_104","SWIRL139.png",31,1,"StimSwirl",7,1703,"Include"
"LM2020_e1","LM2020_e1_104","SWIRL088.png",32,0,"StimSwirl",4,2562,"Include"
"LM2020_e1","LM2020_e1_104","SWIRL140.png",33,1,"StimSwirl",3,5566,"Include"
"LM2020_e1","LM2020_e1_104","SWIRL143.png",34,1,"StimSwirl",6,3460,"Include"
"LM2020_e1","LM2020_e1_104","SWIRL145.png",35,1,"StimSwirl",4,2652,"Include"
"LM2020_e1","LM2020_e1_104","SWIRL146.png",36,1,"StimSwirl",2,2054,"Include"
"LM2020_e1","LM2020_e1_104","SWIRL089.png",37,0,"StimSwirl",2,3050,"Include"
"LM2020_e1","LM2020_e1_104","SWIRL090.png",38,0,"StimSwirl",1,2417,"Include"
"LM2020_e1","LM2020_e1_104","SWIRL092.png",39,0,"StimSwirl",6,1996,"Include"
"LM2020_e1","LM2020_e1_104","SWIRL148.png",40,1,"StimSwirl",3,1820,"Include"
"LM2020_e1","LM2020_e1_104","SWIRL157.png",41,1,"StimSwirl",6,1699,"Include"
"LM2020_e1","LM2020_e1_104","SWIRL167.png",42,1,"StimSwirl",4,1316,"Include"
"LM2020_e1","LM2020_e1_104","SWIRL094.png",43,0,"StimSwirl",4,4816,"Include"
"LM2020_e1","LM2020_e1_104","SWIRL170.png",44,1,"StimSwirl",7,2652,"Include"
"LM2020_e1","LM2020_e1_104","SWIRL171.png",45,1,"StimSwirl",7,1312,"Include"
"LM2020_e1","LM2020_e1_104","SWIRL172.png",46,1,"StimSwirl",7,1773,"Include"
"LM2020_e1","LM2020_e1_104","SWIRL181.png",47,1,"StimSwirl",7,1964,"Include"
"LM2020_e1","LM2020_e1_104","SWIRL190.png",48,1,"StimSwirl",7,980,"Include"
"LM2020_e1","LM2020_e1_104","SWIRL191.png",49,1,"StimSwirl",6,2351,"Include"
"LM2020_e1","LM2020_e1_104","SWIRL194.png",50,1,"StimSwirl",5,2863,"Include"
"LM2020_e1","LM2020_e1_104","SWIRL095.png",51,0,"StimSwirl",6,2171,"Include"
"LM2020_e1","LM2020_e1_104","SWIRL096.png",52,0,"StimSwirl",3,2070,"Include"
"LM2020_e1","LM2020_e1_104","SWIRL111.png",53,0,"StimSwirl",6,2031,"Include"
"LM2020_e1","LM2020_e1_104","SWIRL201.png",54,1,"StimSwirl",4,1679,"Include"
"LM2020_e1","LM2020_e1_104","SWIRL112.png",55,0,"StimSwirl",5,2406,"Include"
"LM2020_e1","LM2020_e1_104","SWIRL119.png",56,0,"StimSwirl",7,1636,"Include"
"LM2020_e1","LM2020_e1_104","SWIRL127.png",57,0,"StimSwirl",6,2265,"Include"
"LM2020_e1","LM2020_e1_104","SWIRL202.png",58,1,"StimSwirl",7,1386,"Include"
"LM2020_e1","LM2020_e1_104","SWIRL134.png",59,0,"StimSwirl",4,4421,"Include"
"LM2020_e1","LM2020_e1_104","SWIRL212.png",60,1,"StimSwirl",6,5355,"Include"
"LM2020_e1","LM2020_e1_104","SWIRL223.png",61,1,"StimSwirl",5,6414,"Include"
"LM2020_e1","LM2020_e1_104","SWIRL226.png",62,1,"StimSwirl",6,3496,"Include"
"LM2020_e1","LM2020_e1_104","SWIRL227.png",63,1,"StimSwirl",7,3351,"Include"
"LM2020_e1","LM2020_e1_104","SWIRL144.png",64,0,"StimSwirl",6,1511,"Include"
"LM2020_e1","LM2020_e1_104","SWIRL152.png",65,0,"StimSwirl",7,1257,"Include"
"LM2020_e1","LM2020_e1_104","SWIRL154.png",66,0,"StimSwirl",6,2835,"Include"
"LM2020_e1","LM2020_e1_104","SWIRL228.png",67,1,"StimSwirl",5,2105,"Include"
"LM2020_e1","LM2020_e1_104","SWIRL242.png",68,1,"StimSwirl",6,2542,"Include"
"LM2020_e1","LM2020_e1_104","SWIRL156.png",69,0,"StimSwirl",1,3636,"Include"
"LM2020_e1","LM2020_e1_104","SWIRL162.png",70,0,"StimSwirl",2,2527,"Include"
"LM2020_e1","LM2020_e1_104","SWIRL177.png",71,0,"StimSwirl",4,3425,"Include"
"LM2020_e1","LM2020_e1_104","SWIRL183.png",72,0,"StimSwirl",3,2406,"Include"
"LM2020_e1","LM2020_e1_104","SWIRL187.png",73,0,"StimSwirl",5,4316,"Include"
"LM2020_e1","LM2020_e1_104","SWIRL248.png",74,1,"StimSwirl",7,2171,"Include"
"LM2020_e1","LM2020_e1_104","SWIRL198.png",75,0,"StimSwirl",2,6625,"Include"
"LM2020_e1","LM2020_e1_104","SWIRL214.png",76,0,"StimSwirl",4,2843,"Include"
"LM2020_e1","LM2020_e1_104","SWIRL249.png",77,1,"StimSwirl",7,1316,"Include"
"LM2020_e1","LM2020_e1_104","SWIRL250.png",78,1,"StimSwirl",3,3335,"Include"
"LM2020_e1","LM2020_e1_104","SWIRL257.png",79,1,"StimSwirl",7,1210,"Include"
"LM2020_e1","LM2020_e1_104","SWIRL222.png",80,0,"StimSwirl",6,3968,"Include"
"LM2020_e1","LM2020_e1_104","SWIRL225.png",81,0,"StimSwirl",2,7234,"Include"
"LM2020_e1","LM2020_e1_104","SWIRL231.png",82,0,"StimSwirl",1,2238,"Include"
"LM2020_e1","LM2020_e1_104","SWIRL243.png",83,0,"StimSwirl",2,2449,"Include"
"LM2020_e1","LM2020_e1_104","SWIRL254.png",84,0,"StimSwirl",5,3121,"Include"
"LM2020_e1","LM2020_e1_104","SWIRL260.png",85,1,"StimSwirl",7,1222,"Include"
"LM2020_e1","LM2020_e1_104","SWIRL264.png",86,1,"StimSwirl",7,1984,"Include"
"LM2020_e1","LM2020_e1_104","SWIRL267.png",87,1,"StimSwirl",5,2195,"Include"
"LM2020_e1","LM2020_e1_104","SWIRL263.png",88,0,"StimSwirl",2,3863,"Include"
"LM2020_e1","LM2020_e1_104","SWIRL266.png",89,0,"StimSwirl",7,2687,"Include"
"LM2020_e1","LM2020_e1_104","SWIRL275.png",90,1,"StimSwirl",4,4761,"Include"
"LM2020_e1","LM2020_e1_104","SWIRL282.png",91,1,"StimSwirl",4,2160,"Include"
"LM2020_e1","LM2020_e1_104","SWIRL268.png",92,0,"StimSwirl",7,3472,"Include"
"LM2020_e1","LM2020_e1_104","SWIRL269.png",93,0,"StimSwirl",3,5656,"Include"
"LM2020_e1","LM2020_e1_104","SWIRL270.png",94,0,"StimSwirl",2,3617,"Include"
"LM2020_e1","LM2020_e1_104","SWIRL271.png",95,0,"StimSwirl",7,1394,"Include"
"LM2020_e1","LM2020_e1_104","SWIRL273.png",96,0,"StimSwirl",6,1351,"Include"
"LM2020_e1","LM2020_e1_104","SWIRL274.png",97,0,"StimSwirl",2,2343,"Include"
"LM2020_e1","LM2020_e1_104","SWIRL281.png",98,0,"StimSwirl",6,2019,"Include"
"LM2020_e1","LM2020_e1_104","SWIRL286.png",99,0,"StimSwirl",5,2371,"Include"
"LM2020_e1","LM2020_e1_104","SWIRL288.png",100,0,"StimSwirl",3,3050,"Include"
"LM2020_e1","LM2020_e1_104","PROD006.png",1,1,"StimBrand",7,1886,"Include"
"LM2020_e1","LM2020_e1_104","PROD007.png",2,0,"StimBrand",1,1808,"Include"
"LM2020_e1","LM2020_e1_104","PROD009.png",3,0,"StimBrand",1,3359,"Include"
"LM2020_e1","LM2020_e1_104","PROD033.png",4,1,"StimBrand",7,730,"Include"
"LM2020_e1","LM2020_e1_104","PROD010.png",5,0,"StimBrand",2,1187,"Include"
"LM2020_e1","LM2020_e1_104","PROD035.png",6,1,"StimBrand",7,1421,"Include"
"LM2020_e1","LM2020_e1_104","PROD036.png",7,1,"StimBrand",7,1281,"Include"
"LM2020_e1","LM2020_e1_104","PROD047.png",8,1,"StimBrand",7,859,"Include"
"LM2020_e1","LM2020_e1_104","PROD056.png",9,1,"StimBrand",7,1210,"Include"
"LM2020_e1","LM2020_e1_104","PROD011.png",10,0,"StimBrand",2,1503,"Include"
"LM2020_e1","LM2020_e1_104","PROD057.png",11,1,"StimBrand",7,894,"Include"
"LM2020_e1","LM2020_e1_104","PROD062.png",12,1,"StimBrand",7,789,"Include"
"LM2020_e1","LM2020_e1_104","PROD063.png",13,1,"StimBrand",7,4234,"Include"
"LM2020_e1","LM2020_e1_104","PROD067.png",14,1,"StimBrand",7,3421,"Include"
"LM2020_e1","LM2020_e1_104","PROD074.png",15,1,"StimBrand",7,1175,"Include"
"LM2020_e1","LM2020_e1_104","PROD025.png",16,0,"StimBrand",7,1492,"Include"
"LM2020_e1","LM2020_e1_104","PROD028.png",17,0,"StimBrand",7,1644,"Include"
"LM2020_e1","LM2020_e1_104","PROD091.png",18,1,"StimBrand",7,734,"Include"
"LM2020_e1","LM2020_e1_104","PROD099.png",19,1,"StimBrand",7,1121,"Include"
"LM2020_e1","LM2020_e1_104","PROD102.png",20,1,"StimBrand",7,824,"Include"
"LM2020_e1","LM2020_e1_104","PROD109.png",21,1,"StimBrand",7,824,"Include"
"LM2020_e1","LM2020_e1_104","PROD117.png",22,1,"StimBrand",7,835,"Include"
"LM2020_e1","LM2020_e1_104","PROD032.png",23,0,"StimBrand",2,1605,"Include"
"LM2020_e1","LM2020_e1_104","PROD120.png",24,1,"StimBrand",7,933,"Include"
"LM2020_e1","LM2020_e1_104","PROD129.png",25,1,"StimBrand",7,828,"Include"
"LM2020_e1","LM2020_e1_104","PROD131.png",26,1,"StimBrand",7,960,"Include"
"LM2020_e1","LM2020_e1_104","PROD136.png",27,1,"StimBrand",7,1039,"Include"
"LM2020_e1","LM2020_e1_104","PROD037.png",28,0,"StimBrand",1,2054,"Include"
"LM2020_e1","LM2020_e1_104","PROD041.png",29,0,"StimBrand",2,1855,"Include"
"LM2020_e1","LM2020_e1_104","PROD043.png",30,0,"StimBrand",2,1148,"Include"
"LM2020_e1","LM2020_e1_104","PROD046.png",31,0,"StimBrand",1,1152,"Include"
"LM2020_e1","LM2020_e1_104","PROD049.png",32,0,"StimBrand",1,1000,"Include"
"LM2020_e1","LM2020_e1_104","PROD142.png",33,1,"StimBrand",7,894,"Include"
"LM2020_e1","LM2020_e1_104","PROD158.png",34,1,"StimBrand",7,2613,"Include"
"LM2020_e1","LM2020_e1_104","PROD168.png",35,1,"StimBrand",3,1753,"Include"
"LM2020_e1","LM2020_e1_104","PROD050.png",36,0,"StimBrand",1,1292,"Include"
"LM2020_e1","LM2020_e1_104","PROD173.png",37,1,"StimBrand",2,2875,"Include"
"LM2020_e1","LM2020_e1_104","PROD184.png",38,1,"StimBrand",7,1597,"Include"
"LM2020_e1","LM2020_e1_104","PROD052.png",39,0,"StimBrand",2,1218,"Include"
"LM2020_e1","LM2020_e1_104","PROD065.png",40,0,"StimBrand",2,2488,"Include"
"LM2020_e1","LM2020_e1_104","PROD068.png",41,0,"StimBrand",3,1339,"Include"
"LM2020_e1","LM2020_e1_104","PROD185.png",42,1,"StimBrand",7,859,"Include"
"LM2020_e1","LM2020_e1_104","PROD069.png",43,0,"StimBrand",2,1187,"Include"
"LM2020_e1","LM2020_e1_104","PROD189.png",44,1,"StimBrand",7,976,"Include"
"LM2020_e1","LM2020_e1_104","PROD071.png",45,0,"StimBrand",1,1078,"Include"
"LM2020_e1","LM2020_e1_104","PROD073.png",46,0,"StimBrand",2,914,"Include"
"LM2020_e1","LM2020_e1_104","PROD192.png",47,1,"StimBrand",7,910,"Include"
"LM2020_e1","LM2020_e1_104","PROD206.png",48,1,"StimBrand",7,910,"Include"
"LM2020_e1","LM2020_e1_104","PROD083.png",49,0,"StimBrand",7,1039,"Include"
"LM2020_e1","LM2020_e1_104","PROD085.png",50,0,"StimBrand",1,1382,"Include"
"LM2020_e1","LM2020_e1_104","PROD209.png",51,1,"StimBrand",7,941,"Include"
"LM2020_e1","LM2020_e1_104","PROD232.png",52,1,"StimBrand",7,695,"Include"
"LM2020_e1","LM2020_e1_104","PROD087.png",53,0,"StimBrand",1,1875,"Include"
"LM2020_e1","LM2020_e1_104","PROD093.png",54,0,"StimBrand",1,1316,"Include"
"LM2020_e1","LM2020_e1_104","PROD233.png",55,1,"StimBrand",7,800,"Include"
"LM2020_e1","LM2020_e1_104","PROD234.png",56,1,"StimBrand",7,1140,"Include"
"LM2020_e1","LM2020_e1_104","PROD100.png",57,0,"StimBrand",7,902,"Include"
"LM2020_e1","LM2020_e1_104","PROD104.png",58,0,"StimBrand",2,1578,"Include"
"LM2020_e1","LM2020_e1_104","PROD106.png",59,0,"StimBrand",2,1757,"Include"
"LM2020_e1","LM2020_e1_104","PROD237.png",60,1,"StimBrand",7,1000,"Include"
"LM2020_e1","LM2020_e1_104","PROD113.png",61,0,"StimBrand",1,2804,"Include"
"LM2020_e1","LM2020_e1_104","PROD116.png",62,0,"StimBrand",2,1152,"Include"
"LM2020_e1","LM2020_e1_104","PROD238.png",63,1,"StimBrand",7,800,"Include"
"LM2020_e1","LM2020_e1_104","PROD251.png",64,1,"StimBrand",7,1281,"Include"
"LM2020_e1","LM2020_e1_104","PROD121.png",65,0,"StimBrand",2,1636,"Include"
"LM2020_e1","LM2020_e1_104","PROD128.png",66,0,"StimBrand",2,1207,"Include"
"LM2020_e1","LM2020_e1_104","PROD252.png",67,1,"StimBrand",2,1136,"Include"
"LM2020_e1","LM2020_e1_104","PROD137.png",68,0,"StimBrand",1,1597,"Include"
"LM2020_e1","LM2020_e1_104","PROD141.png",69,0,"StimBrand",3,1679,"Include"
"LM2020_e1","LM2020_e1_104","PROD259.png",70,1,"StimBrand",7,753,"Include"
"LM2020_e1","LM2020_e1_104","PROD150.png",71,0,"StimBrand",1,945,"Include"
"LM2020_e1","LM2020_e1_104","PROD163.png",72,0,"StimBrand",2,2343,"Include"
"LM2020_e1","LM2020_e1_104","PROD265.png",73,1,"StimBrand",7,750,"Include"
"LM2020_e1","LM2020_e1_104","PROD169.png",74,0,"StimBrand",2,1632,"Include"
"LM2020_e1","LM2020_e1_104","PROD174.png",75,0,"StimBrand",2,1222,"Include"
"LM2020_e1","LM2020_e1_104","PROD272.png",76,1,"StimBrand",7,2207,"Include"
"LM2020_e1","LM2020_e1_104","PROD175.png",77,0,"StimBrand",2,1257,"Include"
"LM2020_e1","LM2020_e1_104","PROD180.png",78,0,"StimBrand",3,8886,"Include"
"LM2020_e1","LM2020_e1_104","PROD208.png",79,0,"StimBrand",2,1511,"Include"
"LM2020_e1","LM2020_e1_104","PROD276.png",80,1,"StimBrand",7,964,"Include"
"LM2020_e1","LM2020_e1_104","PROD277.png",81,1,"StimBrand",7,976,"Include"
"LM2020_e1","LM2020_e1_104","PROD213.png",82,0,"StimBrand",2,1332,"Include"
"LM2020_e1","LM2020_e1_104","PROD216.png",83,0,"StimBrand",3,1613,"Include"
"LM2020_e1","LM2020_e1_104","PROD279.png",84,1,"StimBrand",7,828,"Include"
"LM2020_e1","LM2020_e1_104","PROD217.png",85,0,"StimBrand",5,730,"Include"
"LM2020_e1","LM2020_e1_104","PROD218.png",86,0,"StimBrand",6,3894,"Include"
"LM2020_e1","LM2020_e1_104","PROD280.png",87,1,"StimBrand",7,894,"Include"
"LM2020_e1","LM2020_e1_104","PROD283.png",88,1,"StimBrand",2,1207,"Include"
"LM2020_e1","LM2020_e1_104","PROD219.png",89,0,"StimBrand",2,6101,"Include"
"LM2020_e1","LM2020_e1_104","PROD221.png",90,0,"StimBrand",1,835,"Include"
"LM2020_e1","LM2020_e1_104","PROD253.png",91,0,"StimBrand",2,1082,"Include"
"LM2020_e1","LM2020_e1_104","PROD287.png",92,1,"StimBrand",7,769,"Include"
"LM2020_e1","LM2020_e1_104","PROD289.png",93,1,"StimBrand",7,800,"Include"
"LM2020_e1","LM2020_e1_104","PROD292.png",94,1,"StimBrand",7,1140,"Include"
"LM2020_e1","LM2020_e1_104","PROD293.png",95,1,"StimBrand",7,1000,"Include"
"LM2020_e1","LM2020_e1_104","PROD294.png",96,1,"StimBrand",7,1082,"Include"
"LM2020_e1","LM2020_e1_104","PROD258.png",97,0,"StimBrand",2,2136,"Include"
"LM2020_e1","LM2020_e1_104","PROD261.png",98,0,"StimBrand",1,1386,"Include"
"LM2020_e1","LM2020_e1_104","PROD262.png",99,0,"StimBrand",1,1074,"Include"
"LM2020_e1","LM2020_e1_104","PROD278.png",100,0,"StimBrand",5,4351,"Include"
"LM2020_e1","LM2020_e1_104","OFF003.png",1,1,"StimOffBrand",7,8175,"Include"
"LM2020_e1","LM2020_e1_104","OFF021.png",2,1,"StimOffBrand",7,929,"Include"
"LM2020_e1","LM2020_e1_104","OFF030.png",3,1,"StimOffBrand",6,3070,"Include"
"LM2020_e1","LM2020_e1_104","OFF001.png",4,0,"StimOffBrand",6,2417,"Include"
"LM2020_e1","LM2020_e1_104","OFF042.png",5,1,"StimOffBrand",7,1699,"Include"
"LM2020_e1","LM2020_e1_104","OFF044.png",6,1,"StimOffBrand",7,1808,"Include"
"LM2020_e1","LM2020_e1_104","OFF005.png",7,0,"StimOffBrand",3,5285,"Include"
"LM2020_e1","LM2020_e1_104","OFF048.png",8,1,"StimOffBrand",7,3109,"Include"
"LM2020_e1","LM2020_e1_104","OFF055.png",9,1,"StimOffBrand",7,2277,"Include"
"LM2020_e1","LM2020_e1_104","OFF022.png",10,0,"StimOffBrand",2,3609,"Include"
"LM2020_e1","LM2020_e1_104","OFF060.png",11,1,"StimOffBrand",7,1070,"Include"
"LM2020_e1","LM2020_e1_104","OFF061.png",12,1,"StimOffBrand",7,1843,"Include"
"LM2020_e1","LM2020_e1_104","OFF070.png",13,1,"StimOffBrand",7,890,"Include"
"LM2020_e1","LM2020_e1_104","OFF027.png",14,0,"StimOffBrand",2,2308,"Include"
"LM2020_e1","LM2020_e1_104","OFF031.png",15,0,"StimOffBrand",1,1363,"Include"
"LM2020_e1","LM2020_e1_104","OFF034.png",16,0,"StimOffBrand",2,2238,"Include"
"LM2020_e1","LM2020_e1_104","OFF040.png",17,0,"StimOffBrand",2,1312,"Include"
"LM2020_e1","LM2020_e1_104","OFF053.png",18,0,"StimOffBrand",6,6273,"Include"
"LM2020_e1","LM2020_e1_104","OFF054.png",19,0,"StimOffBrand",7,1492,"Include"
"LM2020_e1","LM2020_e1_104","OFF078.png",20,1,"StimOffBrand",7,859,"Include"
"LM2020_e1","LM2020_e1_104","OFF079.png",21,1,"StimOffBrand",7,1628,"Include"
"LM2020_e1","LM2020_e1_104","OFF097.png",22,1,"StimOffBrand",7,1210,"Include"
"LM2020_e1","LM2020_e1_104","OFF105.png",23,1,"StimOffBrand",7,824,"Include"
"LM2020_e1","LM2020_e1_104","OFF107.png",24,1,"StimOffBrand",7,835,"Include"
"LM2020_e1","LM2020_e1_104","OFF059.png",25,0,"StimOffBrand",2,2902,"Include"
"LM2020_e1","LM2020_e1_104","OFF114.png",26,1,"StimOffBrand",5,3882,"Include"
"LM2020_e1","LM2020_e1_104","OFF115.png",27,1,"StimOffBrand",7,1609,"Include"
"LM2020_e1","LM2020_e1_104","OFF125.png",28,1,"StimOffBrand",7,753,"Include"
"LM2020_e1","LM2020_e1_104","OFF066.png",29,0,"StimOffBrand",2,2066,"Include"
"LM2020_e1","LM2020_e1_104","OFF076.png",30,0,"StimOffBrand",5,3476,"Include"
"LM2020_e1","LM2020_e1_104","OFF130.png",31,1,"StimOffBrand",7,875,"Include"
"LM2020_e1","LM2020_e1_104","OFF132.png",32,1,"StimOffBrand",7,1175,"Include"
"LM2020_e1","LM2020_e1_104","OFF077.png",33,0,"StimOffBrand",2,1316,"Include"
"LM2020_e1","LM2020_e1_104","OFF133.png",34,1,"StimOffBrand",7,1382,"Include"
"LM2020_e1","LM2020_e1_104","OFF147.png",35,1,"StimOffBrand",7,839,"Include"
"LM2020_e1","LM2020_e1_104","OFF149.png",36,1,"StimOffBrand",7,1101,"Include"
"LM2020_e1","LM2020_e1_104","OFF086.png",37,0,"StimOffBrand",2,1246,"Include"
"LM2020_e1","LM2020_e1_104","OFF151.png",38,1,"StimOffBrand",7,1351,"Include"
"LM2020_e1","LM2020_e1_104","OFF098.png",39,0,"StimOffBrand",2,1773,"Include"
"LM2020_e1","LM2020_e1_104","OFF101.png",40,0,"StimOffBrand",3,1738,"Include"
"LM2020_e1","LM2020_e1_104","OFF153.png",41,1,"StimOffBrand",7,1457,"Include"
"LM2020_e1","LM2020_e1_104","OFF110.png",42,0,"StimOffBrand",2,1785,"Include"
"LM2020_e1","LM2020_e1_104","OFF164.png",43,1,"StimOffBrand",7,1386,"Include"
"LM2020_e1","LM2020_e1_104","OFF118.png",44,0,"StimOffBrand",2,1472,"Include"
"LM2020_e1","LM2020_e1_104","OFF122.png",45,0,"StimOffBrand",1,1363,"Include"
"LM2020_e1","LM2020_e1_104","OFF165.png",46,1,"StimOffBrand",7,1250,"Include"
"LM2020_e1","LM2020_e1_104","OFF179.png",47,1,"StimOffBrand",7,1503,"Include"
"LM2020_e1","LM2020_e1_104","OFF123.png",48,0,"StimOffBrand",3,1328,"Include"
"LM2020_e1","LM2020_e1_104","OFF124.png",49,0,"StimOffBrand",2,3742,"Include"
"LM2020_e1","LM2020_e1_104","OFF126.png",50,0,"StimOffBrand",2,2847,"Include"
"LM2020_e1","LM2020_e1_104","OFF135.png",51,0,"StimOffBrand",7,1328,"Include"
"LM2020_e1","LM2020_e1_104","OFF188.png",52,1,"StimOffBrand",7,929,"Include"
"LM2020_e1","LM2020_e1_104","OFF193.png",53,1,"StimOffBrand",7,730,"Include"
"LM2020_e1","LM2020_e1_104","OFF197.png",54,1,"StimOffBrand",2,1382,"Include"
"LM2020_e1","LM2020_e1_104","OFF138.png",55,0,"StimOffBrand",3,1843,"Include"
"LM2020_e1","LM2020_e1_104","OFF155.png",56,0,"StimOffBrand",4,2121,"Include"
"LM2020_e1","LM2020_e1_104","OFF159.png",57,0,"StimOffBrand",3,2378,"Include"
"LM2020_e1","LM2020_e1_104","OFF160.png",58,0,"StimOffBrand",2,1468,"Include"
"LM2020_e1","LM2020_e1_104","OFF200.png",59,1,"StimOffBrand",7,1171,"Include"
"LM2020_e1","LM2020_e1_104","OFF205.png",60,1,"StimOffBrand",7,960,"Include"
"LM2020_e1","LM2020_e1_104","OFF207.png",61,1,"StimOffBrand",7,824,"Include"
"LM2020_e1","LM2020_e1_104","OFF229.png",62,1,"StimOffBrand",7,906,"Include"
"LM2020_e1","LM2020_e1_104","OFF235.png",63,1,"StimOffBrand",7,1574,"Include"
"LM2020_e1","LM2020_e1_104","OFF161.png",64,0,"StimOffBrand",2,1539,"Include"
"LM2020_e1","LM2020_e1_104","OFF236.png",65,1,"StimOffBrand",7,1046,"Include"
"LM2020_e1","LM2020_e1_104","OFF166.png",66,0,"StimOffBrand",3,1281,"Include"
"LM2020_e1","LM2020_e1_104","OFF176.png",67,0,"StimOffBrand",7,5093,"Include"
"LM2020_e1","LM2020_e1_104","OFF178.png",68,0,"StimOffBrand",1,1046,"Include"
"LM2020_e1","LM2020_e1_104","OFF244.png",69,1,"StimOffBrand",7,1101,"Include"
"LM2020_e1","LM2020_e1_104","OFF182.png",70,0,"StimOffBrand",2,2019,"Include"
"LM2020_e1","LM2020_e1_104","OFF186.png",71,0,"StimOffBrand",2,2832,"Include"
"LM2020_e1","LM2020_e1_104","OFF195.png",72,0,"StimOffBrand",6,2863,"Include"
"LM2020_e1","LM2020_e1_104","OFF247.png",73,1,"StimOffBrand",7,1750,"Include"
"LM2020_e1","LM2020_e1_104","OFF196.png",74,0,"StimOffBrand",2,1742,"Include"
"LM2020_e1","LM2020_e1_104","OFF199.png",75,0,"StimOffBrand",1,1687,"Include"
"LM2020_e1","LM2020_e1_104","OFF256.png",76,1,"StimOffBrand",7,1175,"Include"
"LM2020_e1","LM2020_e1_104","OFF284.png",77,1,"StimOffBrand",7,1175,"Include"
"LM2020_e1","LM2020_e1_104","OFF285.png",78,1,"StimOffBrand",7,1281,"Include"
"LM2020_e1","LM2020_e1_104","OFF203.png",79,0,"StimOffBrand",3,2667,"Include"
"LM2020_e1","LM2020_e1_104","OFF290.png",80,1,"StimOffBrand",7,1367,"Include"
"LM2020_e1","LM2020_e1_104","OFF291.png",81,1,"StimOffBrand",7,996,"Include"
"LM2020_e1","LM2020_e1_104","OFF204.png",82,0,"StimOffBrand",5,2636,"Include"
"LM2020_e1","LM2020_e1_104","OFF210.png",83,0,"StimOffBrand",3,1316,"Include"
"LM2020_e1","LM2020_e1_104","OFF211.png",84,0,"StimOffBrand",4,1707,"Include"
"LM2020_e1","LM2020_e1_104","OFF295.png",85,1,"StimOffBrand",7,1035,"Include"
"LM2020_e1","LM2020_e1_104","OFF296.png",86,1,"StimOffBrand",7,925,"Include"
"LM2020_e1","LM2020_e1_104","OFF297.png",87,1,"StimOffBrand",7,1066,"Include"
"LM2020_e1","LM2020_e1_104","OFF298.png",88,1,"StimOffBrand",7,976,"Include"
"LM2020_e1","LM2020_e1_104","OFF299.png",89,1,"StimOffBrand",7,1367,"Include"
"LM2020_e1","LM2020_e1_104","OFF300.png",90,1,"StimOffBrand",7,714,"Include"
"LM2020_e1","LM2020_e1_104","OFF215.png",91,0,"StimOffBrand",2,2625,"Include"
"LM2020_e1","LM2020_e1_104","OFF220.png",92,0,"StimOffBrand",1,1171,"Include"
"LM2020_e1","LM2020_e1_104","OFF224.png",93,0,"StimOffBrand",2,1171,"Include"
"LM2020_e1","LM2020_e1_104","OFF230.png",94,0,"StimOffBrand",3,1632,"Include"
"LM2020_e1","LM2020_e1_104","OFF239.png",95,0,"StimOffBrand",7,1503,"Include"
"LM2020_e1","LM2020_e1_104","OFF240.png",96,0,"StimOffBrand",4,2488,"Include"
"LM2020_e1","LM2020_e1_104","OFF241.png",97,0,"StimOffBrand",3,1597,"Include"
"LM2020_e1","LM2020_e1_104","OFF245.png",98,0,"StimOffBrand",3,1878,"Include"
"LM2020_e1","LM2020_e1_104","OFF246.png",99,0,"StimOffBrand",3,1769,"Include"
"LM2020_e1","LM2020_e1_104","OFF255.png",100,0,"StimOffBrand",3,1464,"Include"
"LM2020_e1","LM2020_e1_105","MS107.png",1,1,"StimDots",6,2238,"Include"
"LM2020_e1","LM2020_e1_105","MS060.png",2,1,"StimDots",6,1175,"Include"
"LM2020_e1","LM2020_e1_105","MS142.png",3,1,"StimDots",5,1773,"Include"
"LM2020_e1","LM2020_e1_105","MS015.png",4,0,"StimDots",6,1148,"Include"
"LM2020_e1","LM2020_e1_105","MS027.png",5,0,"StimDots",3,1468,"Include"
"LM2020_e1","LM2020_e1_105","MS040.png",6,1,"StimDots",6,980,"Include"
"LM2020_e1","LM2020_e1_105","MS054.png",7,0,"StimDots",1,2269,"Include"
"LM2020_e1","LM2020_e1_105","MS137.png",8,1,"StimDots",2,1328,"Include"
"LM2020_e1","LM2020_e1_105","MS075.png",9,1,"StimDots",2,2089,"Include"
"LM2020_e1","LM2020_e1_105","MS102.png",10,1,"StimDots",4,1351,"Include"
"LM2020_e1","LM2020_e1_105","MS146.png",11,1,"StimDots",7,1433,"Include"
"LM2020_e1","LM2020_e1_105","MS033.png",12,1,"StimDots",6,1437,"Include"
"LM2020_e1","LM2020_e1_105","MS073.png",13,1,"StimDots",1,1246,"Include"
"LM2020_e1","LM2020_e1_105","MS178.png",14,0,"StimDots",2,1437,"Include"
"LM2020_e1","LM2020_e1_105","MS006.png",15,0,"StimDots",2,1292,"Include"
"LM2020_e1","LM2020_e1_105","MS148.png",16,0,"StimDots",1,1003,"Include"
"LM2020_e1","LM2020_e1_105","MS110.png",17,0,"StimDots",6,1257,"Include"
"LM2020_e1","LM2020_e1_105","MS031.png",18,1,"StimDots",6,1683,"Include"
"LM2020_e1","LM2020_e1_105","MS084.png",19,1,"StimDots",2,1105,"Include"
"LM2020_e1","LM2020_e1_105","MS059.png",20,0,"StimDots",2,902,"Include"
"LM2020_e1","LM2020_e1_105","MS134.png",21,0,"StimDots",7,1082,"Include"
"LM2020_e1","LM2020_e1_105","MS022.png",22,1,"StimDots",3,1527,"Include"
"LM2020_e1","LM2020_e1_105","MS153.png",23,1,"StimDots",1,1507,"Include"
"LM2020_e1","LM2020_e1_105","MS092.png",24,1,"StimDots",2,1386,"Include"
"LM2020_e1","LM2020_e1_105","MS116.png",25,0,"StimDots",6,1156,"Include"
"LM2020_e1","LM2020_e1_105","MS128.png",26,1,"StimDots",1,1281,"Include"
"LM2020_e1","LM2020_e1_105","MS105.png",27,1,"StimDots",6,1281,"Include"
"LM2020_e1","LM2020_e1_105","MS052.png",28,0,"StimDots",2,1289,"Include"
"LM2020_e1","LM2020_e1_105","MS082.png",29,0,"StimDots",1,1398,"Include"
"LM2020_e1","LM2020_e1_105","MS115.png",30,0,"StimDots",2,1531,"Include"
"LM2020_e1","LM2020_e1_105","MS045.png",31,1,"StimDots",2,1562,"Include"
"LM2020_e1","LM2020_e1_105","MS139.png",32,1,"StimDots",6,824,"Include"
"LM2020_e1","LM2020_e1_105","MS061.png",33,0,"StimDots",6,1015,"Include"
"LM2020_e1","LM2020_e1_105","MS097.png",34,0,"StimDots",2,871,"Include"
"LM2020_e1","LM2020_e1_105","MS144.png",35,0,"StimDots",6,867,"Include"
"LM2020_e1","LM2020_e1_105","MS106.png",36,0,"StimDots",3,878,"Include"
"LM2020_e1","LM2020_e1_105","MS041.png",37,0,"StimDots",6,1570,"Include"
"LM2020_e1","LM2020_e1_105","MS069.png",38,1,"StimDots",1,1210,"Include"
"LM2020_e1","LM2020_e1_105","MS083.png",39,1,"StimDots",7,929,"Include"
"LM2020_e1","LM2020_e1_105","MS170.png",40,0,"StimDots",1,1402,"Include"
"LM2020_e1","LM2020_e1_105","MS127.png",41,0,"StimDots",6,1320,"Include"
"LM2020_e1","LM2020_e1_105","MS072.png",42,0,"StimDots",7,1398,"Include"
"LM2020_e1","LM2020_e1_105","MS013.png",43,1,"StimDots",2,1632,"Include"
"LM2020_e1","LM2020_e1_105","MS003.png",44,0,"StimDots",2,1253,"Include"
"LM2020_e1","LM2020_e1_105","MS049.png",45,0,"StimDots",7,902,"Include"
"LM2020_e1","LM2020_e1_105","MS098.png",46,0,"StimDots",6,1019,"Include"
"LM2020_e1","LM2020_e1_105","MS020.png",47,0,"StimDots",3,1152,"Include"
"LM2020_e1","LM2020_e1_105","MS023.png",48,1,"StimDots",7,1328,"Include"
"LM2020_e1","LM2020_e1_105","MS167.png",49,0,"StimDots",3,2800,"Include"
"LM2020_e1","LM2020_e1_105","MS037.png",50,1,"StimDots",2,1433,"Include"
"LM2020_e1","LM2020_e1_105","MS090.png",51,0,"StimDots",6,1011,"Include"
"LM2020_e1","LM2020_e1_105","MS140.png",52,0,"StimDots",2,1257,"Include"
"LM2020_e1","LM2020_e1_105","MS009.png",53,0,"StimDots",6,843,"Include"
"LM2020_e1","LM2020_e1_105","MS094.png",54,1,"StimDots",1,1000,"Include"
"LM2020_e1","LM2020_e1_105","MS176.png",55,1,"StimDots",7,828,"Include"
"LM2020_e1","LM2020_e1_105","MS068.png",56,1,"StimDots",2,1714,"Include"
"LM2020_e1","LM2020_e1_105","MS085.png",57,1,"StimDots",4,1000,"Include"
"LM2020_e1","LM2020_e1_105","MS155.png",58,0,"StimDots",6,1222,"Include"
"LM2020_e1","LM2020_e1_105","MS012.png",59,1,"StimDots",2,1144,"Include"
"LM2020_e1","LM2020_e1_105","MS180.png",60,1,"StimDots",5,1296,"Include"
"LM2020_e1","LM2020_e1_105","MS021.png",61,0,"StimDots",6,1707,"Include"
"LM2020_e1","LM2020_e1_105","MS087.png",62,1,"StimDots",6,1296,"Include"
"LM2020_e1","LM2020_e1_105","MS112.png",63,1,"StimDots",5,894,"Include"
"LM2020_e1","LM2020_e1_105","MS038.png",64,1,"StimDots",7,800,"Include"
"LM2020_e1","LM2020_e1_105","MS056.png",65,0,"StimDots",3,1011,"Include"
"LM2020_e1","LM2020_e1_105","MS123.png",66,1,"StimDots",6,1285,"Include"
"LM2020_e1","LM2020_e1_105","MS011.png",67,0,"StimDots",2,1214,"Include"
"LM2020_e1","LM2020_e1_105","MS080.png",68,0,"StimDots",7,832,"Include"
"LM2020_e1","LM2020_e1_105","MS026.png",69,1,"StimDots",1,964,"Include"
"LM2020_e1","LM2020_e1_105","MS175.png",70,1,"StimDots",4,1632,"Include"
"LM2020_e1","LM2020_e1_105","MS159.png",71,0,"StimDots",5,1570,"Include"
"LM2020_e1","LM2020_e1_105","MS050.png",72,1,"StimDots",5,1000,"Include"
"LM2020_e1","LM2020_e1_105","MS152.png",73,1,"StimDots",6,859,"Include"
"LM2020_e1","LM2020_e1_105","MS032.png",74,1,"StimDots",4,3175,"Include"
"LM2020_e1","LM2020_e1_105","MS125.png",75,0,"StimDots",2,1195,"Include"
"LM2020_e1","LM2020_e1_105","MS113.png",76,0,"StimDots",1,2132,"Include"
"LM2020_e1","LM2020_e1_105","MS171.png",77,1,"StimDots",5,1351,"Include"
"LM2020_e1","LM2020_e1_105","MS163.png",78,1,"StimDots",6,1597,"Include"
"LM2020_e1","LM2020_e1_105","MS066.png",79,0,"StimDots",3,1468,"Include"
"LM2020_e1","LM2020_e1_105","MS047.png",80,1,"StimDots",3,1667,"Include"
"LM2020_e1","LM2020_e1_105","MS010.png",81,1,"StimDots",6,1003,"Include"
"LM2020_e1","LM2020_e1_105","MS030.png",82,0,"StimDots",1,1175,"Include"
"LM2020_e1","LM2020_e1_105","MS108.png",83,1,"StimDots",7,1351,"Include"
"LM2020_e1","LM2020_e1_105","MS001.png",84,0,"StimDots",2,1605,"Include"
"LM2020_e1","LM2020_e1_105","MS039.png",85,1,"StimDots",6,1644,"Include"
"LM2020_e1","LM2020_e1_105","MS172.png",86,0,"StimDots",6,941,"Include"
"LM2020_e1","LM2020_e1_105","MS053.png",87,1,"StimDots",2,1632,"Include"
"LM2020_e1","LM2020_e1_105","MS089.png",88,0,"StimDots",6,1332,"Include"
"LM2020_e1","LM2020_e1_105","MS149.png",89,0,"StimDots",7,726,"Include"
"LM2020_e1","LM2020_e1_105","MS005.png",90,1,"StimDots",6,1632,"Include"
"LM2020_e1","LM2020_e1_105","MS121.png",91,1,"StimDots",4,2226,"Include"
"LM2020_e1","LM2020_e1_105","MS096.png",92,0,"StimDots",3,1742,"Include"
"LM2020_e1","LM2020_e1_105","MS179.png",93,0,"StimDots",3,1988,"Include"
"LM2020_e1","LM2020_e1_105","MS156.png",94,1,"StimDots",1,1187,"Include"
"LM2020_e1","LM2020_e1_105","MS057.png",95,1,"StimDots",6,1214,"Include"
"LM2020_e1","LM2020_e1_105","MS119.png",96,0,"StimDots",2,1742,"Include"
"LM2020_e1","LM2020_e1_105","MS100.png",97,0,"StimDots",6,1507,"Include"
"LM2020_e1","LM2020_e1_105","MS044.png",98,0,"StimDots",2,1503,"Include"
"LM2020_e1","LM2020_e1_105","MS109.png",99,0,"StimDots",6,1250,"Include"
"LM2020_e1","LM2020_e1_105","MS164.png",100,0,"StimDots",4,1082,"Include"
"LM2020_e1","LM2020_e1_105","SWIRL015.png",1,1,"StimSwirl",2,1601,"Include"
"LM2020_e1","LM2020_e1_105","SWIRL017.png",2,1,"StimSwirl",2,1613,"Include"
"LM2020_e1","LM2020_e1_105","SWIRL026.png",3,1,"StimSwirl",3,2582,"Include"
"LM2020_e1","LM2020_e1_105","SWIRL033.png",4,1,"StimSwirl",7,1351,"Include"
"LM2020_e1","LM2020_e1_105","SWIRL035.png",5,1,"StimSwirl",2,1527,"Include"
"LM2020_e1","LM2020_e1_105","SWIRL036.png",6,1,"StimSwirl",1,1421,"Include"
"LM2020_e1","LM2020_e1_105","SWIRL006.png",7,0,"StimSwirl",1,2316,"Include"
"LM2020_e1","LM2020_e1_105","SWIRL007.png",8,0,"StimSwirl",2,2000,"Include"
"LM2020_e1","LM2020_e1_105","SWIRL010.png",9,0,"StimSwirl",2,1320,"Include"
"LM2020_e1","LM2020_e1_105","SWIRL056.png",10,1,"StimSwirl",6,1492,"Include"
"LM2020_e1","LM2020_e1_105","SWIRL025.png",11,0,"StimSwirl",2,1117,"Include"
"LM2020_e1","LM2020_e1_105","SWIRL057.png",12,1,"StimSwirl",1,1367,"Include"
"LM2020_e1","LM2020_e1_105","SWIRL058.png",13,1,"StimSwirl",1,1066,"Include"
"LM2020_e1","LM2020_e1_105","SWIRL028.png",14,0,"StimSwirl",7,1046,"Include"
"LM2020_e1","LM2020_e1_105","SWIRL032.png",15,0,"StimSwirl",7,1398,"Include"
"LM2020_e1","LM2020_e1_105","SWIRL062.png",16,1,"StimSwirl",2,1679,"Include"
"LM2020_e1","LM2020_e1_105","SWIRL067.png",17,1,"StimSwirl",2,1507,"Include"
"LM2020_e1","LM2020_e1_105","SWIRL072.png",18,1,"StimSwirl",5,1632,"Include"
"LM2020_e1","LM2020_e1_105","SWIRL094.png",19,1,"StimSwirl",3,1882,"Include"
"LM2020_e1","LM2020_e1_105","SWIRL037.png",20,0,"StimSwirl",2,1816,"Include"
"LM2020_e1","LM2020_e1_105","SWIRL102.png",21,1,"StimSwirl",2,1738,"Include"
"LM2020_e1","LM2020_e1_105","SWIRL119.png",22,1,"StimSwirl",1,1386,"Include"
"LM2020_e1","LM2020_e1_105","SWIRL120.png",23,1,"StimSwirl",2,1152,"Include"
"LM2020_e1","LM2020_e1_105","SWIRL046.png",24,0,"StimSwirl",1,1066,"Include"
"LM2020_e1","LM2020_e1_105","SWIRL127.png",25,1,"StimSwirl",5,1402,"Include"
"LM2020_e1","LM2020_e1_105","SWIRL129.png",26,1,"StimSwirl",1,1320,"Include"
"LM2020_e1","LM2020_e1_105","SWIRL131.png",27,1,"StimSwirl",7,1632,"Include"
"LM2020_e1","LM2020_e1_105","SWIRL047.png",28,0,"StimSwirl",2,2242,"Include"
"LM2020_e1","LM2020_e1_105","SWIRL134.png",29,1,"StimSwirl",6,1421,"Include"
"LM2020_e1","LM2020_e1_105","SWIRL144.png",30,1,"StimSwirl",6,2828,"Include"
"LM2020_e1","LM2020_e1_105","SWIRL152.png",31,1,"StimSwirl",2,1250,"Include"
"LM2020_e1","LM2020_e1_105","SWIRL158.png",32,1,"StimSwirl",1,1460,"Include"
"LM2020_e1","LM2020_e1_105","SWIRL049.png",33,0,"StimSwirl",2,2695,"Include"
"LM2020_e1","LM2020_e1_105","SWIRL050.png",34,0,"StimSwirl",6,2558,"Include"
"LM2020_e1","LM2020_e1_105","SWIRL063.png",35,0,"StimSwirl",4,1781,"Include"
"LM2020_e1","LM2020_e1_105","SWIRL168.png",36,1,"StimSwirl",2,1667,"Include"
"LM2020_e1","LM2020_e1_105","SWIRL065.png",37,0,"StimSwirl",3,1785,"Include"
"LM2020_e1","LM2020_e1_105","SWIRL185.png",38,1,"StimSwirl",1,1246,"Include"
"LM2020_e1","LM2020_e1_105","SWIRL068.png",39,0,"StimSwirl",1,1640,"Include"
"LM2020_e1","LM2020_e1_105","SWIRL069.png",40,0,"StimSwirl",4,2382,"Include"
"LM2020_e1","LM2020_e1_105","SWIRL187.png",41,1,"StimSwirl",5,2000,"Include"
"LM2020_e1","LM2020_e1_105","SWIRL189.png",42,1,"StimSwirl",7,1421,"Include"
"LM2020_e1","LM2020_e1_105","SWIRL198.png",43,1,"StimSwirl",1,2718,"Include"
"LM2020_e1","LM2020_e1_105","SWIRL071.png",44,0,"StimSwirl",2,2769,"Include"
"LM2020_e1","LM2020_e1_105","SWIRL073.png",45,0,"StimSwirl",7,1191,"Include"
"LM2020_e1","LM2020_e1_105","SWIRL209.png",46,1,"StimSwirl",6,1808,"Include"
"LM2020_e1","LM2020_e1_105","SWIRL214.png",47,1,"StimSwirl",6,1296,"Include"
"LM2020_e1","LM2020_e1_105","SWIRL074.png",48,0,"StimSwirl",7,1187,"Include"
"LM2020_e1","LM2020_e1_105","SWIRL085.png",49,0,"StimSwirl",2,2140,"Include"
"LM2020_e1","LM2020_e1_105","SWIRL091.png",50,0,"StimSwirl",2,1703,"Include"
"LM2020_e1","LM2020_e1_105","SWIRL099.png",51,0,"StimSwirl",6,1226,"Include"
"LM2020_e1","LM2020_e1_105","SWIRL109.png",52,0,"StimSwirl",7,1609,"Include"
"LM2020_e1","LM2020_e1_105","SWIRL225.png",53,1,"StimSwirl",6,1492,"Include"
"LM2020_e1","LM2020_e1_105","SWIRL113.png",54,0,"StimSwirl",2,1156,"Include"
"LM2020_e1","LM2020_e1_105","SWIRL231.png",55,1,"StimSwirl",5,2195,"Include"
"LM2020_e1","LM2020_e1_105","SWIRL232.png",56,1,"StimSwirl",7,1542,"Include"
"LM2020_e1","LM2020_e1_105","SWIRL237.png",57,1,"StimSwirl",7,1316,"Include"
"LM2020_e1","LM2020_e1_105","SWIRL251.png",58,1,"StimSwirl",6,2089,"Include"
"LM2020_e1","LM2020_e1_105","SWIRL117.png",59,0,"StimSwirl",6,2210,"Include"
"LM2020_e1","LM2020_e1_105","SWIRL121.png",60,0,"StimSwirl",7,1601,"Include"
"LM2020_e1","LM2020_e1_105","SWIRL252.png",61,1,"StimSwirl",6,1386,"Include"
"LM2020_e1","LM2020_e1_105","SWIRL269.png",62,1,"StimSwirl",7,1050,"Include"
"LM2020_e1","LM2020_e1_105","SWIRL272.png",63,1,"StimSwirl",6,1140,"Include"
"LM2020_e1","LM2020_e1_105","SWIRL275.png",64,1,"StimSwirl",1,789,"Include"
"LM2020_e1","LM2020_e1_105","SWIRL136.png",65,0,"StimSwirl",2,1324,"Include"
"LM2020_e1","LM2020_e1_105","SWIRL137.png",66,0,"StimSwirl",1,1292,"Include"
"LM2020_e1","LM2020_e1_105","SWIRL277.png",67,1,"StimSwirl",1,1222,"Include"
"LM2020_e1","LM2020_e1_105","SWIRL142.png",68,0,"StimSwirl",1,906,"Include"
"LM2020_e1","LM2020_e1_105","SWIRL150.png",69,0,"StimSwirl",2,1433,"Include"
"LM2020_e1","LM2020_e1_105","SWIRL169.png",70,0,"StimSwirl",1,1148,"Include"
"LM2020_e1","LM2020_e1_105","SWIRL173.png",71,0,"StimSwirl",2,1843,"Include"
"LM2020_e1","LM2020_e1_105","SWIRL279.png",72,1,"StimSwirl",7,929,"Include"
"LM2020_e1","LM2020_e1_105","SWIRL281.png",73,1,"StimSwirl",2,1820,"Include"
"LM2020_e1","LM2020_e1_105","SWIRL174.png",74,0,"StimSwirl",3,1570,"Include"
"LM2020_e1","LM2020_e1_105","SWIRL289.png",75,1,"StimSwirl",7,1281,"Include"
"LM2020_e1","LM2020_e1_105","SWIRL180.png",76,0,"StimSwirl",4,2277,"Include"
"LM2020_e1","LM2020_e1_105","SWIRL184.png",77,0,"StimSwirl",3,1960,"Include"
"LM2020_e1","LM2020_e1_105","SWIRL192.png",78,0,"StimSwirl",6,1394,"Include"
"LM2020_e1","LM2020_e1_105","SWIRL290.png",79,1,"StimSwirl",5,1425,"Include"
"LM2020_e1","LM2020_e1_105","SWIRL291.png",80,1,"StimSwirl",4,2687,"Include"
"LM2020_e1","LM2020_e1_105","SWIRL292.png",81,1,"StimSwirl",3,1351,"Include"
"LM2020_e1","LM2020_e1_105","SWIRL206.png",82,0,"StimSwirl",5,2308,"Include"
"LM2020_e1","LM2020_e1_105","SWIRL295.png",83,1,"StimSwirl",7,1285,"Include"
"LM2020_e1","LM2020_e1_105","SWIRL298.png",84,1,"StimSwirl",2,2828,"Include"
"LM2020_e1","LM2020_e1_105","SWIRL299.png",85,1,"StimSwirl",3,1386,"Include"
"LM2020_e1","LM2020_e1_105","SWIRL208.png",86,0,"StimSwirl",6,1285,"Include"
"LM2020_e1","LM2020_e1_105","SWIRL213.png",87,0,"StimSwirl",6,1531,"Include"
"LM2020_e1","LM2020_e1_105","SWIRL216.png",88,0,"StimSwirl",2,3046,"Include"
"LM2020_e1","LM2020_e1_105","SWIRL300.png",89,1,"StimSwirl",6,1667,"Include"
"LM2020_e1","LM2020_e1_105","SWIRL218.png",90,0,"StimSwirl",6,2308,"Include"
"LM2020_e1","LM2020_e1_105","SWIRL219.png",91,0,"StimSwirl",6,2417,"Include"
"LM2020_e1","LM2020_e1_105","SWIRL233.png",92,0,"StimSwirl",3,1398,"Include"
"LM2020_e1","LM2020_e1_105","SWIRL234.png",93,0,"StimSwirl",3,1152,"Include"
"LM2020_e1","LM2020_e1_105","SWIRL238.png",94,0,"StimSwirl",5,2062,"Include"
"LM2020_e1","LM2020_e1_105","SWIRL259.png",95,0,"StimSwirl",3,3023,"Include"
"LM2020_e1","LM2020_e1_105","SWIRL260.png",96,0,"StimSwirl",6,3542,"Include"
"LM2020_e1","LM2020_e1_105","SWIRL264.png",97,0,"StimSwirl",6,1261,"Include"
"LM2020_e1","LM2020_e1_105","SWIRL268.png",98,0,"StimSwirl",2,1144,"Include"
"LM2020_e1","LM2020_e1_105","SWIRL274.png",99,0,"StimSwirl",2,910,"Include"
"LM2020_e1","LM2020_e1_105","SWIRL280.png",100,0,"StimSwirl",7,933,"Include"
"LM2020_e1","LM2020_e1_105","PROD009.png",1,1,"StimBrand",6,2941,"Include"
"LM2020_e1","LM2020_e1_105","PROD001.png",2,0,"StimBrand",1,1218,"Include"
"LM2020_e1","LM2020_e1_105","PROD011.png",3,1,"StimBrand",7,1351,"Include"
"LM2020_e1","LM2020_e1_105","PROD021.png",4,1,"StimBrand",7,1296,"Include"
"LM2020_e1","LM2020_e1_105","PROD041.png",5,1,"StimBrand",7,1257,"Include"
"LM2020_e1","LM2020_e1_105","PROD042.png",6,1,"StimBrand",2,2582,"Include"
"LM2020_e1","LM2020_e1_105","PROD043.png",7,1,"StimBrand",7,1031,"Include"
"LM2020_e1","LM2020_e1_105","PROD003.png",8,0,"StimBrand",1,1183,"Include"
"LM2020_e1","LM2020_e1_105","PROD044.png",9,1,"StimBrand",7,1117,"Include"
"LM2020_e1","LM2020_e1_105","PROD027.png",10,0,"StimBrand",1,1746,"Include"
"LM2020_e1","LM2020_e1_105","PROD048.png",11,1,"StimBrand",7,964,"Include"
"LM2020_e1","LM2020_e1_105","PROD030.png",12,0,"StimBrand",1,1011,"Include"
"LM2020_e1","LM2020_e1_105","PROD034.png",13,0,"StimBrand",1,1613,"Include"
"LM2020_e1","LM2020_e1_105","PROD052.png",14,1,"StimBrand",7,1074,"Include"
"LM2020_e1","LM2020_e1_105","PROD053.png",15,0,"StimBrand",1,1078,"Include"
"LM2020_e1","LM2020_e1_105","PROD066.png",16,0,"StimBrand",1,1082,"Include"
"LM2020_e1","LM2020_e1_105","PROD070.png",17,0,"StimBrand",1,1148,"Include"
"LM2020_e1","LM2020_e1_105","PROD055.png",18,1,"StimBrand",6,2792,"Include"
"LM2020_e1","LM2020_e1_105","PROD060.png",19,1,"StimBrand",3,1179,"Include"
"LM2020_e1","LM2020_e1_105","PROD061.png",20,1,"StimBrand",6,3214,"Include"
"LM2020_e1","LM2020_e1_105","PROD077.png",21,0,"StimBrand",1,1117,"Include"
"LM2020_e1","LM2020_e1_105","PROD078.png",22,1,"StimBrand",7,1316,"Include"
"LM2020_e1","LM2020_e1_105","PROD079.png",23,1,"StimBrand",2,1785,"Include"
"LM2020_e1","LM2020_e1_105","PROD083.png",24,1,"StimBrand",7,1882,"Include"
"LM2020_e1","LM2020_e1_105","PROD087.png",25,1,"StimBrand",1,1328,"Include"
"LM2020_e1","LM2020_e1_105","PROD093.png",26,1,"StimBrand",7,1644,"Include"
"LM2020_e1","LM2020_e1_105","PROD086.png",27,0,"StimBrand",1,1011,"Include"
"LM2020_e1","LM2020_e1_105","PROD097.png",28,1,"StimBrand",7,1421,"Include"
"LM2020_e1","LM2020_e1_105","PROD100.png",29,1,"StimBrand",7,964,"Include"
"LM2020_e1","LM2020_e1_105","PROD098.png",30,0,"StimBrand",1,1085,"Include"
"LM2020_e1","LM2020_e1_105","PROD104.png",31,1,"StimBrand",7,1140,"Include"
"LM2020_e1","LM2020_e1_105","PROD105.png",32,1,"StimBrand",1,1144,"Include"
"LM2020_e1","LM2020_e1_105","PROD106.png",33,1,"StimBrand",6,3144,"Include"
"LM2020_e1","LM2020_e1_105","PROD114.png",34,0,"StimBrand",1,1007,"Include"
"LM2020_e1","LM2020_e1_105","PROD107.png",35,1,"StimBrand",7,1144,"Include"
"LM2020_e1","LM2020_e1_105","PROD123.png",36,0,"StimBrand",1,1109,"Include"
"LM2020_e1","LM2020_e1_105","PROD125.png",37,0,"StimBrand",1,1257,"Include"
"LM2020_e1","LM2020_e1_105","PROD115.png",38,1,"StimBrand",6,4062,"Include"
"LM2020_e1","LM2020_e1_105","PROD126.png",39,0,"StimBrand",1,1234,"Include"
"LM2020_e1","LM2020_e1_105","PROD135.png",40,0,"StimBrand",1,1035,"Include"
"LM2020_e1","LM2020_e1_105","PROD116.png",41,1,"StimBrand",7,2269,"Include"
"LM2020_e1","LM2020_e1_105","PROD128.png",42,1,"StimBrand",1,2230,"Include"
"LM2020_e1","LM2020_e1_105","PROD130.png",43,1,"StimBrand",7,964,"Include"
"LM2020_e1","LM2020_e1_105","PROD132.png",44,1,"StimBrand",7,1296,"Include"
"LM2020_e1","LM2020_e1_105","PROD133.png",45,1,"StimBrand",4,4425,"Include"
"LM2020_e1","LM2020_e1_105","PROD138.png",46,0,"StimBrand",1,1960,"Include"
"LM2020_e1","LM2020_e1_105","PROD147.png",47,0,"StimBrand",1,1113,"Include"
"LM2020_e1","LM2020_e1_105","PROD141.png",48,1,"StimBrand",7,1015,"Include"
"LM2020_e1","LM2020_e1_105","PROD149.png",49,1,"StimBrand",7,1140,"Include"
"LM2020_e1","LM2020_e1_105","PROD163.png",50,1,"StimBrand",6,1953,"Include"
"LM2020_e1","LM2020_e1_105","PROD151.png",51,0,"StimBrand",1,1082,"Include"
"LM2020_e1","LM2020_e1_105","PROD153.png",52,0,"StimBrand",1,1187,"Include"
"LM2020_e1","LM2020_e1_105","PROD159.png",53,0,"StimBrand",1,898,"Include"
"LM2020_e1","LM2020_e1_105","PROD161.png",54,0,"StimBrand",1,902,"Include"
"LM2020_e1","LM2020_e1_105","PROD165.png",55,1,"StimBrand",7,1281,"Include"
"LM2020_e1","LM2020_e1_105","PROD164.png",56,0,"StimBrand",1,1082,"Include"
"LM2020_e1","LM2020_e1_105","PROD175.png",57,1,"StimBrand",7,859,"Include"
"LM2020_e1","LM2020_e1_105","PROD166.png",58,0,"StimBrand",1,1191,"Include"
"LM2020_e1","LM2020_e1_105","PROD176.png",59,0,"StimBrand",1,1000,"Include"
"LM2020_e1","LM2020_e1_105","PROD178.png",60,0,"StimBrand",1,1230,"Include"
"LM2020_e1","LM2020_e1_105","PROD182.png",61,0,"StimBrand",1,1023,"Include"
"LM2020_e1","LM2020_e1_105","PROD186.png",62,0,"StimBrand",1,976,"Include"
"LM2020_e1","LM2020_e1_105","PROD179.png",63,1,"StimBrand",7,1000,"Include"
"LM2020_e1","LM2020_e1_105","PROD188.png",64,0,"StimBrand",3,2406,"Include"
"LM2020_e1","LM2020_e1_105","PROD199.png",65,0,"StimBrand",1,976,"Include"
"LM2020_e1","LM2020_e1_105","PROD193.png",66,1,"StimBrand",2,2796,"Include"
"LM2020_e1","LM2020_e1_105","PROD200.png",67,0,"StimBrand",1,1289,"Include"
"LM2020_e1","LM2020_e1_105","PROD204.png",68,0,"StimBrand",1,835,"Include"
"LM2020_e1","LM2020_e1_105","PROD197.png",69,1,"StimBrand",7,2140,"Include"
"LM2020_e1","LM2020_e1_105","PROD207.png",70,0,"StimBrand",1,835,"Include"
"LM2020_e1","LM2020_e1_105","PROD205.png",71,1,"StimBrand",7,1246,"Include"
"LM2020_e1","LM2020_e1_105","PROD215.png",72,0,"StimBrand",1,1011,"Include"
"LM2020_e1","LM2020_e1_105","PROD217.png",73,1,"StimBrand",6,1351,"Include"
"LM2020_e1","LM2020_e1_105","PROD221.png",74,1,"StimBrand",7,1292,"Include"
"LM2020_e1","LM2020_e1_105","PROD235.png",75,1,"StimBrand",2,1316,"Include"
"LM2020_e1","LM2020_e1_105","PROD220.png",76,0,"StimBrand",2,2074,"Include"
"LM2020_e1","LM2020_e1_105","PROD236.png",77,1,"StimBrand",7,1000,"Include"
"LM2020_e1","LM2020_e1_105","PROD244.png",78,1,"StimBrand",7,1281,"Include"
"LM2020_e1","LM2020_e1_105","PROD247.png",79,1,"StimBrand",7,929,"Include"
"LM2020_e1","LM2020_e1_105","PROD224.png",80,0,"StimBrand",1,933,"Include"
"LM2020_e1","LM2020_e1_105","PROD253.png",81,1,"StimBrand",6,2523,"Include"
"LM2020_e1","LM2020_e1_105","PROD256.png",82,1,"StimBrand",6,3074,"Include"
"LM2020_e1","LM2020_e1_105","PROD229.png",83,0,"StimBrand",1,1679,"Include"
"LM2020_e1","LM2020_e1_105","PROD239.png",84,0,"StimBrand",1,1117,"Include"
"LM2020_e1","LM2020_e1_105","PROD263.png",85,1,"StimBrand",7,1152,"Include"
"LM2020_e1","LM2020_e1_105","PROD240.png",86,0,"StimBrand",1,1222,"Include"
"LM2020_e1","LM2020_e1_105","PROD241.png",87,0,"StimBrand",1,1105,"Include"
"LM2020_e1","LM2020_e1_105","PROD257.png",88,0,"StimBrand",1,753,"Include"
"LM2020_e1","LM2020_e1_105","PROD261.png",89,0,"StimBrand",1,964,"Include"
"LM2020_e1","LM2020_e1_105","PROD267.png",90,0,"StimBrand",1,789,"Include"
"LM2020_e1","LM2020_e1_105","PROD286.png",91,1,"StimBrand",7,2160,"Include"
"LM2020_e1","LM2020_e1_105","PROD270.png",92,0,"StimBrand",1,894,"Include"
"LM2020_e1","LM2020_e1_105","PROD284.png",93,0,"StimBrand",1,824,"Include"
"LM2020_e1","LM2020_e1_105","PROD288.png",94,1,"StimBrand",7,1472,"Include"
"LM2020_e1","LM2020_e1_105","PROD293.png",95,1,"StimBrand",7,1105,"Include"
"LM2020_e1","LM2020_e1_105","PROD285.png",96,0,"StimBrand",1,789,"Include"
"LM2020_e1","LM2020_e1_105","PROD287.png",97,0,"StimBrand",1,1046,"Include"
"LM2020_e1","LM2020_e1_105","PROD294.png",98,0,"StimBrand",1,859,"Include"
"LM2020_e1","LM2020_e1_105","PROD296.png",99,0,"StimBrand",1,726,"Include"
"LM2020_e1","LM2020_e1_105","PROD297.png",100,0,"StimBrand",1,949,"Include"
"LM2020_e1","LM2020_e1_105","OFF002.png",1,0,"StimOffBrand",1,2074,"Include"
"LM2020_e1","LM2020_e1_105","OFF005.png",2,1,"StimOffBrand",7,1878,"Include"
"LM2020_e1","LM2020_e1_105","OFF004.png",3,0,"StimOffBrand",1,1574,"Include"
"LM2020_e1","LM2020_e1_105","OFF008.png",4,0,"StimOffBrand",1,1292,"Include"
"LM2020_e1","LM2020_e1_105","OFF013.png",5,1,"StimOffBrand",7,1316,"Include"
"LM2020_e1","LM2020_e1_105","OFF014.png",6,1,"StimOffBrand",7,1492,"Include"
"LM2020_e1","LM2020_e1_105","OFF018.png",7,1,"StimOffBrand",6,3226,"Include"
"LM2020_e1","LM2020_e1_105","OFF022.png",8,1,"StimOffBrand",2,2828,"Include"
"LM2020_e1","LM2020_e1_105","OFF012.png",9,0,"StimOffBrand",1,1578,"Include"
"LM2020_e1","LM2020_e1_105","OFF016.png",10,0,"StimOffBrand",1,1500,"Include"
"LM2020_e1","LM2020_e1_105","OFF029.png",11,1,"StimOffBrand",6,3214,"Include"
"LM2020_e1","LM2020_e1_105","OFF031.png",12,1,"StimOffBrand",2,2371,"Include"
"LM2020_e1","LM2020_e1_105","OFF040.png",13,1,"StimOffBrand",7,1808,"Include"
"LM2020_e1","LM2020_e1_105","OFF019.png",14,0,"StimOffBrand",1,1742,"Include"
"LM2020_e1","LM2020_e1_105","OFF045.png",15,1,"StimOffBrand",7,1632,"Include"
"LM2020_e1","LM2020_e1_105","OFF020.png",16,0,"StimOffBrand",1,1687,"Include"
"LM2020_e1","LM2020_e1_105","OFF023.png",17,0,"StimOffBrand",1,1785,"Include"
"LM2020_e1","LM2020_e1_105","OFF051.png",18,1,"StimOffBrand",7,1214,"Include"
"LM2020_e1","LM2020_e1_105","OFF054.png",19,1,"StimOffBrand",3,2371,"Include"
"LM2020_e1","LM2020_e1_105","OFF059.png",20,1,"StimOffBrand",2,4144,"Include"
"LM2020_e1","LM2020_e1_105","OFF024.png",21,0,"StimOffBrand",1,1703,"Include"
"LM2020_e1","LM2020_e1_105","OFF064.png",22,1,"StimOffBrand",7,1597,"Include"
"LM2020_e1","LM2020_e1_105","OFF076.png",23,1,"StimOffBrand",7,1683,"Include"
"LM2020_e1","LM2020_e1_105","OFF101.png",24,1,"StimOffBrand",7,1492,"Include"
"LM2020_e1","LM2020_e1_105","OFF038.png",25,0,"StimOffBrand",1,1457,"Include"
"LM2020_e1","LM2020_e1_105","OFF039.png",26,0,"StimOffBrand",1,1148,"Include"
"LM2020_e1","LM2020_e1_105","OFF110.png",27,1,"StimOffBrand",1,1105,"Include"
"LM2020_e1","LM2020_e1_105","OFF118.png",28,1,"StimOffBrand",6,3988,"Include"
"LM2020_e1","LM2020_e1_105","OFF122.png",29,1,"StimOffBrand",7,1531,"Include"
"LM2020_e1","LM2020_e1_105","OFF124.png",30,1,"StimOffBrand",1,1457,"Include"
"LM2020_e1","LM2020_e1_105","OFF146.png",31,1,"StimOffBrand",7,2207,"Include"
"LM2020_e1","LM2020_e1_105","OFF075.png",32,0,"StimOffBrand",1,1597,"Include"
"LM2020_e1","LM2020_e1_105","OFF148.png",33,1,"StimOffBrand",6,2371,"Include"
"LM2020_e1","LM2020_e1_105","OFF155.png",34,1,"StimOffBrand",7,1578,"Include"
"LM2020_e1","LM2020_e1_105","OFF160.png",35,1,"StimOffBrand",6,2160,"Include"
"LM2020_e1","LM2020_e1_105","OFF171.png",36,1,"StimOffBrand",5,3917,"Include"
"LM2020_e1","LM2020_e1_105","OFF172.png",37,1,"StimOffBrand",7,1527,"Include"
"LM2020_e1","LM2020_e1_105","OFF190.png",38,1,"StimOffBrand",6,3359,"Include"
"LM2020_e1","LM2020_e1_105","OFF080.png",39,0,"StimOffBrand",1,1496,"Include"
"LM2020_e1","LM2020_e1_105","OFF081.png",40,0,"StimOffBrand",2,1332,"Include"
"LM2020_e1","LM2020_e1_105","OFF191.png",41,1,"StimOffBrand",7,2406,"Include"
"LM2020_e1","LM2020_e1_105","OFF082.png",42,0,"StimOffBrand",1,1476,"Include"
"LM2020_e1","LM2020_e1_105","OFF194.png",43,1,"StimOffBrand",7,1527,"Include"
"LM2020_e1","LM2020_e1_105","OFF084.png",44,0,"StimOffBrand",1,1437,"Include"
"LM2020_e1","LM2020_e1_105","OFF088.png",45,0,"StimOffBrand",1,1222,"Include"
"LM2020_e1","LM2020_e1_105","OFF089.png",46,0,"StimOffBrand",1,1042,"Include"
"LM2020_e1","LM2020_e1_105","OFF090.png",47,0,"StimOffBrand",1,1000,"Include"
"LM2020_e1","LM2020_e1_105","OFF092.png",48,0,"StimOffBrand",1,1011,"Include"
"LM2020_e1","LM2020_e1_105","OFF195.png",49,1,"StimOffBrand",7,1421,"Include"
"LM2020_e1","LM2020_e1_105","OFF095.png",50,0,"StimOffBrand",1,1609,"Include"
"LM2020_e1","LM2020_e1_105","OFF196.png",51,1,"StimOffBrand",7,1878,"Include"
"LM2020_e1","LM2020_e1_105","OFF201.png",52,1,"StimOffBrand",7,1859,"Include"
"LM2020_e1","LM2020_e1_105","OFF202.png",53,1,"StimOffBrand",7,1527,"Include"
"LM2020_e1","LM2020_e1_105","OFF203.png",54,1,"StimOffBrand",1,1226,"Include"
"LM2020_e1","LM2020_e1_105","OFF096.png",55,0,"StimOffBrand",1,1113,"Include"
"LM2020_e1","LM2020_e1_105","OFF210.png",56,1,"StimOffBrand",7,1558,"Include"
"LM2020_e1","LM2020_e1_105","OFF103.png",57,0,"StimOffBrand",3,3531,"Include"
"LM2020_e1","LM2020_e1_105","OFF108.png",58,0,"StimOffBrand",1,1250,"Include"
"LM2020_e1","LM2020_e1_105","OFF111.png",59,0,"StimOffBrand",1,1746,"Include"
"LM2020_e1","LM2020_e1_105","OFF112.png",60,0,"StimOffBrand",1,1160,"Include"
"LM2020_e1","LM2020_e1_105","OFF139.png",61,0,"StimOffBrand",1,1183,"Include"
"LM2020_e1","LM2020_e1_105","OFF211.png",62,1,"StimOffBrand",7,1285,"Include"
"LM2020_e1","LM2020_e1_105","OFF212.png",63,1,"StimOffBrand",7,1316,"Include"
"LM2020_e1","LM2020_e1_105","OFF223.png",64,1,"StimOffBrand",7,1140,"Include"
"LM2020_e1","LM2020_e1_105","OFF227.png",65,1,"StimOffBrand",7,1210,"Include"
"LM2020_e1","LM2020_e1_105","OFF230.png",66,1,"StimOffBrand",7,894,"Include"
"LM2020_e1","LM2020_e1_105","OFF140.png",67,0,"StimOffBrand",1,1359,"Include"
"LM2020_e1","LM2020_e1_105","OFF245.png",68,1,"StimOffBrand",7,1351,"Include"
"LM2020_e1","LM2020_e1_105","OFF143.png",69,0,"StimOffBrand",1,1109,"Include"
"LM2020_e1","LM2020_e1_105","OFF246.png",70,1,"StimOffBrand",1,1117,"Include"
"LM2020_e1","LM2020_e1_105","OFF145.png",71,0,"StimOffBrand",1,1089,"Include"
"LM2020_e1","LM2020_e1_105","OFF154.png",72,0,"StimOffBrand",1,1406,"Include"
"LM2020_e1","LM2020_e1_105","OFF156.png",73,0,"StimOffBrand",1,1246,"Include"
"LM2020_e1","LM2020_e1_105","OFF248.png",74,1,"StimOffBrand",3,2250,"Include"
"LM2020_e1","LM2020_e1_105","OFF157.png",75,0,"StimOffBrand",1,1472,"Include"
"LM2020_e1","LM2020_e1_105","OFF249.png",76,1,"StimOffBrand",7,1472,"Include"
"LM2020_e1","LM2020_e1_105","OFF255.png",77,1,"StimOffBrand",6,1847,"Include"
"LM2020_e1","LM2020_e1_105","OFF162.png",78,0,"StimOffBrand",1,1812,"Include"
"LM2020_e1","LM2020_e1_105","OFF167.png",79,0,"StimOffBrand",1,1363,"Include"
"LM2020_e1","LM2020_e1_105","OFF170.png",80,0,"StimOffBrand",1,1855,"Include"
"LM2020_e1","LM2020_e1_105","OFF177.png",81,0,"StimOffBrand",7,1464,"Include"
"LM2020_e1","LM2020_e1_105","OFF181.png",82,0,"StimOffBrand",1,1398,"Include"
"LM2020_e1","LM2020_e1_105","OFF262.png",83,1,"StimOffBrand",7,1070,"Include"
"LM2020_e1","LM2020_e1_105","OFF271.png",84,1,"StimOffBrand",7,894,"Include"
"LM2020_e1","LM2020_e1_105","OFF276.png",85,1,"StimOffBrand",7,824,"Include"
"LM2020_e1","LM2020_e1_105","OFF183.png",86,0,"StimOffBrand",1,1371,"Include"
"LM2020_e1","LM2020_e1_105","OFF222.png",87,0,"StimOffBrand",1,1152,"Include"
"LM2020_e1","LM2020_e1_105","OFF278.png",88,1,"StimOffBrand",7,1070,"Include"
"LM2020_e1","LM2020_e1_105","OFF282.png",89,1,"StimOffBrand",7,960,"Include"
"LM2020_e1","LM2020_e1_105","OFF226.png",90,0,"StimOffBrand",1,1531,"Include"
"LM2020_e1","LM2020_e1_105","OFF283.png",91,1,"StimOffBrand",2,2878,"Include"
"LM2020_e1","LM2020_e1_105","OFF228.png",92,0,"StimOffBrand",1,1953,"Include"
"LM2020_e1","LM2020_e1_105","OFF242.png",93,0,"StimOffBrand",1,1156,"Include"
"LM2020_e1","LM2020_e1_105","OFF243.png",94,0,"StimOffBrand",1,1113,"Include"
"LM2020_e1","LM2020_e1_105","OFF250.png",95,0,"StimOffBrand",1,2417,"Include"
"LM2020_e1","LM2020_e1_105","OFF254.png",96,0,"StimOffBrand",1,976,"Include"
"LM2020_e1","LM2020_e1_105","OFF258.png",97,0,"StimOffBrand",1,902,"Include"
"LM2020_e1","LM2020_e1_105","OFF265.png",98,0,"StimOffBrand",1,1320,"Include"
"LM2020_e1","LM2020_e1_105","OFF266.png",99,0,"StimOffBrand",1,1789,"Include"
"LM2020_e1","LM2020_e1_105","OFF273.png",100,0,"StimOffBrand",1,1500,"Include"
"LM2020_e1","LM2020_e1_107","MS064.png",1,1,"StimDots",6,1851,"Include"
"LM2020_e1","LM2020_e1_107","MS043.png",2,1,"StimDots",7,2515,"Include"
"LM2020_e1","LM2020_e1_107","MS083.png",3,0,"StimDots",5,1894,"Include"
"LM2020_e1","LM2020_e1_107","MS161.png",4,0,"StimDots",5,2554,"Include"
"LM2020_e1","LM2020_e1_107","MS040.png",5,1,"StimDots",2,1703,"Include"
"LM2020_e1","LM2020_e1_107","MS096.png",6,1,"StimDots",7,1773,"Include"
"LM2020_e1","LM2020_e1_107","MS032.png",7,1,"StimDots",7,1667,"Include"
"LM2020_e1","LM2020_e1_107","MS038.png",8,1,"StimDots",5,2019,"Include"
"LM2020_e1","LM2020_e1_107","MS022.png",9,0,"StimDots",3,1078,"Include"
"LM2020_e1","LM2020_e1_107","MS093.png",10,0,"StimDots",6,1886,"Include"
"LM2020_e1","LM2020_e1_107","MS075.png",11,0,"StimDots",7,1460,"Include"
"LM2020_e1","LM2020_e1_107","MS094.png",12,0,"StimDots",1,1164,"Include"
"LM2020_e1","LM2020_e1_107","MS046.png",13,0,"StimDots",2,1421,"Include"
"LM2020_e1","LM2020_e1_107","MS028.png",14,1,"StimDots",2,1187,"Include"
"LM2020_e1","LM2020_e1_107","MS155.png",15,1,"StimDots",6,1718,"Include"
"LM2020_e1","LM2020_e1_107","MS178.png",16,1,"StimDots",2,1015,"Include"
"LM2020_e1","LM2020_e1_107","MS160.png",17,1,"StimDots",3,1949,"Include"
"LM2020_e1","LM2020_e1_107","MS026.png",18,0,"StimDots",1,894,"Include"
"LM2020_e1","LM2020_e1_107","MS174.png",19,1,"StimDots",6,1738,"Include"
"LM2020_e1","LM2020_e1_107","MS132.png",20,0,"StimDots",3,2167,"Include"
"LM2020_e1","LM2020_e1_107","MS070.png",21,0,"StimDots",2,3328,"Include"
"LM2020_e1","LM2020_e1_107","MS168.png",22,0,"StimDots",1,1152,"Include"
"LM2020_e1","LM2020_e1_107","MS016.png",23,0,"StimDots",2,3718,"Include"
"LM2020_e1","LM2020_e1_107","MS117.png",24,1,"StimDots",2,1578,"Include"
"LM2020_e1","LM2020_e1_107","MS066.png",25,0,"StimDots",5,2238,"Include"
"LM2020_e1","LM2020_e1_107","MS157.png",26,0,"StimDots",2,3359,"Include"
"LM2020_e1","LM2020_e1_107","MS077.png",27,1,"StimDots",7,2207,"Include"
"LM2020_e1","LM2020_e1_107","MS123.png",28,1,"StimDots",2,2125,"Include"
"LM2020_e1","LM2020_e1_107","MS128.png",29,0,"StimDots",1,2105,"Include"
"LM2020_e1","LM2020_e1_107","MS118.png",30,0,"StimDots",2,2496,"Include"
"LM2020_e1","LM2020_e1_107","MS163.png",31,1,"StimDots",6,1843,"Include"
"LM2020_e1","LM2020_e1_107","MS111.png",32,1,"StimDots",7,1085,"Include"
"LM2020_e1","LM2020_e1_107","MS021.png",33,1,"StimDots",5,1949,"Include"
"LM2020_e1","LM2020_e1_107","MS063.png",34,0,"StimDots",7,1953,"Include"
"LM2020_e1","LM2020_e1_107","MS008.png",35,0,"StimDots",2,1851,"Include"
"LM2020_e1","LM2020_e1_107","MS115.png",36,0,"StimDots",1,1839,"Include"
"LM2020_e1","LM2020_e1_107","MS047.png",37,0,"StimDots",7,1511,"Include"
"LM2020_e1","LM2020_e1_107","MS013.png",38,0,"StimDots",7,1632,"Include"
"LM2020_e1","LM2020_e1_107","MS079.png",39,0,"StimDots",2,1437,"Include"
"LM2020_e1","LM2020_e1_107","MS049.png",40,0,"StimDots",6,2628,"Include"
"LM2020_e1","LM2020_e1_107","MS147.png",41,0,"StimDots",2,1710,"Include"
"LM2020_e1","LM2020_e1_107","MS009.png",42,0,"StimDots",6,2238,"Include"
"LM2020_e1","LM2020_e1_107","MS169.png",43,1,"StimDots",3,2265,"Include"
"LM2020_e1","LM2020_e1_107","MS039.png",44,1,"StimDots",2,1707,"Include"
"LM2020_e1","LM2020_e1_107","MS044.png",45,1,"StimDots",7,1105,"Include"
"LM2020_e1","LM2020_e1_107","MS137.png",46,1,"StimDots",5,1433,"Include"
"LM2020_e1","LM2020_e1_107","MS104.png",47,0,"StimDots",2,3042,"Include"
"LM2020_e1","LM2020_e1_107","MS076.png",48,1,"StimDots",2,3851,"Include"
"LM2020_e1","LM2020_e1_107","MS020.png",49,1,"StimDots",1,1492,"Include"
"LM2020_e1","LM2020_e1_107","MS113.png",50,0,"StimDots",2,2230,"Include"
"LM2020_e1","LM2020_e1_107","MS124.png",51,1,"StimDots",6,1035,"Include"
"LM2020_e1","LM2020_e1_107","MS082.png",52,0,"StimDots",6,3175,"Include"
"LM2020_e1","LM2020_e1_107","MS001.png",53,1,"StimDots",6,2246,"Include"
"LM2020_e1","LM2020_e1_107","MS105.png",54,0,"StimDots",2,1816,"Include"
"LM2020_e1","LM2020_e1_107","MS024.png",55,1,"StimDots",5,1773,"Include"
"LM2020_e1","LM2020_e1_107","MS146.png",56,1,"StimDots",3,1808,"Include"
"LM2020_e1","LM2020_e1_107","MS164.png",57,1,"StimDots",6,1925,"Include"
"LM2020_e1","LM2020_e1_107","MS006.png",58,0,"StimDots",6,1644,"Include"
"LM2020_e1","LM2020_e1_107","MS109.png",59,0,"StimDots",5,1851,"Include"
"LM2020_e1","LM2020_e1_107","MS136.png",60,0,"StimDots",6,1808,"Include"
"LM2020_e1","LM2020_e1_107","MS171.png",61,0,"StimDots",6,2234,"Include"
"LM2020_e1","LM2020_e1_107","MS003.png",62,0,"StimDots",4,2234,"Include"
"LM2020_e1","LM2020_e1_107","MS019.png",63,0,"StimDots",5,3511,"Include"
"LM2020_e1","LM2020_e1_107","MS062.png",64,0,"StimDots",2,2515,"Include"
"LM2020_e1","LM2020_e1_107","MS131.png",65,0,"StimDots",2,1750,"Include"
"LM2020_e1","LM2020_e1_107","MS057.png",66,0,"StimDots",2,1328,"Include"
"LM2020_e1","LM2020_e1_107","MS175.png",67,0,"StimDots",6,1503,"Include"
"LM2020_e1","LM2020_e1_107","MS108.png",68,1,"StimDots",3,1363,"Include"
"LM2020_e1","LM2020_e1_107","MS121.png",69,1,"StimDots",2,1300,"Include"
"LM2020_e1","LM2020_e1_107","MS101.png",70,0,"StimDots",3,1925,"Include"
"LM2020_e1","LM2020_e1_107","MS107.png",71,1,"StimDots",1,1187,"Include"
"LM2020_e1","LM2020_e1_107","MS071.png",72,0,"StimDots",6,1261,"Include"
"LM2020_e1","LM2020_e1_107","MS084.png",73,0,"StimDots",2,1492,"Include"
"LM2020_e1","LM2020_e1_107","MS112.png",74,1,"StimDots",5,2980,"Include"
"LM2020_e1","LM2020_e1_107","MS130.png",75,0,"StimDots",6,1257,"Include"
"LM2020_e1","LM2020_e1_107","MS167.png",76,1,"StimDots",4,2722,"Include"
"LM2020_e1","LM2020_e1_107","MS116.png",77,0,"StimDots",6,1265,"Include"
"LM2020_e1","LM2020_e1_107","MS073.png",78,1,"StimDots",1,1187,"Include"
"LM2020_e1","LM2020_e1_107","MS177.png",79,1,"StimDots",7,1105,"Include"
"LM2020_e1","LM2020_e1_107","MS036.png",80,0,"StimDots",2,1246,"Include"
"LM2020_e1","LM2020_e1_107","MS110.png",81,0,"StimDots",6,1503,"Include"
"LM2020_e1","LM2020_e1_107","MS180.png",82,0,"StimDots",1,1089,"Include"
"LM2020_e1","LM2020_e1_107","MS068.png",83,0,"StimDots",7,1371,"Include"
"LM2020_e1","LM2020_e1_107","MS059.png",84,0,"StimDots",6,871,"Include"
"LM2020_e1","LM2020_e1_107","MS023.png",85,0,"StimDots",1,1140,"Include"
"LM2020_e1","LM2020_e1_107","MS002.png",86,1,"StimDots",7,1011,"Include"
"LM2020_e1","LM2020_e1_107","MS085.png",87,1,"StimDots",2,2617,"Include"
"LM2020_e1","LM2020_e1_107","MS133.png",88,1,"StimDots",7,1039,"Include"
"LM2020_e1","LM2020_e1_107","MS086.png",89,1,"StimDots",1,2371,"Include"
"LM2020_e1","LM2020_e1_107","MS089.png",90,1,"StimDots",3,2339,"Include"
"LM2020_e1","LM2020_e1_107","MS162.png",91,1,"StimDots",4,2019,"Include"
"LM2020_e1","LM2020_e1_107","MS176.png",92,1,"StimDots",3,1011,"Include"
"LM2020_e1","LM2020_e1_107","MS025.png",93,1,"StimDots",3,2597,"Include"
"LM2020_e1","LM2020_e1_107","MS172.png",94,1,"StimDots",6,1562,"Include"
"LM2020_e1","LM2020_e1_107","MS179.png",95,1,"StimDots",6,1332,"Include"
"LM2020_e1","LM2020_e1_107","MS090.png",96,1,"StimDots",1,1246,"Include"
"LM2020_e1","LM2020_e1_107","MS015.png",97,1,"StimDots",2,1281,"Include"
"LM2020_e1","LM2020_e1_107","MS055.png",98,1,"StimDots",6,1457,"Include"
"LM2020_e1","LM2020_e1_107","MS048.png",99,1,"StimDots",2,1683,"Include"
"LM2020_e1","LM2020_e1_107","MS153.png",100,1,"StimDots",7,789,"Include"
"LM2020_e1","LM2020_e1_107","SWIRL001.png",1,1,"StimSwirl",5,2937,"Include"
"LM2020_e1","LM2020_e1_107","SWIRL005.png",2,0,"StimSwirl",6,1605,"Include"
"LM2020_e1","LM2020_e1_107","SWIRL003.png",3,1,"StimSwirl",3,1773,"Include"
"LM2020_e1","LM2020_e1_107","SWIRL013.png",4,0,"StimSwirl",2,1398,"Include"
"LM2020_e1","LM2020_e1_107","SWIRL014.png",5,0,"StimSwirl",2,1320,"Include"
"LM2020_e1","LM2020_e1_107","SWIRL027.png",6,1,"StimSwirl",5,1421,"Include"
"LM2020_e1","LM2020_e1_107","SWIRL018.png",7,0,"StimSwirl",1,1148,"Include"
"LM2020_e1","LM2020_e1_107","SWIRL030.png",8,1,"StimSwirl",6,1457,"Include"
"LM2020_e1","LM2020_e1_107","SWIRL034.png",9,1,"StimSwirl",2,1281,"Include"
"LM2020_e1","LM2020_e1_107","SWIRL053.png",10,1,"StimSwirl",6,1718,"Include"
"LM2020_e1","LM2020_e1_107","SWIRL022.png",11,0,"StimSwirl",2,867,"Include"
"LM2020_e1","LM2020_e1_107","SWIRL029.png",12,0,"StimSwirl",1,1082,"Include"
"LM2020_e1","LM2020_e1_107","SWIRL031.png",13,0,"StimSwirl",2,1601,"Include"
"LM2020_e1","LM2020_e1_107","SWIRL066.png",14,1,"StimSwirl",6,1367,"Include"
"LM2020_e1","LM2020_e1_107","SWIRL040.png",15,0,"StimSwirl",1,1218,"Include"
"LM2020_e1","LM2020_e1_107","SWIRL070.png",16,1,"StimSwirl",6,1050,"Include"
"LM2020_e1","LM2020_e1_107","SWIRL077.png",17,1,"StimSwirl",6,1175,"Include"
"LM2020_e1","LM2020_e1_107","SWIRL045.png",18,0,"StimSwirl",2,1429,"Include"
"LM2020_e1","LM2020_e1_107","SWIRL086.png",19,1,"StimSwirl",2,1187,"Include"
"LM2020_e1","LM2020_e1_107","SWIRL051.png",20,0,"StimSwirl",3,1148,"Include"
"LM2020_e1","LM2020_e1_107","SWIRL054.png",21,0,"StimSwirl",1,1218,"Include"
