"exp","id","item","trial","isold","condition1","rating","RT","excluding"
"LP2013_e1","LP2013_e1_1","much",1,1,"Normal",4,613,"Include"
"LP2013_e1","LP2013_e1_1","hoop",2,1,"Normal",3,1644,"Include"
"LP2013_e1","LP2013_e1_1","lead",3,1,"Normal",3,1366,"Include"
"LP2013_e1","LP2013_e1_1","tread",4,0,"Normal",2,1172,"Include"
"LP2013_e1","LP2013_e1_1","skinny",5,0,"Normal",2,1085,"Include"
"LP2013_e1","LP2013_e1_1","belt",6,1,"Normal",2,1024,"Include"
"LP2013_e1","LP2013_e1_1","advert",7,1,"Normal",4,1945,"Include"
"LP2013_e1","LP2013_e1_1","nook",8,1,"Normal",4,1769,"Include"
"LP2013_e1","LP2013_e1_1","tale",9,0,"Normal",4,735,"Include"
"LP2013_e1","LP2013_e1_1","drag",10,0,"Normal",4,2243,"Include"
"LP2013_e1","LP2013_e1_1","bade",11,1,"Normal",3,1300,"Include"
"LP2013_e1","LP2013_e1_1","sick",12,0,"Normal",2,1454,"Include"
"LP2013_e1","LP2013_e1_1","pious",13,0,"Normal",2,1030,"Include"
"LP2013_e1","LP2013_e1_1","kip",14,1,"Normal",4,1064,"Include"
"LP2013_e1","LP2013_e1_1","hook",15,0,"Normal",4,754,"Include"
"LP2013_e1","LP2013_e1_1","latex",16,1,"Normal",2,918,"Include"
"LP2013_e1","LP2013_e1_1","reveal",17,0,"Normal",2,1445,"Include"
"LP2013_e1","LP2013_e1_1","jab",18,0,"Normal",4,1179,"Include"
"LP2013_e1","LP2013_e1_1","hock",19,0,"Normal",3,817,"Include"
"LP2013_e1","LP2013_e1_1","oomph",20,0,"Normal",1,1014,"Include"
"LP2013_e1","LP2013_e1_1","con",21,0,"Normal",4,1006,"Include"
"LP2013_e1","LP2013_e1_1","noisy",22,1,"Normal",2,927,"Include"
"LP2013_e1","LP2013_e1_1","finch",23,0,"Normal",1,1436,"Include"
"LP2013_e1","LP2013_e1_1","beat",24,1,"Normal",4,1338,"Include"
"LP2013_e1","LP2013_e1_1","pinon",25,1,"Normal",3,1574,"Include"
"LP2013_e1","LP2013_e1_1","agree",26,1,"Normal",3,1511,"Include"
"LP2013_e1","LP2013_e1_1","mission",27,1,"Normal",1,1588,"Include"
"LP2013_e1","LP2013_e1_1","cup",28,0,"Normal",2,1725,"Include"
"LP2013_e1","LP2013_e1_1","barge",29,0,"Normal",2,979,"Include"
"LP2013_e1","LP2013_e1_1","wage",30,1,"Normal",4,850,"Include"
"LP2013_e1","LP2013_e1_1","mopy",31,0,"Normal",4,1519,"Include"
"LP2013_e1","LP2013_e1_1","choosy",32,1,"Normal",2,1061,"Include"
"LP2013_e1","LP2013_e1_1","spiky",33,0,"Normal",1,965,"Include"
"LP2013_e1","LP2013_e1_1","bled",34,0,"Normal",2,519,"Include"
"LP2013_e1","LP2013_e1_1","sun",35,1,"Normal",4,1275,"Include"
"LP2013_e1","LP2013_e1_1","ravage",36,1,"Normal",4,2066,"Include"
"LP2013_e1","LP2013_e1_1","weave",37,1,"Normal",2,2453,"Include"
"LP2013_e1","LP2013_e1_1","avert",38,0,"Normal",2,1559,"Include"
"LP2013_e1","LP2013_e1_1","blazer",39,0,"Normal",1,1812,"Include"
"LP2013_e1","LP2013_e1_1","huck",40,1,"Normal",4,1484,"Include"
"LP2013_e1","LP2013_e1_1","nun",41,0,"Normal",4,1042,"Include"
"LP2013_e1","LP2013_e1_1","cumin",42,1,"Normal",2,895,"Include"
"LP2013_e1","LP2013_e1_1","wale",43,1,"Normal",4,812,"Include"
"LP2013_e1","LP2013_e1_1","spicy",44,0,"Normal",1,2112,"Include"
"LP2013_e1","LP2013_e1_1","smock",45,0,"Normal",2,1562,"Include"
"LP2013_e1","LP2013_e1_1","area",46,0,"Normal",4,863,"Include"
"LP2013_e1","LP2013_e1_1","glad",47,1,"Normal",3,2091,"Include"
"LP2013_e1","LP2013_e1_1","quin",48,1,"Normal",2,1460,"Include"
"LP2013_e1","LP2013_e1_1","daze",49,1,"Normal",3,551,"Include"
"LP2013_e1","LP2013_e1_1","mooch",50,1,"Normal",2,1322,"Include"
"LP2013_e1","LP2013_e1_1","waltz",51,0,"Normal",4,809,"Include"
"LP2013_e1","LP2013_e1_1","exert",52,1,"Normal",2,1365,"Include"
"LP2013_e1","LP2013_e1_1","dwelt",53,0,"Normal",1,1802,"Include"
"LP2013_e1","LP2013_e1_1","sup",54,1,"Normal",4,854,"Include"
"LP2013_e1","LP2013_e1_1","suck",55,1,"Normal",4,713,"Include"
"LP2013_e1","LP2013_e1_1","beg",56,1,"Normal",2,878,"Include"
"LP2013_e1","LP2013_e1_1","rat",57,1,"Normal",4,1118,"Include"
"LP2013_e1","LP2013_e1_1","zeal",58,1,"Normal",3,854,"Include"
"LP2013_e1","LP2013_e1_1","skim",59,1,"Normal",2,1313,"Include"
"LP2013_e1","LP2013_e1_1","ware",60,0,"Normal",4,582,"Include"
"LP2013_e1","LP2013_e1_1","beret",61,1,"Normal",1,1658,"Include"
"LP2013_e1","LP2013_e1_1","impish",62,1,"Normal",4,1058,"Include"
"LP2013_e1","LP2013_e1_1","ale",63,1,"Normal",2,928,"Include"
"LP2013_e1","LP2013_e1_1","ledger",64,0,"Normal",1,1238,"Include"
"LP2013_e1","LP2013_e1_1","hymn",65,1,"Normal",4,937,"Include"
"LP2013_e1","LP2013_e1_1","war",66,1,"Normal",4,1097,"Include"
"LP2013_e1","LP2013_e1_1","piss",67,1,"Normal",2,2062,"Include"
"LP2013_e1","LP2013_e1_1","onus",68,1,"Normal",3,1671,"Include"
"LP2013_e1","LP2013_e1_1","elder",69,1,"Normal",2,1274,"Include"
"LP2013_e1","LP2013_e1_1","bale",70,0,"Normal",4,616,"Include"
"LP2013_e1","LP2013_e1_1","you",71,1,"Normal",3,355,"Include"
"LP2013_e1","LP2013_e1_1","art",72,0,"Normal",4,622,"Include"
"LP2013_e1","LP2013_e1_1","jade",73,1,"Normal",4,1448,"Include"
"LP2013_e1","LP2013_e1_1","posy",74,1,"Normal",2,1017,"Include"
"LP2013_e1","LP2013_e1_1","chin",75,0,"Normal",4,620,"Include"
"LP2013_e1","LP2013_e1_1","sic",76,0,"Normal",3,945,"Include"
"LP2013_e1","LP2013_e1_1","jar",77,0,"Normal",3,902,"Include"
"LP2013_e1","LP2013_e1_1","mum",78,0,"Normal",2,669,"Include"
"LP2013_e1","LP2013_e1_1","cony",79,1,"Normal",2,573,"Include"
"LP2013_e1","LP2013_e1_1","brave",80,1,"Normal",3,893,"Include"
"LP2013_e1","LP2013_e1_1","lab",81,0,"Normal",4,569,"Include"
"LP2013_e1","LP2013_e1_1","piny",82,1,"Normal",3,526,"Include"
"LP2013_e1","LP2013_e1_1","mom",83,1,"Normal",3,646,"Include"
"LP2013_e1","LP2013_e1_1","reel",84,0,"Normal",2,534,"Include"
"LP2013_e1","LP2013_e1_1","nymph",85,1,"Normal",2,716,"Include"
"LP2013_e1","LP2013_e1_1","chip",86,0,"Normal",4,695,"Include"
"LP2013_e1","LP2013_e1_1","ravel",87,1,"Normal",2,1462,"Include"
"LP2013_e1","LP2013_e1_1","leave",88,0,"Normal",3,841,"Include"
"LP2013_e1","LP2013_e1_1","beet",89,0,"Normal",2,1211,"Include"
"LP2013_e1","LP2013_e1_1","poppy",90,0,"Normal",3,493,"Include"
"LP2013_e1","LP2013_e1_1","eel",91,0,"Normal",2,762,"Include"
"LP2013_e1","LP2013_e1_1","rave",92,0,"Normal",4,567,"Include"
"LP2013_e1","LP2013_e1_1","evade",93,1,"Normal",3,354,"Include"
"LP2013_e1","LP2013_e1_1","spy",94,1,"Normal",2,2931,"Include"
"LP2013_e1","LP2013_e1_1","rate",95,0,"Normal",4,535,"Include"
"LP2013_e1","LP2013_e1_1","brew",96,1,"Normal",4,592,"Include"
"LP2013_e1","LP2013_e1_1","bet",97,0,"Normal",4,567,"Include"
"LP2013_e1","LP2013_e1_1","era",98,1,"Normal",3,768,"Include"
"LP2013_e1","LP2013_e1_1","ossify",99,0,"Normal",1,1492,"Include"
"LP2013_e1","LP2013_e1_1","focus",100,1,"Normal",2,563,"Include"
"LP2013_e1","LP2013_e1_1","earl",101,1,"Normal",3,489,"Include"
"LP2013_e1","LP2013_e1_1","led",102,1,"Normal",4,660,"Include"
"LP2013_e1","LP2013_e1_1","icon",103,1,"Normal",3,544,"Include"
"LP2013_e1","LP2013_e1_1","ship",104,0,"Normal",2,663,"Include"
"LP2013_e1","LP2013_e1_1","poncho",105,0,"Normal",4,539,"Include"
"LP2013_e1","LP2013_e1_1","tag",106,0,"Normal",4,727,"Include"
"LP2013_e1","LP2013_e1_1","cusp",107,1,"Normal",2,914,"Include"
"LP2013_e1","LP2013_e1_1","water",108,1,"Normal",1,1271,"Include"
"LP2013_e1","LP2013_e1_1","pony",109,0,"Normal",2,679,"Include"
"LP2013_e1","LP2013_e1_1","union",110,0,"Normal",3,648,"Include"
"LP2013_e1","LP2013_e1_1","funk",111,0,"Normal",4,665,"Include"
"LP2013_e1","LP2013_e1_1","grade",112,0,"Normal",2,713,"Include"
"LP2013_e1","LP2013_e1_1","greed",113,0,"Normal",3,777,"Include"
"LP2013_e1","LP2013_e1_1","verb",114,0,"Normal",4,554,"Include"
"LP2013_e1","LP2013_e1_1","chum",115,0,"Normal",2,320,"Include"
"LP2013_e1","LP2013_e1_1","cop",116,0,"Normal",4,831,"Include"
"LP2013_e1","LP2013_e1_1","inch",117,0,"Normal",4,621,"Include"
"LP2013_e1","LP2013_e1_1","finish",118,0,"Normal",2,1177,"Include"
"LP2013_e1","LP2013_e1_1","shiny",119,0,"Normal",2,2366,"Include"
"LP2013_e1","LP2013_e1_1","leg",120,0,"Normal",4,570,"Include"
"LP2013_e1","LP2013_e1_1","kick",121,0,"Normal",3,658,"Include"
"LP2013_e1","LP2013_e1_1","age",122,0,"Normal",2,1070,"Include"
"LP2013_e1","LP2013_e1_1","mick",123,1,"Normal",1,2009,"Include"
"LP2013_e1","LP2013_e1_1","pomp",124,0,"Normal",3,1016,"Include"
"LP2013_e1","LP2013_e1_1","gravel",125,1,"Normal",2,838,"Include"
"LP2013_e1","LP2013_e1_1","homy",126,0,"Normal",4,606,"Include"
"LP2013_e1","LP2013_e1_1","soon",127,1,"Normal",2,622,"Include"
"LP2013_e1","LP2013_e1_1","elate",128,1,"Normal",4,1703,"Include"
"LP2013_e1","LP2013_e1_1","tar",129,1,"Normal",3,2223,"Include"
"LP2013_e1","LP2013_e1_1","beaver",130,0,"Normal",1,1834,"Include"
"LP2013_e1","LP2013_e1_1","drew",131,0,"Normal",3,1067,"Include"
"LP2013_e1","LP2013_e1_1","physic",132,0,"Normal",2,1745,"Include"
"LP2013_e1","LP2013_e1_1","veer",133,0,"Normal",4,715,"Include"
"LP2013_e1","LP2013_e1_1","spoof",134,0,"Normal",1,1318,"Include"
"LP2013_e1","LP2013_e1_1","finicky",135,0,"Normal",1,931,"Include"
"LP2013_e1","LP2013_e1_1","weed",136,0,"Normal",2,1313,"Include"
"LP2013_e1","LP2013_e1_1","tea",137,1,"Normal",3,955,"Include"
"LP2013_e1","LP2013_e1_1","quip",138,0,"Normal",4,806,"Include"
"LP2013_e1","LP2013_e1_1","snuff",139,1,"Normal",2,1185,"Include"
"LP2013_e1","LP2013_e1_1","bad",140,1,"Normal",2,786,"Include"
"LP2013_e1","LP2013_e1_1","tee",141,0,"Normal",3,504,"Include"
"LP2013_e1","LP2013_e1_1","ere",142,0,"Normal",2,648,"Include"
"LP2013_e1","LP2013_e1_1","gel",143,0,"Normal",2,751,"Include"
"LP2013_e1","LP2013_e1_1","able",144,0,"Normal",1,1342,"Include"
"LP2013_e1","LP2013_e1_1","bread",145,0,"Normal",2,1125,"Include"
"LP2013_e1","LP2013_e1_1","reave",146,0,"Normal",3,1350,"Include"
"LP2013_e1","LP2013_e1_1","warble",147,0,"Normal",1,1497,"Include"
"LP2013_e1","LP2013_e1_1","drab",148,1,"Normal",2,560,"Include"
"LP2013_e1","LP2013_e1_1","lag",149,0,"Normal",3,986,"Include"
"LP2013_e1","LP2013_e1_1","web",150,1,"Normal",4,591,"Include"
"LP2013_e1","LP2013_e1_1","punch",151,1,"Normal",2,608,"Include"
"LP2013_e1","LP2013_e1_1","phony",152,1,"Normal",2,1233,"Include"
"LP2013_e1","LP2013_e1_1","phi",153,1,"Normal",1,1408,"Include"
"LP2013_e1","LP2013_e1_1","beard",154,1,"Normal",2,1100,"Include"
"LP2013_e1","LP2013_e1_1","fin",155,1,"Normal",3,1335,"Include"
"LP2013_e1","LP2013_e1_1","pun",156,0,"Normal",2,1309,"Include"
"LP2013_e1","LP2013_e1_1","raze",157,1,"Normal",2,816,"Include"
"LP2013_e1","LP2013_e1_1","gaze",158,0,"Normal",2,606,"Include"
"LP2013_e1","LP2013_e1_1","moss",159,0,"Normal",4,1074,"Include"
"LP2013_e1","LP2013_e1_1","mummy",160,0,"Normal",1,1164,"Include"
"LP2013_e1","LP2013_e1_1","cousin",161,0,"Normal",1,1085,"Include"
"LP2013_e1","LP2013_e1_1","ever",162,0,"Normal",4,1127,"Include"
"LP2013_e1","LP2013_e1_1","brat",163,0,"Normal",2,1554,"Include"
"LP2013_e1","LP2013_e1_1","poison",164,1,"Normal",1,859,"Include"
"LP2013_e1","LP2013_e1_1","revel",165,1,"Normal",2,826,"Include"
"LP2013_e1","LP2013_e1_1","moo",166,1,"Normal",4,946,"Include"
"LP2013_e1","LP2013_e1_1","mink",167,0,"Normal",2,567,"Include"
"LP2013_e1","LP2013_e1_1","his",168,0,"Normal",2,858,"Include"
"LP2013_e1","LP2013_e1_1","badger",169,0,"Normal",4,628,"Include"
"LP2013_e1","LP2013_e1_1","bleat",170,0,"Normal",1,331,"Include"
"LP2013_e1","LP2013_e1_1","get",171,1,"Normal",2,453,"Include"
"LP2013_e1","LP2013_e1_1","level",172,1,"Normal",4,732,"Include"
"LP2013_e1","LP2013_e1_1","music",173,1,"Normal",1,764,"Include"
"LP2013_e1","LP2013_e1_1","cosy",174,1,"Normal",2,475,"Include"
"LP2013_e1","LP2013_e1_1","weal",175,0,"Normal",4,578,"Include"
"LP2013_e1","LP2013_e1_1","weld",176,1,"Normal",2,484,"Include"
"LP2013_e1","LP2013_e1_1","muck",177,0,"Normal",4,543,"Include"
"LP2013_e1","LP2013_e1_1","bag",178,0,"Normal",3,724,"Include"
"LP2013_e1","LP2013_e1_1","java",179,0,"Normal",2,515,"Include"
"LP2013_e1","LP2013_e1_1","spiny",180,1,"Normal",1,629,"Include"
"LP2013_e1","LP2013_e1_1","kiss",181,1,"Normal",2,482,"Include"
"LP2013_e1","LP2013_e1_1","schism",182,1,"Normal",1,1255,"Include"
"LP2013_e1","LP2013_e1_1","great",183,0,"Normal",2,811,"Include"
"LP2013_e1","LP2013_e1_1","debate",184,0,"Normal",4,956,"Include"
"LP2013_e1","LP2013_e1_1","punish",185,0,"Normal",3,677,"Include"
"LP2013_e1","LP2013_e1_1","pick",186,0,"Normal",2,619,"Include"
"LP2013_e1","LP2013_e1_1","mush",187,1,"Normal",3,536,"Include"
"LP2013_e1","LP2013_e1_1","ward",188,0,"Normal",2,643,"Include"
"LP2013_e1","LP2013_e1_1","non",189,1,"Normal",2,698,"Include"
"LP2013_e1","LP2013_e1_1","aware",190,0,"Normal",2,967,"Include"
"LP2013_e1","LP2013_e1_1","pin",191,0,"Normal",2,872,"Include"
"LP2013_e1","LP2013_e1_1","delta",192,1,"Normal",1,813,"Include"
"LP2013_e1","LP2013_e1_1","eat",193,1,"Normal",2,701,"Include"
"LP2013_e1","LP2013_e1_1","pouf",194,1,"Normal",3,655,"Include"
"LP2013_e1","LP2013_e1_1","puny",195,1,"Normal",2,2082,"Include"
"LP2013_e1","LP2013_e1_1","opus",196,1,"Normal",4,1307,"Include"
"LP2013_e1","LP2013_e1_1","shuck",197,1,"Normal",4,626,"Include"
"LP2013_e1","LP2013_e1_1","snip",198,0,"Normal",3,580,"Include"
"LP2013_e1","LP2013_e1_1","such",199,0,"Normal",3,452,"Include"
"LP2013_e1","LP2013_e1_1","nosh",200,1,"Normal",3,671,"Include"
"LP2013_e1","LP2013_e1_1","drat",201,0,"Normal",3,659,"Include"
"LP2013_e1","LP2013_e1_1","wedge",202,1,"Normal",2,566,"Include"
"LP2013_e1","LP2013_e1_1","coupon",203,1,"Normal",1,1124,"Include"
"LP2013_e1","LP2013_e1_1","mop",204,0,"Normal",2,640,"Include"
"LP2013_e1","LP2013_e1_1","son",205,0,"Normal",4,865,"Include"
"LP2013_e1","LP2013_e1_1","zebra",206,1,"Normal",2,584,"Include"
"LP2013_e1","LP2013_e1_1","pinch",207,1,"Normal",2,759,"Include"
"LP2013_e1","LP2013_e1_1","ink",208,1,"Normal",2,414,"Include"
"LP2013_e1","LP2013_e1_1","glaze",209,1,"Normal",3,1175,"Include"
"LP2013_e1","LP2013_e1_1","beer",210,1,"Normal",2,331,"Include"
"LP2013_e1","LP2013_e1_1","jaw",211,0,"Normal",1,631,"Include"
"LP2013_e1","LP2013_e1_1","garb",212,0,"Normal",2,477,"Include"
"LP2013_e1","LP2013_e1_1","wave",213,0,"Normal",3,447,"Include"
"LP2013_e1","LP2013_e1_1","breed",214,1,"Normal",4,584,"Include"
"LP2013_e1","LP2013_e1_1","regal",215,1,"Normal",2,589,"Include"
"LP2013_e1","LP2013_e1_1","grab",216,1,"Normal",4,498,"Include"
"LP2013_e1","LP2013_e1_1","tweed",217,1,"Normal",3,563,"Include"
"LP2013_e1","LP2013_e1_1","tear",218,1,"Normal",2,653,"Include"
"LP2013_e1","LP2013_e1_1","hiss",219,1,"Normal",3,427,"Include"
"LP2013_e1","LP2013_e1_1","sum",220,0,"Normal",4,660,"Include"
"LP2013_e1","LP2013_e1_1","cuss",221,0,"Normal",2,1039,"Include"
"LP2013_e1","LP2013_e1_1","tab",222,1,"Normal",3,424,"Include"
"LP2013_e1","LP2013_e1_1","pouch",223,1,"Normal",2,551,"Include"
"LP2013_e1","LP2013_e1_1","punk",224,0,"Normal",2,438,"Include"
"LP2013_e1","LP2013_e1_1","exalt",225,1,"Normal",2,631,"Include"
"LP2013_e1","LP2013_e1_1","kiosk",226,0,"Normal",1,534,"Include"
"LP2013_e1","LP2013_e1_1","bead",227,1,"Normal",4,510,"Include"
"LP2013_e1","LP2013_e1_1","sunny",228,0,"Normal",2,729,"Include"
"LP2013_e1","LP2013_e1_1","deal",229,1,"Normal",4,354,"Include"
"LP2013_e1","LP2013_e1_1","fish",230,1,"Normal",4,817,"Include"
"LP2013_e1","LP2013_e1_1","pock",231,0,"Normal",3,752,"Include"
"LP2013_e1","LP2013_e1_1","hum",232,0,"Normal",1,1262,"Include"
"LP2013_e1","LP2013_e1_1","funny",233,0,"Normal",2,2001,"Include"
"LP2013_e1","LP2013_e1_1","scion",234,1,"Normal",2,790,"Include"
"LP2013_e1","LP2013_e1_1","cook",235,1,"Normal",3,527,"Include"
"LP2013_e1","LP2013_e1_1","lava",236,1,"Normal",4,496,"Include"
"LP2013_e1","LP2013_e1_1","hocus",237,0,"Normal",2,605,"Include"
"LP2013_e1","LP2013_e1_1","fuss",238,1,"Normal",2,680,"Include"
"LP2013_e1","LP2013_e1_1","blare",239,0,"Normal",2,601,"Include"
"LP2013_e1","LP2013_e1_1","bear",240,1,"Normal",4,556,"Include"
"LP2013_e1","LP2013_e1_1","cuckoo",241,0,"Letter_Segregated",1,910,"Include"
"LP2013_e1","LP2013_e1_1","mumps",242,0,"Letter_Segregated",1,766,"Include"
"LP2013_e1","LP2013_e1_1","pop",243,0,"Letter_Segregated",4,573,"Include"
"LP2013_e1","LP2013_e1_1","graze",244,1,"Letter_Segregated",4,1012,"Include"
"LP2013_e1","LP2013_e1_1","bat",245,1,"Letter_Segregated",4,730,"Include"
"LP2013_e1","LP2013_e1_1","hoofs",246,0,"Letter_Segregated",4,1027,"Include"
"LP2013_e1","LP2013_e1_1","trade",247,1,"Letter_Segregated",4,674,"Include"
"LP2013_e1","LP2013_e1_1","hop",248,0,"Letter_Segregated",4,580,"Include"
"LP2013_e1","LP2013_e1_1","rebel",249,1,"Letter_Segregated",2,807,"Include"
"LP2013_e1","LP2013_e1_1","laze",250,1,"Letter_Segregated",2,547,"Include"
"LP2013_e1","LP2013_e1_1","pip",251,0,"Letter_Segregated",1,936,"Include"
"LP2013_e1","LP2013_e1_1","gavel",252,1,"Letter_Segregated",4,1205,"Include"
"LP2013_e1","LP2013_e1_1","valet",253,1,"Letter_Segregated",4,1183,"Include"
"LP2013_e1","LP2013_e1_1","opium",254,0,"Letter_Segregated",2,999,"Include"
"LP2013_e1","LP2013_e1_1","real",255,1,"Letter_Segregated",1,1172,"Include"
"LP2013_e1","LP2013_e1_1","drawl",256,1,"Letter_Segregated",3,808,"Include"
"LP2013_e1","LP2013_e1_1","braze",257,1,"Letter_Segregated",2,484,"Include"
"LP2013_e1","LP2013_e1_1","miff",258,0,"Letter_Segregated",1,970,"Include"
"LP2013_e1","LP2013_e1_1","bar",259,1,"Letter_Segregated",2,575,"Include"
"LP2013_e1","LP2013_e1_1","alder",260,1,"Letter_Segregated",1,1133,"Include"
"LP2013_e1","LP2013_e1_1","rag",261,1,"Letter_Segregated",2,552,"Include"
"LP2013_e1","LP2013_e1_1","wager",262,1,"Letter_Segregated",4,829,"Include"
"LP2013_e1","LP2013_e1_1","skip",263,0,"Letter_Segregated",3,502,"Include"
"LP2013_e1","LP2013_e1_1","sunk",264,0,"Letter_Segregated",2,541,"Include"
"LP2013_e1","LP2013_e1_1","skin",265,0,"Letter_Segregated",2,526,"Include"
"LP2013_e1","LP2013_e1_1","wax",266,1,"Letter_Segregated",2,603,"Include"
"LP2013_e1","LP2013_e1_1","scuff",267,0,"Letter_Segregated",4,540,"Include"
"LP2013_e1","LP2013_e1_1","wed",268,1,"Letter_Segregated",2,494,"Include"
"LP2013_e1","LP2013_e1_1","data",269,1,"Letter_Segregated",3,404,"Include"
"LP2013_e1","LP2013_e1_1","red",270,1,"Letter_Segregated",2,391,"Include"
"LP2013_e1","LP2013_e1_1","musk",271,0,"Letter_Segregated",3,310,"Include"
"LP2013_e1","LP2013_e1_1","sonic",272,0,"Letter_Segregated",2,839,"Include"
"LP2013_e1","LP2013_e1_1","chimp",273,0,"Letter_Segregated",1,540,"Include"
"LP2013_e1","LP2013_e1_1","monk",274,0,"Letter_Segregated",4,831,"Include"
"LP2013_e1","LP2013_e1_1","alert",275,1,"Letter_Segregated",3,450,"Include"
"LP2013_e1","LP2013_e1_1","pinky",276,0,"Letter_Segregated",2,553,"Include"
"LP2013_e1","LP2013_e1_1","moon",277,0,"Letter_Segregated",2,441,"Include"
"LP2013_e1","LP2013_e1_1","jeer",278,1,"Letter_Segregated",2,569,"Include"
"LP2013_e1","LP2013_e1_1","smooch",279,0,"Letter_Segregated",1,841,"Include"
"LP2013_e1","LP2013_e1_1","beadle",280,1,"Letter_Segregated",1,1025,"Include"
"LP2013_e1","LP2013_e1_1","fusion",281,0,"Letter_Segregated",2,484,"Include"
"LP2013_e1","LP2013_e1_1","puck",282,0,"Letter_Segregated",2,523,"Include"
"LP2013_e1","LP2013_e1_1","scoop",283,0,"Letter_Segregated",2,530,"Include"
"LP2013_e1","LP2013_e1_1","chunk",284,0,"Letter_Segregated",4,601,"Include"
"LP2013_e1","LP2013_e1_1","gear",285,1,"Letter_Segregated",3,386,"Include"
"LP2013_e1","LP2013_e1_1","coif",286,0,"Letter_Segregated",2,527,"Include"
"LP2013_e1","LP2013_e1_1","lax",287,1,"Letter_Segregated",1,548,"Include"
"LP2013_e1","LP2013_e1_1","chop",288,0,"Letter_Segregated",2,640,"Include"
"LP2013_e1","LP2013_e1_1","ewe",289,1,"Letter_Segregated",3,478,"Include"
"LP2013_e1","LP2013_e1_1","wart",290,1,"Letter_Segregated",2,497,"Include"
"LP2013_e1","LP2013_e1_1","unify",291,0,"Letter_Segregated",4,534,"Include"
"LP2013_e1","LP2013_e1_1","sink",292,0,"Letter_Segregated",2,494,"Include"
"LP2013_e1","LP2013_e1_1","bree",293,1,"Letter_Segregated",4,563,"Include"
"LP2013_e1","LP2013_e1_1","skimp",294,0,"Letter_Segregated",2,636,"Include"
"LP2013_e1","LP2013_e1_1","sin",295,0,"Letter_Segregated",3,339,"Include"
"LP2013_e1","LP2013_e1_1","glee",296,1,"Letter_Segregated",4,1035,"Include"
"LP2013_e1","LP2013_e1_1","coin",297,0,"Letter_Segregated",4,490,"Include"
"LP2013_e1","LP2013_e1_1","chomp",298,0,"Letter_Segregated",4,365,"Include"
"LP2013_e1","LP2013_e1_1","large",299,1,"Letter_Segregated",2,414,"Include"
"LP2013_e1","LP2013_e1_1","push",300,0,"Letter_Segregated",2,453,"Include"
"LP2013_e1","LP2013_e1_1","nip",301,0,"Letter_Segregated",2,459,"Include"
"LP2013_e1","LP2013_e1_1","vertex",302,1,"Letter_Segregated",1,653,"Include"
"LP2013_e1","LP2013_e1_1","miss",303,0,"Letter_Segregated",1,826,"Include"
"LP2013_e1","LP2013_e1_1","shook",304,0,"Letter_Segregated",1,916,"Include"
"LP2013_e1","LP2013_e1_1","icy",305,0,"Letter_Segregated",2,502,"Include"
"LP2013_e1","LP2013_e1_1","axle",306,1,"Letter_Segregated",2,598,"Include"
"LP2013_e1","LP2013_e1_1","lard",307,1,"Letter_Segregated",2,489,"Include"
"LP2013_e1","LP2013_e1_1","ear",308,1,"Letter_Segregated",2,1542,"Include"
"LP2013_e1","LP2013_e1_1","nom",309,0,"Letter_Segregated",2,502,"Include"
"LP2013_e1","LP2013_e1_1","kimono",310,0,"Letter_Segregated",1,342,"Include"
"LP2013_e1","LP2013_e1_1","badge",311,1,"Letter_Segregated",2,480,"Include"
"LP2013_e1","LP2013_e1_1","blade",312,1,"Letter_Segregated",2,591,"Include"
"LP2013_e1","LP2013_e1_1","muff",313,0,"Letter_Segregated",4,523,"Include"
"LP2013_e1","LP2013_e1_1","algebra",314,1,"Letter_Segregated",2,448,"Include"
"LP2013_e1","LP2013_e1_1","award",315,1,"Letter_Segregated",2,468,"Include"
"LP2013_e1","LP2013_e1_1","pup",316,0,"Letter_Segregated",4,610,"Include"
"LP2013_e1","LP2013_e1_1","sop",317,0,"Letter_Segregated",2,552,"Include"
"LP2013_e1","LP2013_e1_1","pons",318,0,"Letter_Segregated",2,423,"Include"
"LP2013_e1","LP2013_e1_1","off",319,0,"Letter_Segregated",2,479,"Include"
"LP2013_e1","LP2013_e1_1","mousy",320,0,"Letter_Segregated",1,472,"Include"
"LP2013_e1","LP2013_e1_1","brawl",321,1,"Letter_Segregated",2,562,"Include"
"LP2013_e1","LP2013_e1_1","dear",322,1,"Letter_Segregated",2,463,"Include"
"LP2013_e1","LP2013_e1_1","ledge",323,1,"Letter_Segregated",2,423,"Include"
"LP2013_e1","LP2013_e1_1","law",324,1,"Letter_Segregated",2,494,"Include"
"LP2013_e1","LP2013_e1_1","reed",325,1,"Letter_Segregated",2,362,"Include"
"LP2013_e1","LP2013_e1_1","tree",326,1,"Letter_Segregated",2,339,"Include"
"LP2013_e1","LP2013_e1_1","hump",327,0,"Letter_Segregated",2,445,"Include"
"LP2013_e1","LP2013_e1_1","honk",328,0,"Letter_Segregated",NA,NA,"Exclude"
"LP2013_e1","LP2013_e1_1","opossum",329,0,"Letter_Segregated",1,855,"Include"
"LP2013_e1","LP2013_e1_1","coo",330,0,"Letter_Segregated",1,644,"Include"
"LP2013_e1","LP2013_e1_1","beagle",331,1,"Letter_Segregated",1,750,"Include"
"LP2013_e1","LP2013_e1_1","beta",332,1,"Letter_Segregated",1,1241,"Include"
"LP2013_e1","LP2013_e1_1","spoon",333,0,"Letter_Segregated",2,692,"Include"
"LP2013_e1","LP2013_e1_1","shin",334,0,"Letter_Segregated",2,836,"Include"
"LP2013_e1","LP2013_e1_1","scum",335,0,"Letter_Segregated",4,1059,"Include"
"LP2013_e1","LP2013_e1_1","twelve",336,1,"Letter_Segregated",4,930,"Include"
"LP2013_e1","LP2013_e1_1","debt",337,1,"Letter_Segregated",3,849,"Include"
"LP2013_e1","LP2013_e1_1","welt",338,1,"Letter_Segregated",3,753,"Include"
"LP2013_e1","LP2013_e1_1","rage",339,1,"Letter_Segregated",4,642,"Include"
"LP2013_e1","LP2013_e1_1","poky",340,0,"Letter_Segregated",2,897,"Include"
"LP2013_e1","LP2013_e1_1","vet",341,1,"Letter_Segregated",2,536,"Include"
"LP2013_e1","LP2013_e1_1","were",342,1,"Letter_Segregated",2,628,"Include"
"LP2013_e1","LP2013_e1_1","glare",343,1,"Letter_Segregated",2,447,"Include"
"LP2013_e1","LP2013_e1_1","bred",344,1,"Letter_Segregated",2,539,"Include"
"LP2013_e1","LP2013_e1_1","are",345,1,"Letter_Segregated",2,424,"Include"
"LP2013_e1","LP2013_e1_1","spook",346,0,"Letter_Segregated",2,519,"Include"
"LP2013_e1","LP2013_e1_1","teal",347,1,"Letter_Segregated",2,352,"Include"
"LP2013_e1","LP2013_e1_1","summon",348,0,"Letter_Segregated",1,692,"Include"
"LP2013_e1","LP2013_e1_1","puff",349,0,"Letter_Segregated",3,1066,"Include"
"LP2013_e1","LP2013_e1_1","bagel",350,1,"Letter_Segregated",4,1027,"Include"
"LP2013_e1","LP2013_e1_1","axe",351,1,"Letter_Segregated",4,561,"Include"
"LP2013_e1","LP2013_e1_1","fumy",352,0,"Letter_Segregated",4,349,"Include"
"LP2013_e1","LP2013_e1_1","psychic",353,0,"Letter_Segregated",1,945,"Include"
"LP2013_e1","LP2013_e1_1","wear",354,1,"Letter_Segregated",2,520,"Include"
"LP2013_e1","LP2013_e1_1","edge",355,1,"Letter_Segregated",3,559,"Include"
"LP2013_e1","LP2013_e1_1","wade",356,1,"Letter_Segregated",4,395,"Include"
"LP2013_e1","LP2013_e1_1","nosy",357,0,"Letter_Segregated",4,503,"Include"
"LP2013_e1","LP2013_e1_1","raw",358,1,"Letter_Segregated",3,590,"Include"
"LP2013_e1","LP2013_e1_1","cuff",359,0,"Letter_Segregated",2,448,"Include"
"LP2013_e1","LP2013_e1_1","ski",360,0,"Letter_Segregated",2,570,"Include"
"LP2013_e1","LP2013_e1_1","shop",361,0,"Letter_Segregated",2,644,"Include"
"LP2013_e1","LP2013_e1_1","hon",362,0,"Letter_Segregated",2,807,"Include"
"LP2013_e1","LP2013_e1_1","greet",363,1,"Letter_Segregated",2,475,"Include"
"LP2013_e1","LP2013_e1_1","chick",364,0,"Letter_Segregated",2,727,"Include"
"LP2013_e1","LP2013_e1_1","veal",365,1,"Letter_Segregated",2,820,"Include"
"LP2013_e1","LP2013_e1_1","wad",366,1,"Letter_Segregated",4,1060,"Include"
"LP2013_e1","LP2013_e1_1","travel",367,1,"Letter_Segregated",NA,NA,"Exclude"
"LP2013_e1","LP2013_e1_1","algae",368,1,"Letter_Segregated",4,1123,"Include"
"LP2013_e1","LP2013_e1_1","grave",369,1,"Letter_Segregated",4,1102,"Include"
"LP2013_e1","LP2013_e1_1","begat",370,1,"Letter_Segregated",1,768,"Include"
"LP2013_e1","LP2013_e1_1","kin",371,0,"Letter_Segregated",2,990,"Include"
"LP2013_e1","LP2013_e1_1","gab",372,1,"Letter_Segregated",4,599,"Include"
"LP2013_e1","LP2013_e1_1","jet",373,1,"Letter_Segregated",4,624,"Include"
"LP2013_e1","LP2013_e1_1","leer",374,1,"Letter_Segregated",4,457,"Include"
"LP2013_e1","LP2013_e1_1","deter",375,1,"Letter_Segregated",2,1084,"Include"
"LP2013_e1","LP2013_e1_1","extra",376,1,"Letter_Segregated",3,2046,"Include"
"LP2013_e1","LP2013_e1_1","posh",377,0,"Letter_Segregated",1,567,"Include"
"LP2013_e1","LP2013_e1_1","pom",378,0,"Letter_Segregated",2,723,"Include"
"LP2013_e1","LP2013_e1_1","puss",379,0,"Letter_Segregated",2,1163,"Include"
"LP2013_e1","LP2013_e1_1","cushion",380,0,"Letter_Segregated",2,836,"Include"
"LP2013_e1","LP2013_e1_1","lear",381,1,"Letter_Segregated",2,627,"Include"
"LP2013_e1","LP2013_e1_1","chump",382,0,"Letter_Segregated",2,1538,"Include"
"LP2013_e1","LP2013_e1_1","pinny",383,0,"Letter_Segregated",2,575,"Include"
"LP2013_e1","LP2013_e1_1","coy",384,0,"Letter_Segregated",2,519,"Include"
"LP2013_e1","LP2013_e1_1","nicks",385,0,"Letter_Segregated",2,1141,"Include"
"LP2013_e1","LP2013_e1_1","inn",386,0,"Letter_Segregated",2,615,"Include"
"LP2013_e1","LP2013_e1_1","muss",387,0,"Letter_Segregated",1,537,"Include"
"LP2013_e1","LP2013_e1_1","blew",388,1,"Letter_Segregated",2,559,"Include"
"LP2013_e1","LP2013_e1_1","dart",389,1,"Letter_Segregated",3,498,"Include"
"LP2013_e1","LP2013_e1_1","delve",390,1,"Letter_Segregated",2,458,"Include"
"LP2013_e1","LP2013_e1_1","fun",391,0,"Letter_Segregated",4,802,"Include"
"LP2013_e1","LP2013_e1_1","noun",392,0,"Letter_Segregated",1,898,"Include"
"LP2013_e1","LP2013_e1_1","copy",393,0,"Letter_Segregated",1,715,"Include"
"LP2013_e1","LP2013_e1_1","bard",394,1,"Letter_Segregated",2,858,"Include"
"LP2013_e1","LP2013_e1_1","unison",395,0,"Letter_Segregated",1,831,"Include"
"LP2013_e1","LP2013_e1_1","larvae",396,1,"Letter_Segregated",NA,NA,"Exclude"
"LP2013_e1","LP2013_e1_1","bald",397,1,"Letter_Segregated",3,766,"Include"
"LP2013_e1","LP2013_e1_1","snoop",398,0,"Letter_Segregated",2,891,"Include"
"LP2013_e1","LP2013_e1_1","ion",399,0,"Letter_Segregated",2,720,"Include"
"LP2013_e1","LP2013_e1_1","wet",400,1,"Letter_Segregated",2,619,"Include"
"LP2013_e1","LP2013_e1_1","table",401,1,"Letter_Segregated",1,718,"Include"
"LP2013_e1","LP2013_e1_1","cosmic",402,0,"Letter_Segregated",1,721,"Include"
"LP2013_e1","LP2013_e1_1","soy",403,0,"Letter_Segregated",2,548,"Include"
"LP2013_e1","LP2013_e1_1","hips",404,0,"Letter_Segregated",2,575,"Include"
"LP2013_e1","LP2013_e1_1","alter",405,1,"Letter_Segregated",2,801,"Include"
"LP2013_e1","LP2013_e1_1","husk",406,0,"Letter_Segregated",2,520,"Include"
"LP2013_e1","LP2013_e1_1","relax",407,1,"Letter_Segregated",2,797,"Include"
"LP2013_e1","LP2013_e1_1","mimic",408,0,"Letter_Segregated",2,653,"Include"
"LP2013_e1","LP2013_e1_1","comfy",409,0,"Letter_Segregated",2,510,"Include"
"LP2013_e1","LP2013_e1_1","quick",410,0,"Letter_Segregated",2,666,"Include"
"LP2013_e1","LP2013_e1_1","ate",411,1,"Letter_Segregated",2,593,"Include"
"LP2013_e1","LP2013_e1_1","minimum",412,0,"Letter_Segregated",1,1047,"Include"
"LP2013_e1","LP2013_e1_1","shoo",413,0,"Letter_Segregated",2,584,"Include"
"LP2013_e1","LP2013_e1_1","munch",414,0,"Letter_Segregated",2,510,"Include"
"LP2013_e1","LP2013_e1_1","draw",415,1,"Letter_Segregated",2,381,"Include"
"LP2013_e1","LP2013_e1_1","bed",416,1,"Letter_Segregated",3,490,"Include"
"LP2013_e1","LP2013_e1_1","average",417,1,"Letter_Segregated",1,541,"Include"
"LP2013_e1","LP2013_e1_1","garble",418,1,"Letter_Segregated",2,627,"Include"
"LP2013_e1","LP2013_e1_1","conk",419,0,"Letter_Segregated",4,504,"Include"
"LP2013_e1","LP2013_e1_1","gave",420,1,"Letter_Segregated",3,1678,"Include"
"LP2013_e1","LP2013_e1_1","ouch",421,0,"Letter_Segregated",2,420,"Include"
"LP2013_e1","LP2013_e1_1","jewel",422,1,"Letter_Segregated",4,1391,"Include"
"LP2013_e1","LP2013_e1_1","later",423,1,"Letter_Segregated",3,1935,"Include"
"LP2013_e1","LP2013_e1_1","mock",424,0,"Letter_Segregated",2,580,"Include"
"LP2013_e1","LP2013_e1_1","spin",425,0,"Letter_Segregated",2,730,"Include"
"LP2013_e1","LP2013_e1_1","sky",426,0,"Letter_Segregated",2,562,"Include"
"LP2013_e1","LP2013_e1_1","soup",427,0,"Letter_Segregated",1,583,"Include"
"LP2013_e1","LP2013_e1_1","bee",428,1,"Letter_Segregated",1,1021,"Include"
"LP2013_e1","LP2013_e1_1","bare",429,1,"Letter_Segregated",1,1332,"Include"
"LP2013_e1","LP2013_e1_1","minus",430,0,"Letter_Segregated",1,1487,"Include"
"LP2013_e1","LP2013_e1_1","hunk",431,0,"Letter_Segregated",2,642,"Include"
"LP2013_e1","LP2013_e1_1","let",432,1,"Letter_Segregated",4,669,"Include"
"LP2013_e1","LP2013_e1_1","zeta",433,1,"Letter_Segregated",3,1125,"Include"
"LP2013_e1","LP2013_e1_1","grew",434,1,"Letter_Segregated",3,877,"Include"
"LP2013_e1","LP2013_e1_1","lad",435,1,"Letter_Segregated",2,534,"Include"
"LP2013_e1","LP2013_e1_1","vex",436,1,"Letter_Segregated",1,558,"Include"
"LP2013_e1","LP2013_e1_1","lewd",437,1,"Letter_Segregated",1,796,"Include"
"LP2013_e1","LP2013_e1_1","spick",438,0,"Letter_Segregated",2,572,"Include"
"LP2013_e1","LP2013_e1_1","ominous",439,0,"Letter_Segregated",1,756,"Include"
"LP2013_e1","LP2013_e1_1","shun",440,0,"Letter_Segregated",2,550,"Include"
"LP2013_e1","LP2013_e1_1","pink",441,0,"Letter_Segregated",2,571,"Include"
"LP2013_e1","LP2013_e1_1","adverb",442,1,"Letter_Segregated",1,842,"Include"
"LP2013_e1","LP2013_e1_1","tax",443,1,"Letter_Segregated",2,518,"Include"
"LP2013_e1","LP2013_e1_1","eve",444,1,"Letter_Segregated",2,541,"Include"
"LP2013_e1","LP2013_e1_1","aver",445,1,"Letter_Segregated",2,411,"Include"
"LP2013_e1","LP2013_e1_1","gable",446,1,"Letter_Segregated",2,500,"Include"
"LP2013_e1","LP2013_e1_1","grate",447,1,"Letter_Segregated",2,423,"Include"
"LP2013_e1","LP2013_e1_1","noon",448,0,"Letter_Segregated",2,484,"Include"
"LP2013_e1","LP2013_e1_1","deer",449,1,"Letter_Segregated",2,467,"Include"
"LP2013_e1","LP2013_e1_1","upon",450,0,"Letter_Segregated",2,409,"Include"
"LP2013_e1","LP2013_e1_1","hick",451,0,"Letter_Segregated",2,383,"Include"
"LP2013_e1","LP2013_e1_1","glade",452,1,"Letter_Segregated",4,607,"Include"
"LP2013_e1","LP2013_e1_1","dare",453,1,"Letter_Segregated",3,509,"Include"
"LP2013_e1","LP2013_e1_1","awe",454,1,"Letter_Segregated",2,587,"Include"
"LP2013_e1","LP2013_e1_1","verbal",455,1,"Letter_Segregated",1,889,"Include"
"LP2013_e1","LP2013_e1_1","tzar",456,1,"Letter_Segregated",4,1128,"Include"
"LP2013_e1","LP2013_e1_1","coop",457,0,"Letter_Segregated",2,689,"Include"
"LP2013_e1","LP2013_e1_1","sip",458,0,"Letter_Segregated",1,723,"Include"
"LP2013_e1","LP2013_e1_1","skunk",459,0,"Letter_Segregated",2,997,"Include"
"LP2013_e1","LP2013_e1_1","him",460,0,"Letter_Segregated",2,872,"Include"
"LP2013_e1","LP2013_e1_1","waver",461,1,"Letter_Segregated",1,540,"Include"
"LP2013_e1","LP2013_e1_1","eave",462,1,"Letter_Segregated",4,733,"Include"
"LP2013_e1","LP2013_e1_1","gala",463,1,"Letter_Segregated",1,1102,"Include"
"LP2013_e1","LP2013_e1_1","gate",464,1,"Letter_Segregated",2,874,"Include"
"LP2013_e1","LP2013_e1_1","mucus",465,0,"Letter_Segregated",2,1102,"Include"
"LP2013_e1","LP2013_e1_1","myopic",466,0,"Letter_Segregated",1,624,"Include"
"LP2013_e1","LP2013_e1_1","spunk",467,0,"Letter_Segregated",2,529,"Include"
"LP2013_e1","LP2013_e1_1","dew",468,1,"Letter_Segregated",2,457,"Include"
"LP2013_e1","LP2013_e1_1","sock",469,0,"Letter_Segregated",2,664,"Include"
"LP2013_e1","LP2013_e1_1","shock",470,0,"Letter_Segregated",2,529,"Include"
"LP2013_e1","LP2013_e1_1","brag",471,1,"Letter_Segregated",2,508,"Include"
"LP2013_e1","LP2013_e1_1","read",472,1,"Letter_Segregated",2,548,"Include"
"LP2013_e1","LP2013_e1_1","mono",473,0,"Letter_Segregated",2,584,"Include"
"LP2013_e1","LP2013_e1_1","eagle",474,1,"Letter_Segregated",2,523,"Include"
"LP2013_e1","LP2013_e1_1","shy",475,0,"Letter_Segregated",2,463,"Include"
"LP2013_e1","LP2013_e1_1","huff",476,0,"Letter_Segregated",2,400,"Include"
"LP2013_e1","LP2013_e1_1","smoky",477,0,"Letter_Segregated",2,447,"Include"
"LP2013_e1","LP2013_e1_1","date",478,1,"Letter_Segregated",2,464,"Include"
"LP2013_e1","LP2013_e1_1","shimmy",479,0,"Letter_Segregated",1,1074,"Include"
"LP2013_e1","LP2013_e1_1","coup",480,0,"Letter_Segregated",2,1487,"Include"
"LP2013_e1","LP2013_e1_10","gave",1,1,"Letter_Segregated",4,661,"Include"
"LP2013_e1","LP2013_e1_10","grave",2,1,"Letter_Segregated",4,616,"Include"
"LP2013_e1","LP2013_e1_10","chick",3,0,"Letter_Segregated",1,1091,"Include"
"LP2013_e1","LP2013_e1_10","pom",4,0,"Letter_Segregated",4,1211,"Include"
"LP2013_e1","LP2013_e1_10","deter",5,1,"Letter_Segregated",4,956,"Include"
"LP2013_e1","LP2013_e1_10","glade",6,1,"Letter_Segregated",2,1208,"Include"
"LP2013_e1","LP2013_e1_10","later",7,1,"Letter_Segregated",4,666,"Include"
"LP2013_e1","LP2013_e1_10","spick",8,0,"Letter_Segregated",1,1244,"Include"
"LP2013_e1","LP2013_e1_10","munch",9,0,"Letter_Segregated",3,1227,"Include"
"LP2013_e1","LP2013_e1_10","muss",10,0,"Letter_Segregated",3,905,"Include"
"LP2013_e1","LP2013_e1_10","vex",11,1,"Letter_Segregated",4,945,"Include"
"LP2013_e1","LP2013_e1_10","deer",12,1,"Letter_Segregated",4,828,"Include"
"LP2013_e1","LP2013_e1_10","husk",13,0,"Letter_Segregated",2,971,"Include"
"LP2013_e1","LP2013_e1_10","zeta",14,1,"Letter_Segregated",4,830,"Include"
"LP2013_e1","LP2013_e1_10","veal",15,1,"Letter_Segregated",4,631,"Include"
"LP2013_e1","LP2013_e1_10","awe",16,1,"Letter_Segregated",4,809,"Include"
"LP2013_e1","LP2013_e1_10","shun",17,0,"Letter_Segregated",2,1029,"Include"
"LP2013_e1","LP2013_e1_10","grate",18,1,"Letter_Segregated",4,755,"Include"
"LP2013_e1","LP2013_e1_10","coop",19,0,"Letter_Segregated",2,944,"Include"
"LP2013_e1","LP2013_e1_10","dart",20,1,"Letter_Segregated",4,882,"Include"
"LP2013_e1","LP2013_e1_10","ion",21,0,"Letter_Segregated",2,1012,"Include"
"LP2013_e1","LP2013_e1_10","bare",22,1,"Letter_Segregated",1,1315,"Include"
"LP2013_e1","LP2013_e1_10","lear",23,1,"Letter_Segregated",2,1024,"Include"
"LP2013_e1","LP2013_e1_10","gala",24,1,"Letter_Segregated",4,1211,"Include"
"LP2013_e1","LP2013_e1_10","eave",25,1,"Letter_Segregated",3,899,"Include"
"LP2013_e1","LP2013_e1_10","jet",26,1,"Letter_Segregated",4,806,"Include"
"LP2013_e1","LP2013_e1_10","noun",27,0,"Letter_Segregated",3,1162,"Include"
"LP2013_e1","LP2013_e1_10","pink",28,0,"Letter_Segregated",2,1072,"Include"
"LP2013_e1","LP2013_e1_10","kin",29,0,"Letter_Segregated",1,1164,"Include"
"LP2013_e1","LP2013_e1_10","hunk",30,0,"Letter_Segregated",3,938,"Include"
"LP2013_e1","LP2013_e1_10","cushion",31,0,"Letter_Segregated",2,1304,"Include"
"LP2013_e1","LP2013_e1_10","coup",32,0,"Letter_Segregated",1,1146,"Include"
"LP2013_e1","LP2013_e1_10","noon",33,0,"Letter_Segregated",3,1236,"Include"
"LP2013_e1","LP2013_e1_10","copy",34,0,"Letter_Segregated",4,860,"Include"
"LP2013_e1","LP2013_e1_10","chump",35,0,"Letter_Segregated",2,1018,"Include"
"LP2013_e1","LP2013_e1_10","bald",36,1,"Letter_Segregated",4,1006,"Include"
"LP2013_e1","LP2013_e1_10","gab",37,1,"Letter_Segregated",4,871,"Include"
"LP2013_e1","LP2013_e1_10","minus",38,0,"Letter_Segregated",2,1085,"Include"
"LP2013_e1","LP2013_e1_10","average",39,1,"Letter_Segregated",4,695,"Include"
"LP2013_e1","LP2013_e1_10","posh",40,0,"Letter_Segregated",3,801,"Include"
"LP2013_e1","LP2013_e1_10","larvae",41,1,"Letter_Segregated",4,838,"Include"
"LP2013_e1","LP2013_e1_10","table",42,1,"Letter_Segregated",4,776,"Include"
"LP2013_e1","LP2013_e1_10","ate",43,1,"Letter_Segregated",4,1022,"Include"
"LP2013_e1","LP2013_e1_10","relax",44,1,"Letter_Segregated",4,674,"Include"
"LP2013_e1","LP2013_e1_10","him",45,0,"Letter_Segregated",2,884,"Include"
"LP2013_e1","LP2013_e1_10","delve",46,1,"Letter_Segregated",4,793,"Include"
"LP2013_e1","LP2013_e1_10","greet",47,1,"Letter_Segregated",3,1531,"Include"
"LP2013_e1","LP2013_e1_10","sky",48,0,"Letter_Segregated",3,942,"Include"
"LP2013_e1","LP2013_e1_10","read",49,1,"Letter_Segregated",4,796,"Include"
"LP2013_e1","LP2013_e1_10","hips",50,0,"Letter_Segregated",3,864,"Include"
"LP2013_e1","LP2013_e1_10","shy",51,0,"Letter_Segregated",2,917,"Include"
"LP2013_e1","LP2013_e1_10","shoo",52,0,"Letter_Segregated",2,947,"Include"
"LP2013_e1","LP2013_e1_10","lewd",53,1,"Letter_Segregated",1,630,"Include"
"LP2013_e1","LP2013_e1_10","soy",54,0,"Letter_Segregated",1,859,"Include"
"LP2013_e1","LP2013_e1_10","jewel",55,1,"Letter_Segregated",4,714,"Include"
"LP2013_e1","LP2013_e1_10","ominous",56,0,"Letter_Segregated",1,1122,"Include"
"LP2013_e1","LP2013_e1_10","coy",57,0,"Letter_Segregated",2,942,"Include"
"LP2013_e1","LP2013_e1_10","draw",58,1,"Letter_Segregated",3,1154,"Include"
"LP2013_e1","LP2013_e1_10","conk",59,0,"Letter_Segregated",2,957,"Include"
"LP2013_e1","LP2013_e1_10","hon",60,0,"Letter_Segregated",2,1148,"Include"
"LP2013_e1","LP2013_e1_10","shock",61,0,"Letter_Segregated",2,1208,"Include"
"LP2013_e1","LP2013_e1_10","spin",62,0,"Letter_Segregated",3,1081,"Include"
"LP2013_e1","LP2013_e1_10","begat",63,1,"Letter_Segregated",2,1221,"Include"
"LP2013_e1","LP2013_e1_10","myopic",64,0,"Letter_Segregated",1,920,"Include"
"LP2013_e1","LP2013_e1_10","dare",65,1,"Letter_Segregated",4,850,"Include"
"LP2013_e1","LP2013_e1_10","date",66,1,"Letter_Segregated",3,836,"Include"
"LP2013_e1","LP2013_e1_10","blew",67,1,"Letter_Segregated",3,894,"Include"
"LP2013_e1","LP2013_e1_10","unison",68,0,"Letter_Segregated",2,987,"Include"
"LP2013_e1","LP2013_e1_10","alter",69,1,"Letter_Segregated",2,908,"Include"
"LP2013_e1","LP2013_e1_10","mono",70,0,"Letter_Segregated",3,936,"Include"
"LP2013_e1","LP2013_e1_10","wad",71,1,"Letter_Segregated",2,1028,"Include"
"LP2013_e1","LP2013_e1_10","bee",72,1,"Letter_Segregated",4,954,"Include"
"LP2013_e1","LP2013_e1_10","bard",73,1,"Letter_Segregated",4,759,"Include"
"LP2013_e1","LP2013_e1_10","nicks",74,0,"Letter_Segregated",2,924,"Include"
"LP2013_e1","LP2013_e1_10","mock",75,0,"Letter_Segregated",4,723,"Include"
"LP2013_e1","LP2013_e1_10","smoky",76,0,"Letter_Segregated",2,914,"Include"
"LP2013_e1","LP2013_e1_10","minimum",77,0,"Letter_Segregated",1,904,"Include"
"LP2013_e1","LP2013_e1_10","mucus",78,0,"Letter_Segregated",4,949,"Include"
"LP2013_e1","LP2013_e1_10","shop",79,0,"Letter_Segregated",2,886,"Include"
"LP2013_e1","LP2013_e1_10","extra",80,1,"Letter_Segregated",4,775,"Include"
"LP2013_e1","LP2013_e1_10","leer",81,1,"Letter_Segregated",4,684,"Include"
"LP2013_e1","LP2013_e1_10","waver",82,1,"Letter_Segregated",4,753,"Include"
"LP2013_e1","LP2013_e1_10","soup",83,0,"Letter_Segregated",2,1050,"Include"
"LP2013_e1","LP2013_e1_10","sip",84,0,"Letter_Segregated",2,1141,"Include"
"LP2013_e1","LP2013_e1_10","tzar",85,1,"Letter_Segregated",4,896,"Include"
"LP2013_e1","LP2013_e1_10","dew",86,1,"Letter_Segregated",3,1054,"Include"
"LP2013_e1","LP2013_e1_10","ouch",87,0,"Letter_Segregated",3,1057,"Include"
"LP2013_e1","LP2013_e1_10","algae",88,1,"Letter_Segregated",4,765,"Include"
"LP2013_e1","LP2013_e1_10","tax",89,1,"Letter_Segregated",4,701,"Include"
"LP2013_e1","LP2013_e1_10","huff",90,0,"Letter_Segregated",3,678,"Include"
"LP2013_e1","LP2013_e1_10","bed",91,1,"Letter_Segregated",4,1031,"Include"
"LP2013_e1","LP2013_e1_10","mimic",92,0,"Letter_Segregated",2,821,"Include"
"LP2013_e1","LP2013_e1_10","grew",93,1,"Letter_Segregated",4,718,"Include"
"LP2013_e1","LP2013_e1_10","fun",94,0,"Letter_Segregated",3,842,"Include"
"LP2013_e1","LP2013_e1_10","gable",95,1,"Letter_Segregated",4,653,"Include"
"LP2013_e1","LP2013_e1_10","snoop",96,0,"Letter_Segregated",4,609,"Include"
"LP2013_e1","LP2013_e1_10","quick",97,0,"Letter_Segregated",3,822,"Include"
"LP2013_e1","LP2013_e1_10","verbal",98,1,"Letter_Segregated",4,639,"Include"
"LP2013_e1","LP2013_e1_10","eve",99,1,"Letter_Segregated",3,901,"Include"
"LP2013_e1","LP2013_e1_10","travel",100,1,"Letter_Segregated",4,961,"Include"
"LP2013_e1","LP2013_e1_10","lad",101,1,"Letter_Segregated",3,880,"Include"
"LP2013_e1","LP2013_e1_10","spunk",102,0,"Letter_Segregated",3,786,"Include"
"LP2013_e1","LP2013_e1_10","cosmic",103,0,"Letter_Segregated",4,800,"Include"
"LP2013_e1","LP2013_e1_10","sock",104,0,"Letter_Segregated",4,805,"Include"
"LP2013_e1","LP2013_e1_10","skunk",105,0,"Letter_Segregated",3,874,"Include"
"LP2013_e1","LP2013_e1_10","pinny",106,0,"Letter_Segregated",2,804,"Include"
"LP2013_e1","LP2013_e1_10","let",107,1,"Letter_Segregated",3,1156,"Include"
"LP2013_e1","LP2013_e1_10","hick",108,0,"Letter_Segregated",3,1082,"Include"
"LP2013_e1","LP2013_e1_10","gate",109,1,"Letter_Segregated",1,904,"Include"
"LP2013_e1","LP2013_e1_10","brag",110,1,"Letter_Segregated",4,1200,"Include"
"LP2013_e1","LP2013_e1_10","upon",111,0,"Letter_Segregated",3,902,"Include"
"LP2013_e1","LP2013_e1_10","aver",112,1,"Letter_Segregated",2,929,"Include"
"LP2013_e1","LP2013_e1_10","eagle",113,1,"Letter_Segregated",4,838,"Include"
"LP2013_e1","LP2013_e1_10","garble",114,1,"Letter_Segregated",2,981,"Include"
"LP2013_e1","LP2013_e1_10","puss",115,0,"Letter_Segregated",4,1208,"Include"
"LP2013_e1","LP2013_e1_10","wet",116,1,"Letter_Segregated",NA,NA,"Exclude"
"LP2013_e1","LP2013_e1_10","comfy",117,0,"Letter_Segregated",3,790,"Include"
"LP2013_e1","LP2013_e1_10","adverb",118,1,"Letter_Segregated",4,746,"Include"
"LP2013_e1","LP2013_e1_10","inn",119,0,"Letter_Segregated",3,660,"Include"
"LP2013_e1","LP2013_e1_10","shimmy",120,0,"Letter_Segregated",2,1047,"Include"
"LP2013_e1","LP2013_e1_10","drag",121,1,"Letter_Segregated",4,648,"Include"
"LP2013_e1","LP2013_e1_10","piny",122,0,"Letter_Segregated",1,647,"Include"
"LP2013_e1","LP2013_e1_10","cumin",123,0,"Letter_Segregated",1,886,"Include"
"LP2013_e1","LP2013_e1_10","much",124,0,"Letter_Segregated",1,949,"Include"
"LP2013_e1","LP2013_e1_10","oomph",125,0,"Letter_Segregated",1,858,"Include"
"LP2013_e1","LP2013_e1_10","bet",126,1,"Letter_Segregated",4,709,"Include"
"LP2013_e1","LP2013_e1_10","hock",127,0,"Letter_Segregated",2,964,"Include"
"LP2013_e1","LP2013_e1_10","agree",128,1,"Letter_Segregated",4,726,"Include"
"LP2013_e1","LP2013_e1_10","focus",129,0,"Letter_Segregated",4,714,"Include"
"LP2013_e1","LP2013_e1_10","ale",130,1,"Letter_Segregated",2,812,"Include"
"LP2013_e1","LP2013_e1_10","ravage",131,1,"Letter_Segregated",4,1071,"Include"
"LP2013_e1","LP2013_e1_10","ossify",132,0,"Letter_Segregated",1,943,"Include"
"LP2013_e1","LP2013_e1_10","zeal",133,1,"Letter_Segregated",4,697,"Include"
"LP2013_e1","LP2013_e1_10","spy",134,0,"Letter_Segregated",1,1223,"Include"
"LP2013_e1","LP2013_e1_10","tread",135,1,"Letter_Segregated",4,816,"Include"
"LP2013_e1","LP2013_e1_10","hoop",136,0,"Letter_Segregated",2,707,"Include"
"LP2013_e1","LP2013_e1_10","greed",137,1,"Letter_Segregated",4,848,"Include"
"LP2013_e1","LP2013_e1_10","bade",138,1,"Letter_Segregated",4,927,"Include"
"LP2013_e1","LP2013_e1_10","chip",139,0,"Letter_Segregated",2,894,"Include"
"LP2013_e1","LP2013_e1_10","rave",140,1,"Letter_Segregated",4,907,"Include"
"LP2013_e1","LP2013_e1_10","mooch",141,0,"Letter_Segregated",3,731,"Include"
"LP2013_e1","LP2013_e1_10","belt",142,1,"Letter_Segregated",4,695,"Include"
"LP2013_e1","LP2013_e1_10","sup",143,0,"Letter_Segregated",2,717,"Include"
"LP2013_e1","LP2013_e1_10","onus",144,0,"Letter_Segregated",4,663,"Include"
"LP2013_e1","LP2013_e1_10","sick",145,0,"Letter_Segregated",2,814,"Include"
"LP2013_e1","LP2013_e1_10","sic",146,0,"Letter_Segregated",1,792,"Include"
"LP2013_e1","LP2013_e1_10","nymph",147,0,"Letter_Segregated",4,1064,"Include"
"LP2013_e1","LP2013_e1_10","beg",148,1,"Letter_Segregated",4,957,"Include"
"LP2013_e1","LP2013_e1_10","led",149,1,"Letter_Segregated",4,652,"Include"
"LP2013_e1","LP2013_e1_10","water",150,1,"Letter_Segregated",2,823,"Include"
"LP2013_e1","LP2013_e1_10","ledger",151,1,"Letter_Segregated",4,670,"Include"
"LP2013_e1","LP2013_e1_10","daze",152,1,"Letter_Segregated",4,645,"Include"
"LP2013_e1","LP2013_e1_10","beat",153,1,"Letter_Segregated",4,720,"Include"
"LP2013_e1","LP2013_e1_10","dwelt",154,1,"Letter_Segregated",4,654,"Include"
"LP2013_e1","LP2013_e1_10","mum",155,0,"Letter_Segregated",2,856,"Include"
"LP2013_e1","LP2013_e1_10","cup",156,0,"Letter_Segregated",2,631,"Include"
"LP2013_e1","LP2013_e1_10","bled",157,1,"Letter_Segregated",4,658,"Include"
"LP2013_e1","LP2013_e1_10","elder",158,1,"Letter_Segregated",4,786,"Include"
"LP2013_e1","LP2013_e1_10","ware",159,1,"Letter_Segregated",3,806,"Include"
"LP2013_e1","LP2013_e1_10","reveal",160,1,"Letter_Segregated",4,920,"Include"
"LP2013_e1","LP2013_e1_10","ravel",161,1,"Letter_Segregated",2,1314,"Include"
"LP2013_e1","LP2013_e1_10","area",162,1,"Letter_Segregated",4,938,"Include"
"LP2013_e1","LP2013_e1_10","suck",163,0,"Letter_Segregated",4,673,"Include"
"LP2013_e1","LP2013_e1_10","waltz",164,1,"Letter_Segregated",4,1071,"Include"
"LP2013_e1","LP2013_e1_10","union",165,0,"Letter_Segregated",4,623,"Include"
"LP2013_e1","LP2013_e1_10","impish",166,0,"Letter_Segregated",2,1101,"Include"
"LP2013_e1","LP2013_e1_10","spiky",167,0,"Letter_Segregated",2,1080,"Include"
"LP2013_e1","LP2013_e1_10","mission",168,0,"Letter_Segregated",2,924,"Include"
"LP2013_e1","LP2013_e1_10","brew",169,1,"Letter_Segregated",4,865,"Include"
"LP2013_e1","LP2013_e1_10","ship",170,0,"Letter_Segregated",3,768,"Include"
"LP2013_e1","LP2013_e1_10","mopy",171,0,"Letter_Segregated",2,1149,"Include"
"LP2013_e1","LP2013_e1_10","quin",172,0,"Letter_Segregated",1,755,"Include"
"LP2013_e1","LP2013_e1_10","chum",173,0,"Letter_Segregated",3,810,"Include"
"LP2013_e1","LP2013_e1_10","hook",174,0,"Letter_Segregated",4,630,"Include"
"LP2013_e1","LP2013_e1_10","leg",175,1,"Letter_Segregated",4,684,"Include"
"LP2013_e1","LP2013_e1_10","piss",176,0,"Letter_Segregated",3,795,"Include"
"LP2013_e1","LP2013_e1_10","huck",177,0,"Letter_Segregated",4,676,"Include"
"LP2013_e1","LP2013_e1_10","jab",178,1,"Letter_Segregated",4,696,"Include"
"LP2013_e1","LP2013_e1_10","poncho",179,0,"Letter_Segregated",3,710,"Include"
"LP2013_e1","LP2013_e1_10","art",180,1,"Letter_Segregated",4,659,"Include"
"LP2013_e1","LP2013_e1_10","mom",181,0,"Letter_Segregated",4,856,"Include"
"LP2013_e1","LP2013_e1_10","finish",182,0,"Letter_Segregated",3,750,"Include"
"LP2013_e1","LP2013_e1_10","inch",183,0,"Letter_Segregated",2,726,"Include"
"LP2013_e1","LP2013_e1_10","pony",184,0,"Letter_Segregated",4,697,"Include"
"LP2013_e1","LP2013_e1_10","verb",185,1,"Letter_Segregated",4,724,"Include"
"LP2013_e1","LP2013_e1_10","funk",186,0,"Letter_Segregated",3,773,"Include"
"LP2013_e1","LP2013_e1_10","con",187,0,"Letter_Segregated",3,765,"Include"
"LP2013_e1","LP2013_e1_10","sun",188,0,"Letter_Segregated",2,603,"Include"
"LP2013_e1","LP2013_e1_10","hymn",189,0,"Letter_Segregated",2,799,"Include"
"LP2013_e1","LP2013_e1_10","beret",190,1,"Letter_Segregated",2,825,"Include"
"LP2013_e1","LP2013_e1_10","exert",191,1,"Letter_Segregated",4,754,"Include"
"LP2013_e1","LP2013_e1_10","jar",192,1,"Letter_Segregated",4,655,"Include"
"LP2013_e1","LP2013_e1_10","bale",193,1,"Letter_Segregated",4,649,"Include"
"LP2013_e1","LP2013_e1_10","tag",194,1,"Letter_Segregated",4,627,"Include"
"LP2013_e1","LP2013_e1_10","lead",195,1,"Letter_Segregated",4,787,"Include"
"LP2013_e1","LP2013_e1_10","pious",196,0,"Letter_Segregated",2,693,"Include"
"LP2013_e1","LP2013_e1_10","rat",197,1,"Letter_Segregated",1,602,"Include"
"LP2013_e1","LP2013_e1_10","brave",198,1,"Letter_Segregated",1,841,"Include"
"LP2013_e1","LP2013_e1_10","jade",199,1,"Letter_Segregated",4,596,"Include"
"LP2013_e1","LP2013_e1_10","grade",200,1,"Letter_Segregated",4,654,"Include"
"LP2013_e1","LP2013_e1_10","you",201,0,"Letter_Segregated",4,594,"Include"
"LP2013_e1","LP2013_e1_10","cop",202,0,"Letter_Segregated",3,656,"Include"
"LP2013_e1","LP2013_e1_10","glad",203,1,"Letter_Segregated",4,656,"Include"
"LP2013_e1","LP2013_e1_10","chin",204,0,"Letter_Segregated",3,682,"Include"
"LP2013_e1","LP2013_e1_10","shiny",205,0,"Letter_Segregated",2,864,"Include"
"LP2013_e1","LP2013_e1_10","era",206,1,"Letter_Segregated",4,515,"Include"
"LP2013_e1","LP2013_e1_10","evade",207,1,"Letter_Segregated",3,681,"Include"
"LP2013_e1","LP2013_e1_10","weave",208,1,"Letter_Segregated",4,534,"Include"
"LP2013_e1","LP2013_e1_10","leave",209,1,"Letter_Segregated",4,610,"Include"
"LP2013_e1","LP2013_e1_10","advert",210,1,"Letter_Segregated",4,523,"Include"
"LP2013_e1","LP2013_e1_10","kip",211,0,"Letter_Segregated",4,609,"Include"
"LP2013_e1","LP2013_e1_10","noisy",212,0,"Letter_Segregated",2,822,"Include"
"LP2013_e1","LP2013_e1_10","icon",213,0,"Letter_Segregated",3,744,"Include"
"LP2013_e1","LP2013_e1_10","war",214,1,"Letter_Segregated",4,972,"Include"
"LP2013_e1","LP2013_e1_10","avert",215,1,"Letter_Segregated",4,649,"Include"
"LP2013_e1","LP2013_e1_10","smock",216,0,"Letter_Segregated",4,625,"Include"
"LP2013_e1","LP2013_e1_10","tale",217,1,"Letter_Segregated",2,763,"Include"
"LP2013_e1","LP2013_e1_10","wage",218,1,"Letter_Segregated",2,470,"Include"
"LP2013_e1","LP2013_e1_10","cony",219,0,"Letter_Segregated",3,888,"Include"
"LP2013_e1","LP2013_e1_10","choosy",220,0,"Letter_Segregated",4,645,"Include"
"LP2013_e1","LP2013_e1_10","reel",221,1,"Letter_Segregated",3,770,"Include"
"LP2013_e1","LP2013_e1_10","finch",222,0,"Letter_Segregated",3,844,"Include"
"LP2013_e1","LP2013_e1_10","eel",223,1,"Letter_Segregated",4,790,"Include"
"LP2013_e1","LP2013_e1_10","blazer",224,1,"Letter_Segregated",4,499,"Include"
"LP2013_e1","LP2013_e1_10","posy",225,0,"Letter_Segregated",4,661,"Include"
"LP2013_e1","LP2013_e1_10","poppy",226,0,"Letter_Segregated",2,807,"Include"
"LP2013_e1","LP2013_e1_10","beet",227,1,"Letter_Segregated",1,670,"Include"
"LP2013_e1","LP2013_e1_10","spicy",228,0,"Letter_Segregated",3,809,"Include"
"LP2013_e1","LP2013_e1_10","nook",229,0,"Letter_Segregated",2,649,"Include"
"LP2013_e1","LP2013_e1_10","latex",230,1,"Letter_Segregated",4,680,"Include"
"LP2013_e1","LP2013_e1_10","lab",231,1,"Letter_Segregated",3,719,"Include"
"LP2013_e1","LP2013_e1_10","nun",232,0,"Letter_Segregated",4,558,"Include"
"LP2013_e1","LP2013_e1_10","rate",233,1,"Letter_Segregated",2,734,"Include"
"LP2013_e1","LP2013_e1_10","earl",234,1,"Letter_Segregated",4,775,"Include"
"LP2013_e1","LP2013_e1_10","skim",235,0,"Letter_Segregated",4,854,"Include"
"LP2013_e1","LP2013_e1_10","barge",236,1,"Letter_Segregated",2,677,"Include"
"LP2013_e1","LP2013_e1_10","skinny",237,0,"Letter_Segregated",4,590,"Include"
"LP2013_e1","LP2013_e1_10","pinon",238,0,"Letter_Segregated",3,669,"Include"
"LP2013_e1","LP2013_e1_10","cusp",239,0,"Letter_Segregated",2,742,"Include"
"LP2013_e1","LP2013_e1_10","wale",240,1,"Letter_Segregated",1,622,"Include"
"LP2013_e1","LP2013_e1_10","tear",241,1,"Normal",4,545,"Include"
"LP2013_e1","LP2013_e1_10","puny",242,1,"Normal",4,539,"Include"
"LP2013_e1","LP2013_e1_10","snip",243,0,"Normal",2,648,"Include"
"LP2013_e1","LP2013_e1_10","fish",244,1,"Normal",4,654,"Include"
"LP2013_e1","LP2013_e1_10","cousin",245,0,"Normal",2,670,"Include"
"LP2013_e1","LP2013_e1_10","zebra",246,1,"Normal",3,794,"Include"
"LP2013_e1","LP2013_e1_10","moo",247,1,"Normal",3,701,"Include"
"LP2013_e1","LP2013_e1_10","mop",248,0,"Normal",2,700,"Include"
"LP2013_e1","LP2013_e1_10","punch",249,0,"Normal",4,758,"Include"
"LP2013_e1","LP2013_e1_10","pun",250,0,"Normal",3,646,"Include"
"LP2013_e1","LP2013_e1_10","get",251,1,"Normal",4,654,"Include"
"LP2013_e1","LP2013_e1_10","homy",252,1,"Normal",3,765,"Include"
"LP2013_e1","LP2013_e1_10","finicky",253,0,"Normal",2,723,"Include"
"LP2013_e1","LP2013_e1_10","pock",254,0,"Normal",3,639,"Include"
"LP2013_e1","LP2013_e1_10","funny",255,0,"Normal",4,563,"Include"
"LP2013_e1","LP2013_e1_10","phi",256,0,"Normal",1,586,"Include"
"LP2013_e1","LP2013_e1_10","badger",257,0,"Normal",2,763,"Include"
"LP2013_e1","LP2013_e1_10","son",258,0,"Normal",2,806,"Include"
"LP2013_e1","LP2013_e1_10","gaze",259,1,"Normal",4,597,"Include"
"LP2013_e1","LP2013_e1_10","bad",260,0,"Normal",4,586,"Include"
"LP2013_e1","LP2013_e1_10","fin",261,0,"Normal",1,849,"Include"
"LP2013_e1","LP2013_e1_10","soon",262,1,"Normal",2,693,"Include"
"LP2013_e1","LP2013_e1_10","delta",263,1,"Normal",1,854,"Include"
"LP2013_e1","LP2013_e1_10","debate",264,1,"Normal",4,689,"Include"
"LP2013_e1","LP2013_e1_10","tweed",265,0,"Normal",4,720,"Include"
"LP2013_e1","LP2013_e1_10","hiss",266,1,"Normal",2,780,"Include"
"LP2013_e1","LP2013_e1_10","breed",267,1,"Normal",4,622,"Include"
"LP2013_e1","LP2013_e1_10","pomp",268,1,"Normal",4,597,"Include"
"LP2013_e1","LP2013_e1_10","level",269,0,"Normal",2,653,"Include"
"LP2013_e1","LP2013_e1_10","lag",270,0,"Normal",4,609,"Include"
"LP2013_e1","LP2013_e1_10","glaze",271,1,"Normal",2,607,"Include"
"LP2013_e1","LP2013_e1_10","great",272,1,"Normal",4,594,"Include"
"LP2013_e1","LP2013_e1_10","java",273,1,"Normal",3,651,"Include"
"LP2013_e1","LP2013_e1_10","pin",274,1,"Normal",4,437,"Include"
"LP2013_e1","LP2013_e1_10","ever",275,0,"Normal",2,611,"Include"
"LP2013_e1","LP2013_e1_10","brat",276,1,"Normal",4,671,"Include"
"LP2013_e1","LP2013_e1_10","moss",277,1,"Normal",2,748,"Include"
"LP2013_e1","LP2013_e1_10","coupon",278,0,"Normal",4,558,"Include"
"LP2013_e1","LP2013_e1_10","cook",279,0,"Normal",1,621,"Include"
"LP2013_e1","LP2013_e1_10","gel",280,0,"Normal",4,557,"Include"
"LP2013_e1","LP2013_e1_10","his",281,1,"Normal",4,757,"Include"
"LP2013_e1","LP2013_e1_10","pick",282,1,"Normal",3,743,"Include"
"LP2013_e1","LP2013_e1_10","tab",283,0,"Normal",4,619,"Include"
"LP2013_e1","LP2013_e1_10","reave",284,0,"Normal",1,594,"Include"
"LP2013_e1","LP2013_e1_10","snuff",285,1,"Normal",2,793,"Include"
"LP2013_e1","LP2013_e1_10","hum",286,1,"Normal",4,619,"Include"
"LP2013_e1","LP2013_e1_10","fuss",287,0,"Normal",4,778,"Include"
"LP2013_e1","LP2013_e1_10","bread",288,0,"Normal",4,652,"Include"
"LP2013_e1","LP2013_e1_10","schism",289,0,"Normal",3,648,"Include"
"LP2013_e1","LP2013_e1_10","poison",290,0,"Normal",3,639,"Include"
"LP2013_e1","LP2013_e1_10","aware",291,0,"Normal",2,581,"Include"
"LP2013_e1","LP2013_e1_10","elate",292,0,"Normal",4,469,"Include"
"LP2013_e1","LP2013_e1_10","drew",293,0,"Normal",1,598,"Include"
"LP2013_e1","LP2013_e1_10","spiny",294,1,"Normal",3,628,"Include"
"LP2013_e1","LP2013_e1_10","cuss",295,0,"Normal",3,934,"Include"
"LP2013_e1","LP2013_e1_10","ward",296,0,"Normal",4,610,"Include"
"LP2013_e1","LP2013_e1_10","punk",297,1,"Normal",2,734,"Include"
"LP2013_e1","LP2013_e1_10","opus",298,0,"Normal",3,617,"Include"
"LP2013_e1","LP2013_e1_10","garb",299,1,"Normal",4,627,"Include"
"LP2013_e1","LP2013_e1_10","ere",300,0,"Normal",3,789,"Include"
"LP2013_e1","LP2013_e1_10","music",301,0,"Normal",2,627,"Include"
"LP2013_e1","LP2013_e1_10","beer",302,0,"Normal",4,647,"Include"
"LP2013_e1","LP2013_e1_10","nosh",303,1,"Normal",2,723,"Include"
"LP2013_e1","LP2013_e1_10","weld",304,0,"Normal",3,668,"Include"
"LP2013_e1","LP2013_e1_10","mush",305,0,"Normal",4,604,"Include"
"LP2013_e1","LP2013_e1_10","muck",306,0,"Normal",3,731,"Include"
"LP2013_e1","LP2013_e1_10","tee",307,0,"Normal",4,542,"Include"
"LP2013_e1","LP2013_e1_10","punish",308,1,"Normal",4,644,"Include"
"LP2013_e1","LP2013_e1_10","shuck",309,1,"Normal",3,641,"Include"
"LP2013_e1","LP2013_e1_10","mick",310,0,"Normal",2,837,"Include"
"LP2013_e1","LP2013_e1_10","veer",311,1,"Normal",2,670,"Include"
"LP2013_e1","LP2013_e1_10","regal",312,1,"Normal",4,669,"Include"
"LP2013_e1","LP2013_e1_10","kiss",313,1,"Normal",1,623,"Include"
"LP2013_e1","LP2013_e1_10","phony",314,1,"Normal",4,528,"Include"
"LP2013_e1","LP2013_e1_10","bear",315,0,"Normal",2,731,"Include"
"LP2013_e1","LP2013_e1_10","physic",316,0,"Normal",4,662,"Include"
"LP2013_e1","LP2013_e1_10","gravel",317,1,"Normal",4,726,"Include"
"LP2013_e1","LP2013_e1_10","drat",318,0,"Normal",4,601,"Include"
"LP2013_e1","LP2013_e1_10","deal",319,0,"Normal",3,677,"Include"
"LP2013_e1","LP2013_e1_10","spoof",320,0,"Normal",4,494,"Include"
"LP2013_e1","LP2013_e1_10","ink",321,1,"Normal",NA,NA,"Exclude"
"LP2013_e1","LP2013_e1_10","able",322,1,"Normal",4,543,"Include"
"LP2013_e1","LP2013_e1_10","mink",323,1,"Normal",4,579,"Include"
"LP2013_e1","LP2013_e1_10","bleat",324,1,"Normal",3,714,"Include"
"LP2013_e1","LP2013_e1_10","raze",325,1,"Normal",2,660,"Include"
"LP2013_e1","LP2013_e1_10","wave",326,1,"Normal",4,633,"Include"
"LP2013_e1","LP2013_e1_10","sum",327,1,"Normal",4,678,"Include"
"LP2013_e1","LP2013_e1_10","tea",328,1,"Normal",4,673,"Include"
"LP2013_e1","LP2013_e1_10","such",329,1,"Normal",3,683,"Include"
"LP2013_e1","LP2013_e1_10","wedge",330,1,"Normal",3,1142,"Include"
"LP2013_e1","LP2013_e1_10","weal",331,0,"Normal",4,604,"Include"
"LP2013_e1","LP2013_e1_10","drab",332,0,"Normal",2,608,"Include"
"LP2013_e1","LP2013_e1_10","eat",333,0,"Normal",3,772,"Include"
"LP2013_e1","LP2013_e1_10","cosy",334,1,"Normal",4,577,"Include"
"LP2013_e1","LP2013_e1_10","non",335,0,"Normal",3,604,"Include"
"LP2013_e1","LP2013_e1_10","kick",336,1,"Normal",3,777,"Include"
"LP2013_e1","LP2013_e1_10","age",337,0,"Normal",3,684,"Include"
"LP2013_e1","LP2013_e1_10","kiosk",338,1,"Normal",3,983,"Include"
"LP2013_e1","LP2013_e1_10","exalt",339,0,"Normal",4,722,"Include"
"LP2013_e1","LP2013_e1_10","weed",340,1,"Normal",3,596,"Include"
"LP2013_e1","LP2013_e1_10","hocus",341,0,"Normal",3,670,"Include"
"LP2013_e1","LP2013_e1_10","sunny",342,1,"Normal",4,802,"Include"
"LP2013_e1","LP2013_e1_10","lava",343,0,"Normal",2,615,"Include"
"LP2013_e1","LP2013_e1_10","tar",344,1,"Normal",2,802,"Include"
"LP2013_e1","LP2013_e1_10","pinch",345,0,"Normal",1,697,"Include"
"LP2013_e1","LP2013_e1_10","beard",346,1,"Normal",4,654,"Include"
"LP2013_e1","LP2013_e1_10","revel",347,0,"Normal",3,766,"Include"
"LP2013_e1","LP2013_e1_10","bead",348,1,"Normal",4,653,"Include"
"LP2013_e1","LP2013_e1_10","grab",349,1,"Normal",2,698,"Include"
"LP2013_e1","LP2013_e1_10","quip",350,0,"Normal",3,621,"Include"
"LP2013_e1","LP2013_e1_10","mummy",351,1,"Normal",4,563,"Include"
"LP2013_e1","LP2013_e1_10","web",352,1,"Normal",4,659,"Include"
"LP2013_e1","LP2013_e1_10","scion",353,0,"Normal",3,565,"Include"
"LP2013_e1","LP2013_e1_10","pouf",354,1,"Normal",1,613,"Include"
"LP2013_e1","LP2013_e1_10","warble",355,1,"Normal",3,565,"Include"
"LP2013_e1","LP2013_e1_10","jaw",356,0,"Normal",4,782,"Include"
"LP2013_e1","LP2013_e1_10","pouch",357,0,"Normal",3,687,"Include"
"LP2013_e1","LP2013_e1_10","beaver",358,1,"Normal",2,625,"Include"
"LP2013_e1","LP2013_e1_10","blare",359,0,"Normal",4,522,"Include"
"LP2013_e1","LP2013_e1_10","bag",360,1,"Normal",3,748,"Include"
"LP2013_e1","LP2013_e1_10","lard",361,0,"Normal",4,501,"Include"
"LP2013_e1","LP2013_e1_10","shin",362,1,"Normal",3,571,"Include"
"LP2013_e1","LP2013_e1_10","beadle",363,0,"Normal",4,647,"Include"
"LP2013_e1","LP2013_e1_10","chomp",364,0,"Normal",3,611,"Include"
"LP2013_e1","LP2013_e1_10","coin",365,1,"Normal",2,719,"Include"
"LP2013_e1","LP2013_e1_10","debt",366,1,"Normal",3,865,"Include"
"LP2013_e1","LP2013_e1_10","wed",367,0,"Normal",2,728,"Include"
"LP2013_e1","LP2013_e1_10","hump",368,1,"Normal",4,585,"Include"
"LP2013_e1","LP2013_e1_10","bat",369,0,"Normal",4,656,"Include"
"LP2013_e1","LP2013_e1_10","wager",370,1,"Normal",4,700,"Include"
"LP2013_e1","LP2013_e1_10","brawl",371,0,"Normal",2,844,"Include"
"LP2013_e1","LP2013_e1_10","unify",372,0,"Normal",4,538,"Include"
"LP2013_e1","LP2013_e1_10","scum",373,1,"Normal",4,598,"Include"
"LP2013_e1","LP2013_e1_10","algebra",374,1,"Normal",2,687,"Include"
"LP2013_e1","LP2013_e1_10","musk",375,1,"Normal",3,634,"Include"
"LP2013_e1","LP2013_e1_10","psychic",376,0,"Normal",3,761,"Include"
"LP2013_e1","LP2013_e1_10","bree",377,0,"Normal",4,633,"Include"
"LP2013_e1","LP2013_e1_10","skimp",378,1,"Normal",3,695,"Include"
"LP2013_e1","LP2013_e1_10","skin",379,1,"Normal",3,1097,"Include"
"LP2013_e1","LP2013_e1_10","axle",380,0,"Normal",4,661,"Include"
"LP2013_e1","LP2013_e1_10","gear",381,1,"Normal",3,579,"Include"
"LP2013_e1","LP2013_e1_10","smooch",382,0,"Normal",1,840,"Include"
"LP2013_e1","LP2013_e1_10","pup",383,1,"Normal",1,719,"Include"
"LP2013_e1","LP2013_e1_10","coo",384,0,"Normal",1,828,"Include"
"LP2013_e1","LP2013_e1_10","honk",385,0,"Normal",3,586,"Include"
"LP2013_e1","LP2013_e1_10","rag",386,0,"Normal",3,623,"Include"
"LP2013_e1","LP2013_e1_10","alert",387,1,"Normal",4,570,"Include"
"LP2013_e1","LP2013_e1_10","welt",388,0,"Normal",3,624,"Include"
"LP2013_e1","LP2013_e1_10","wear",389,1,"Normal",4,528,"Include"
"LP2013_e1","LP2013_e1_10","chop",390,0,"Normal",3,518,"Include"
"LP2013_e1","LP2013_e1_10","pinky",391,0,"Normal",3,761,"Include"
"LP2013_e1","LP2013_e1_10","hoofs",392,0,"Normal",4,567,"Include"
"LP2013_e1","LP2013_e1_10","jeer",393,1,"Normal",4,592,"Include"
"LP2013_e1","LP2013_e1_10","tree",394,1,"Normal",4,624,"Include"
"LP2013_e1","LP2013_e1_10","icy",395,1,"Normal",3,931,"Include"
"LP2013_e1","LP2013_e1_10","vet",396,0,"Normal",4,622,"Include"
"LP2013_e1","LP2013_e1_10","axe",397,0,"Normal",3,595,"Include"
"LP2013_e1","LP2013_e1_10","were",398,1,"Normal",1,727,"Include"
"LP2013_e1","LP2013_e1_10","beagle",399,1,"Normal",1,821,"Include"
"LP2013_e1","LP2013_e1_10","rage",400,1,"Normal",3,801,"Include"
"LP2013_e1","LP2013_e1_10","teal",401,0,"Normal",4,560,"Include"
"LP2013_e1","LP2013_e1_10","fumy",402,1,"Normal",3,616,"Include"
"LP2013_e1","LP2013_e1_10","spoon",403,1,"Normal",2,662,"Include"
"LP2013_e1","LP2013_e1_10","puff",404,1,"Normal",4,655,"Include"
"LP2013_e1","LP2013_e1_10","award",405,0,"Normal",4,583,"Include"
"LP2013_e1","LP2013_e1_10","drawl",406,1,"Normal",3,671,"Include"
"LP2013_e1","LP2013_e1_10","gavel",407,0,"Normal",3,597,"Include"
"LP2013_e1","LP2013_e1_10","blade",408,1,"Normal",4,775,"Include"
"LP2013_e1","LP2013_e1_10","muff",409,1,"Normal",3,612,"Include"
"LP2013_e1","LP2013_e1_10","badge",410,0,"Normal",2,594,"Include"
"LP2013_e1","LP2013_e1_10","miff",411,1,"Normal",3,566,"Include"
"LP2013_e1","LP2013_e1_10","scoop",412,1,"Normal",4,559,"Include"
"LP2013_e1","LP2013_e1_10","alder",413,0,"Normal",4,783,"Include"
"LP2013_e1","LP2013_e1_10","nosy",414,0,"Normal",4,638,"Include"
"LP2013_e1","LP2013_e1_10","cuff",415,0,"Normal",4,500,"Include"
"LP2013_e1","LP2013_e1_10","red",416,1,"Normal",4,432,"Include"
"LP2013_e1","LP2013_e1_10","scuff",417,0,"Normal",3,573,"Include"
"LP2013_e1","LP2013_e1_10","wax",418,0,"Normal",3,715,"Include"
"LP2013_e1","LP2013_e1_10","shook",419,1,"Normal",3,604,"Include"
"LP2013_e1","LP2013_e1_10","puck",420,0,"Normal",1,628,"Include"
"LP2013_e1","LP2013_e1_10","hop",421,1,"Normal",1,626,"Include"
"LP2013_e1","LP2013_e1_10","push",422,1,"Normal",3,569,"Include"
"LP2013_e1","LP2013_e1_10","nip",423,1,"Normal",4,472,"Include"
"LP2013_e1","LP2013_e1_10","braze",424,1,"Normal",1,671,"Include"
"LP2013_e1","LP2013_e1_10","miss",425,0,"Normal",3,714,"Include"
"LP2013_e1","LP2013_e1_10","twelve",426,0,"Normal",2,737,"Include"
"LP2013_e1","LP2013_e1_10","chimp",427,1,"Normal",4,663,"Include"
"LP2013_e1","LP2013_e1_10","beta",428,1,"Normal",4,665,"Include"
"LP2013_e1","LP2013_e1_10","summon",429,1,"Normal",3,638,"Include"
"LP2013_e1","LP2013_e1_10","data",430,1,"Normal",4,495,"Include"
"LP2013_e1","LP2013_e1_10","mousy",431,0,"Normal",2,606,"Include"
"LP2013_e1","LP2013_e1_10","large",432,0,"Normal",3,552,"Include"
"LP2013_e1","LP2013_e1_10","fusion",433,1,"Normal",2,491,"Include"
"LP2013_e1","LP2013_e1_10","ski",434,0,"Normal",4,580,"Include"
"LP2013_e1","LP2013_e1_10","poky",435,0,"Normal",3,710,"Include"
"LP2013_e1","LP2013_e1_10","graze",436,0,"Normal",2,670,"Include"
"LP2013_e1","LP2013_e1_10","pons",437,0,"Normal",3,561,"Include"
"LP2013_e1","LP2013_e1_10","sink",438,0,"Normal",4,665,"Include"
"LP2013_e1","LP2013_e1_10","skip",439,1,"Normal",2,595,"Include"
"LP2013_e1","LP2013_e1_10","moon",440,0,"Normal",NA,NA,"Exclude"
"LP2013_e1","LP2013_e1_10","raw",441,1,"Normal",4,602,"Include"
"LP2013_e1","LP2013_e1_10","ewe",442,0,"Normal",2,576,"Include"
"LP2013_e1","LP2013_e1_10","law",443,0,"Normal",4,640,"Include"
"LP2013_e1","LP2013_e1_10","sonic",444,0,"Normal",3,558,"Include"
"LP2013_e1","LP2013_e1_10","sin",445,0,"Normal",4,693,"Include"
"LP2013_e1","LP2013_e1_10","spook",446,0,"Normal",3,579,"Include"
"LP2013_e1","LP2013_e1_10","are",447,1,"Normal",1,687,"Include"
"LP2013_e1","LP2013_e1_10","glare",448,1,"Normal",2,620,"Include"
"LP2013_e1","LP2013_e1_10","wart",449,0,"Normal",4,562,"Include"
"LP2013_e1","LP2013_e1_10","laze",450,0,"Normal",3,568,"Include"
"LP2013_e1","LP2013_e1_10","monk",451,1,"Normal",4,642,"Include"
"LP2013_e1","LP2013_e1_10","dear",452,1,"Normal",4,699,"Include"
"LP2013_e1","LP2013_e1_10","pip",453,0,"Normal",3,538,"Include"
"LP2013_e1","LP2013_e1_10","bagel",454,1,"Normal",4,580,"Include"
"LP2013_e1","LP2013_e1_10","bar",455,0,"Normal",4,494,"Include"
"LP2013_e1","LP2013_e1_10","nom",456,0,"Normal",4,438,"Include"
"LP2013_e1","LP2013_e1_10","real",457,1,"Normal",3,495,"Include"
"LP2013_e1","LP2013_e1_10","sunk",458,1,"Normal",3,666,"Include"
"LP2013_e1","LP2013_e1_10","reed",459,1,"Normal",4,547,"Include"
"LP2013_e1","LP2013_e1_10","wade",460,1,"Normal",4,644,"Include"
"LP2013_e1","LP2013_e1_10","ledge",461,0,"Normal",3,590,"Include"
"LP2013_e1","LP2013_e1_10","off",462,0,"Normal",3,697,"Include"
"LP2013_e1","LP2013_e1_10","chunk",463,1,"Normal",2,606,"Include"
"LP2013_e1","LP2013_e1_10","pop",464,1,"Normal",3,628,"Include"
"LP2013_e1","LP2013_e1_10","valet",465,0,"Normal",2,504,"Include"
"LP2013_e1","LP2013_e1_10","opossum",466,0,"Normal",1,598,"Include"
"LP2013_e1","LP2013_e1_10","mumps",467,0,"Normal",1,572,"Include"
"LP2013_e1","LP2013_e1_10","rebel",468,1,"Normal",2,666,"Include"
"LP2013_e1","LP2013_e1_10","edge",469,1,"Normal",4,617,"Include"
"LP2013_e1","LP2013_e1_10","lax",470,1,"Normal",3,600,"Include"
"LP2013_e1","LP2013_e1_10","vertex",471,1,"Normal",3,692,"Include"
"LP2013_e1","LP2013_e1_10","opium",472,0,"Normal",3,662,"Include"
"LP2013_e1","LP2013_e1_10","kimono",473,1,"Normal",4,644,"Include"
"LP2013_e1","LP2013_e1_10","bred",474,0,"Normal",3,617,"Include"
"LP2013_e1","LP2013_e1_10","ear",475,0,"Normal",2,569,"Include"
"LP2013_e1","LP2013_e1_10","glee",476,1,"Normal",4,860,"Include"
"LP2013_e1","LP2013_e1_10","trade",477,0,"Normal",3,640,"Include"
"LP2013_e1","LP2013_e1_10","cuckoo",478,1,"Normal",2,864,"Include"
"LP2013_e1","LP2013_e1_10","coif",479,1,"Normal",4,757,"Include"
"LP2013_e1","LP2013_e1_10","sop",480,0,"Normal",4,729,"Include"
"LP2013_e1","LP2013_e1_11","pom",1,0,"Normal",3,1018,"Include"
"LP2013_e1","LP2013_e1_11","cushion",2,1,"Normal",4,1186,"Include"
"LP2013_e1","LP2013_e1_11","upon",3,1,"Normal",2,1093,"Include"
"LP2013_e1","LP2013_e1_11","chump",4,1,"Normal",4,1101,"Include"
"LP2013_e1","LP2013_e1_11","travel",5,1,"Normal",3,1674,"Include"
"LP2013_e1","LP2013_e1_11","chick",6,0,"Normal",3,2097,"Include"
"LP2013_e1","LP2013_e1_11","bard",7,1,"Normal",3,1516,"Include"
"LP2013_e1","LP2013_e1_11","ion",8,0,"Normal",2,2631,"Include"
"LP2013_e1","LP2013_e1_11","shop",9,0,"Normal",2,1277,"Include"
"LP2013_e1","LP2013_e1_11","spick",10,0,"Normal",2,1255,"Include"
"LP2013_e1","LP2013_e1_11","deer",11,0,"Normal",3,1427,"Include"
"LP2013_e1","LP2013_e1_11","deter",12,1,"Normal",2,1432,"Include"
"LP2013_e1","LP2013_e1_11","hunk",13,1,"Normal",4,999,"Include"
"LP2013_e1","LP2013_e1_11","pinny",14,1,"Normal",4,971,"Include"
"LP2013_e1","LP2013_e1_11","dart",15,1,"Normal",3,907,"Include"
"LP2013_e1","LP2013_e1_11","begat",16,1,"Normal",4,1051,"Include"
"LP2013_e1","LP2013_e1_11","ate",17,1,"Normal",3,957,"Include"
"LP2013_e1","LP2013_e1_11","average",18,1,"Normal",4,1344,"Include"
"LP2013_e1","LP2013_e1_11","muss",19,1,"Normal",4,1266,"Include"
"LP2013_e1","LP2013_e1_11","shun",20,1,"Normal",3,1125,"Include"
"LP2013_e1","LP2013_e1_11","gave",21,1,"Normal",3,989,"Include"
"LP2013_e1","LP2013_e1_11","husk",22,1,"Normal",3,1085,"Include"
"LP2013_e1","LP2013_e1_11","sock",23,1,"Normal",2,1238,"Include"
"LP2013_e1","LP2013_e1_11","shimmy",24,0,"Normal",2,1639,"Include"
"LP2013_e1","LP2013_e1_11","coop",25,0,"Normal",2,1029,"Include"
"LP2013_e1","LP2013_e1_11","gab",26,1,"Normal",3,1572,"Include"
"LP2013_e1","LP2013_e1_11","quick",27,1,"Normal",2,1530,"Include"
"LP2013_e1","LP2013_e1_11","myopic",28,1,"Normal",4,1135,"Include"
"LP2013_e1","LP2013_e1_11","noon",29,0,"Normal",1,1775,"Include"
"LP2013_e1","LP2013_e1_11","gala",30,0,"Normal",3,2216,"Include"
"LP2013_e1","LP2013_e1_11","unison",31,1,"Normal",3,1383,"Include"
"LP2013_e1","LP2013_e1_11","noun",32,0,"Normal",3,1137,"Include"
"LP2013_e1","LP2013_e1_11","minimum",33,0,"Normal",3,1297,"Include"
"LP2013_e1","LP2013_e1_11","coy",34,1,"Normal",3,1146,"Include"
"LP2013_e1","LP2013_e1_11","eagle",35,0,"Normal",2,1141,"Include"
"LP2013_e1","LP2013_e1_11","glade",36,0,"Normal",3,922,"Include"
"LP2013_e1","LP2013_e1_11","waver",37,0,"Normal",3,1033,"Include"
"LP2013_e1","LP2013_e1_11","shock",38,0,"Normal",2,1719,"Include"
"LP2013_e1","LP2013_e1_11","gable",39,1,"Normal",4,953,"Include"
"LP2013_e1","LP2013_e1_11","fun",40,1,"Normal",2,1177,"Include"
"LP2013_e1","LP2013_e1_11","bee",41,1,"Normal",4,1001,"Include"
"LP2013_e1","LP2013_e1_11","bald",42,0,"Normal",2,1089,"Include"
"LP2013_e1","LP2013_e1_11","ominous",43,1,"Normal",3,1294,"Include"
"LP2013_e1","LP2013_e1_11","skunk",44,0,"Normal",2,1068,"Include"
"LP2013_e1","LP2013_e1_11","puss",45,0,"Normal",3,1456,"Include"
"LP2013_e1","LP2013_e1_11","jewel",46,1,"Normal",3,1116,"Include"
"LP2013_e1","LP2013_e1_11","aver",47,0,"Normal",1,3175,"Include"
"LP2013_e1","LP2013_e1_11","kin",48,0,"Normal",2,1396,"Include"
"LP2013_e1","LP2013_e1_11","mucus",49,1,"Normal",4,899,"Include"
"LP2013_e1","LP2013_e1_11","dew",50,0,"Normal",2,1158,"Include"
"LP2013_e1","LP2013_e1_11","read",51,0,"Normal",3,1227,"Include"
"LP2013_e1","LP2013_e1_11","veal",52,1,"Normal",3,1016,"Include"
"LP2013_e1","LP2013_e1_11","mock",53,0,"Normal",4,1007,"Include"
"LP2013_e1","LP2013_e1_11","soy",54,0,"Normal",3,998,"Include"
"LP2013_e1","LP2013_e1_11","conk",55,0,"Normal",2,834,"Include"
"LP2013_e1","LP2013_e1_11","sky",56,1,"Normal",3,938,"Include"
"LP2013_e1","LP2013_e1_11","hon",57,1,"Normal",2,934,"Include"
"LP2013_e1","LP2013_e1_11","spin",58,0,"Normal",3,1052,"Include"
"LP2013_e1","LP2013_e1_11","inn",59,1,"Normal",2,1178,"Include"
"LP2013_e1","LP2013_e1_11","zeta",60,1,"Normal",4,1198,"Include"
"LP2013_e1","LP2013_e1_11","snoop",61,0,"Normal",3,1287,"Include"
"LP2013_e1","LP2013_e1_11","grave",62,0,"Normal",4,980,"Include"
"LP2013_e1","LP2013_e1_11","copy",63,0,"Normal",3,704,"Include"
"LP2013_e1","LP2013_e1_11","shoo",64,1,"Normal",2,829,"Include"
"LP2013_e1","LP2013_e1_11","nicks",65,0,"Normal",1,1481,"Include"
"LP2013_e1","LP2013_e1_11","blew",66,0,"Normal",2,1254,"Include"
"LP2013_e1","LP2013_e1_11","relax",67,0,"Normal",3,1214,"Include"
"LP2013_e1","LP2013_e1_11","cosmic",68,1,"Normal",4,1233,"Include"
"LP2013_e1","LP2013_e1_11","eave",69,0,"Normal",2,1087,"Include"
"LP2013_e1","LP2013_e1_11","extra",70,0,"Normal",3,1733,"Include"
"LP2013_e1","LP2013_e1_11","grew",71,1,"Normal",2,926,"Include"
"LP2013_e1","LP2013_e1_11","smoky",72,1,"Normal",3,895,"Include"
"LP2013_e1","LP2013_e1_11","ouch",73,0,"Normal",3,1386,"Include"
"LP2013_e1","LP2013_e1_11","tzar",74,1,"Normal",2,1363,"Include"
"LP2013_e1","LP2013_e1_11","let",75,1,"Normal",2,913,"Include"
"LP2013_e1","LP2013_e1_11","table",76,0,"Normal",3,1173,"Include"
"LP2013_e1","LP2013_e1_11","greet",77,0,"Normal",3,819,"Include"
"LP2013_e1","LP2013_e1_11","eve",78,0,"Normal",3,1110,"Include"
"LP2013_e1","LP2013_e1_11","dare",79,1,"Normal",2,932,"Include"
"LP2013_e1","LP2013_e1_11","bare",80,0,"Normal",3,744,"Include"
"LP2013_e1","LP2013_e1_11","grate",81,1,"Normal",4,1143,"Include"
"LP2013_e1","LP2013_e1_11","coup",82,0,"Normal",2,1312,"Include"
"LP2013_e1","LP2013_e1_11","mono",83,0,"Normal",2,1173,"Include"
"LP2013_e1","LP2013_e1_11","algae",84,0,"Normal",2,1128,"Include"
"LP2013_e1","LP2013_e1_11","jet",85,1,"Normal",3,2050,"Include"
"LP2013_e1","LP2013_e1_11","lewd",86,0,"Normal",1,2298,"Include"
"LP2013_e1","LP2013_e1_11","lear",87,0,"Normal",2,1096,"Include"
"LP2013_e1","LP2013_e1_11","spunk",88,1,"Normal",3,1389,"Include"
"LP2013_e1","LP2013_e1_11","posh",89,1,"Normal",3,1383,"Include"
"LP2013_e1","LP2013_e1_11","mimic",90,0,"Normal",2,1282,"Include"
"LP2013_e1","LP2013_e1_11","verbal",91,0,"Normal",3,1640,"Include"
"LP2013_e1","LP2013_e1_11","lad",92,0,"Normal",2,1179,"Include"
"LP2013_e1","LP2013_e1_11","him",93,1,"Normal",3,992,"Include"
"LP2013_e1","LP2013_e1_11","comfy",94,0,"Normal",2,869,"Include"
"LP2013_e1","LP2013_e1_11","garble",95,1,"Normal",3,910,"Include"
"LP2013_e1","LP2013_e1_11","sip",96,1,"Normal",2,840,"Include"
"LP2013_e1","LP2013_e1_11","leer",97,1,"Normal",3,1708,"Include"
"LP2013_e1","LP2013_e1_11","huff",98,0,"Normal",2,1618,"Include"
"LP2013_e1","LP2013_e1_11","date",99,0,"Normal",2,919,"Include"
"LP2013_e1","LP2013_e1_11","delve",100,1,"Normal",2,995,"Include"
"LP2013_e1","LP2013_e1_11","hick",101,0,"Normal",3,2340,"Include"
"LP2013_e1","LP2013_e1_11","larvae",102,0,"Normal",2,826,"Include"
"LP2013_e1","LP2013_e1_11","hips",103,0,"Normal",3,1317,"Include"
"LP2013_e1","LP2013_e1_11","alter",104,1,"Normal",2,2681,"Include"
"LP2013_e1","LP2013_e1_11","minus",105,1,"Normal",3,796,"Include"
"LP2013_e1","LP2013_e1_11","gate",106,0,"Normal",3,903,"Include"
"LP2013_e1","LP2013_e1_11","soup",107,0,"Normal",3,931,"Include"
"LP2013_e1","LP2013_e1_11","shy",108,1,"Normal",4,1059,"Include"
"LP2013_e1","LP2013_e1_11","pink",109,1,"Normal",2,887,"Include"
"LP2013_e1","LP2013_e1_11","bed",110,1,"Normal",3,492,"Include"
"LP2013_e1","LP2013_e1_11","awe",111,1,"Normal",3,581,"Include"
"LP2013_e1","LP2013_e1_11","later",112,1,"Normal",3,1841,"Include"
"LP2013_e1","LP2013_e1_11","munch",113,1,"Normal",2,1182,"Include"
"LP2013_e1","LP2013_e1_11","tax",114,1,"Normal",2,1187,"Include"
"LP2013_e1","LP2013_e1_11","wet",115,0,"Normal",3,1288,"Include"
"LP2013_e1","LP2013_e1_11","vex",116,1,"Normal",3,1049,"Include"
"LP2013_e1","LP2013_e1_11","draw",117,0,"Normal",3,913,"Include"
"LP2013_e1","LP2013_e1_11","wad",118,1,"Normal",3,582,"Include"
"LP2013_e1","LP2013_e1_11","adverb",119,0,"Normal",2,1209,"Include"
"LP2013_e1","LP2013_e1_11","brag",120,0,"Normal",3,731,"Include"
"LP2013_e1","LP2013_e1_11","con",121,0,"Normal",3,739,"Include"
"LP2013_e1","LP2013_e1_11","smock",122,1,"Normal",4,978,"Include"
"LP2013_e1","LP2013_e1_11","huck",123,0,"Normal",3,698,"Include"
"LP2013_e1","LP2013_e1_11","ravage",124,0,"Normal",2,1355,"Include"
"LP2013_e1","LP2013_e1_11","spiky",125,0,"Normal",2,884,"Include"
"LP2013_e1","LP2013_e1_11","oomph",126,0,"Normal",3,1474,"Include"
"LP2013_e1","LP2013_e1_11","mopy",127,0,"Normal",2,777,"Include"
"LP2013_e1","LP2013_e1_11","nymph",128,1,"Normal",3,763,"Include"
"LP2013_e1","LP2013_e1_11","sup",129,1,"Normal",4,808,"Include"
"LP2013_e1","LP2013_e1_11","mum",130,1,"Normal",3,613,"Include"
"LP2013_e1","LP2013_e1_11","grade",131,1,"Normal",3,1071,"Include"
"LP2013_e1","LP2013_e1_11","you",132,0,"Normal",2,980,"Include"
"LP2013_e1","LP2013_e1_11","hook",133,0,"Normal",3,849,"Include"
"LP2013_e1","LP2013_e1_11","brave",134,0,"Normal",2,725,"Include"
"LP2013_e1","LP2013_e1_11","chin",135,1,"Normal",3,783,"Include"
"LP2013_e1","LP2013_e1_11","nook",136,1,"Normal",4,872,"Include"
"LP2013_e1","LP2013_e1_11","art",137,1,"Normal",3,1278,"Include"
"LP2013_e1","LP2013_e1_11","hoop",138,1,"Normal",4,1472,"Include"
"LP2013_e1","LP2013_e1_11","finish",139,1,"Normal",NA,NA,"Exclude"
"LP2013_e1","LP2013_e1_11","cumin",140,0,"Normal",1,1943,"Include"
"LP2013_e1","LP2013_e1_11","pony",141,0,"Normal",3,1066,"Include"
"LP2013_e1","LP2013_e1_11","brew",142,1,"Normal",3,1287,"Include"
"LP2013_e1","LP2013_e1_11","mom",143,0,"Normal",3,1610,"Include"
"LP2013_e1","LP2013_e1_11","bale",144,0,"Normal",2,1317,"Include"
"LP2013_e1","LP2013_e1_11","area",145,0,"Normal",3,1243,"Include"
"LP2013_e1","LP2013_e1_11","lead",146,1,"Normal",2,1282,"Include"
"LP2013_e1","LP2013_e1_11","bet",147,1,"Normal",3,935,"Include"
"LP2013_e1","LP2013_e1_11","zeal",148,0,"Normal",2,1209,"Include"
"LP2013_e1","LP2013_e1_11","much",149,0,"Normal",2,1523,"Include"
"LP2013_e1","LP2013_e1_11","chum",150,1,"Normal",3,1194,"Include"
"LP2013_e1","LP2013_e1_11","tale",151,1,"Normal",3,1228,"Include"
"LP2013_e1","LP2013_e1_11","cop",152,1,"Normal",4,917,"Include"
"LP2013_e1","LP2013_e1_11","chip",153,0,"Normal",3,929,"Include"
"LP2013_e1","LP2013_e1_11","impish",154,1,"Normal",3,1266,"Include"
"LP2013_e1","LP2013_e1_11","blazer",155,0,"Normal",2,754,"Include"
"LP2013_e1","LP2013_e1_11","icon",156,0,"Normal",3,669,"Include"
"LP2013_e1","LP2013_e1_11","quin",157,1,"Normal",2,887,"Include"
"LP2013_e1","LP2013_e1_11","waltz",158,0,"Normal",3,1399,"Include"
"LP2013_e1","LP2013_e1_11","tag",159,1,"Normal",3,766,"Include"
"LP2013_e1","LP2013_e1_11","beet",160,1,"Normal",3,1457,"Include"
"LP2013_e1","LP2013_e1_11","tread",161,1,"Normal",3,1018,"Include"
"LP2013_e1","LP2013_e1_11","era",162,1,"Normal",2,1711,"Include"
"LP2013_e1","LP2013_e1_11","noisy",163,1,"Normal",2,1217,"Include"
"LP2013_e1","LP2013_e1_11","hymn",164,1,"Normal",2,2069,"Include"
"LP2013_e1","LP2013_e1_11","ship",165,0,"Normal",3,761,"Include"
"LP2013_e1","LP2013_e1_11","cusp",166,0,"Normal",2,762,"Include"
"LP2013_e1","LP2013_e1_11","pinon",167,1,"Normal",1,1138,"Include"
"LP2013_e1","LP2013_e1_11","jab",168,1,"Normal",2,797,"Include"
"LP2013_e1","LP2013_e1_11","greed",169,1,"Normal",3,737,"Include"
"LP2013_e1","LP2013_e1_11","exert",170,0,"Normal",2,1210,"Include"
"LP2013_e1","LP2013_e1_11","ravel",171,0,"Normal",2,965,"Include"
"LP2013_e1","LP2013_e1_11","posy",172,1,"Normal",3,787,"Include"
"LP2013_e1","LP2013_e1_11","jar",173,0,"Normal",3,998,"Include"
"LP2013_e1","LP2013_e1_11","ware",174,0,"Normal",2,1268,"Include"
"LP2013_e1","LP2013_e1_11","belt",175,0,"Normal",3,1129,"Include"
"LP2013_e1","LP2013_e1_11","avert",176,1,"Normal",4,1522,"Include"
"LP2013_e1","LP2013_e1_11","poppy",177,0,"Normal",3,1459,"Include"
"LP2013_e1","LP2013_e1_11","beg",178,1,"Normal",2,2588,"Include"
"LP2013_e1","LP2013_e1_11","inch",179,1,"Normal",3,1065,"Include"
"LP2013_e1","LP2013_e1_11","leg",180,1,"Normal",3,937,"Include"
"LP2013_e1","LP2013_e1_11","union",181,1,"Normal",4,1310,"Include"
"LP2013_e1","LP2013_e1_11","evade",182,1,"Normal",3,1035,"Include"
"LP2013_e1","LP2013_e1_11","leave",183,0,"Normal",2,1023,"Include"
"LP2013_e1","LP2013_e1_11","rave",184,1,"Normal",3,1250,"Include"
"LP2013_e1","LP2013_e1_11","cony",185,1,"Normal",2,858,"Include"
"LP2013_e1","LP2013_e1_11","spy",186,1,"Normal",3,496,"Include"
"LP2013_e1","LP2013_e1_11","skinny",187,1,"Normal",3,993,"Include"
"LP2013_e1","LP2013_e1_11","water",188,0,"Normal",2,931,"Include"
"LP2013_e1","LP2013_e1_11","poncho",189,0,"Normal",3,786,"Include"
"LP2013_e1","LP2013_e1_11","dwelt",190,1,"Normal",2,796,"Include"
"LP2013_e1","LP2013_e1_11","onus",191,1,"Normal",1,1216,"Include"
"LP2013_e1","LP2013_e1_11","eel",192,1,"Normal",2,1025,"Include"
"LP2013_e1","LP2013_e1_11","shiny",193,1,"Normal",3,882,"Include"
"LP2013_e1","LP2013_e1_11","jade",194,1,"Normal",3,1030,"Include"
"LP2013_e1","LP2013_e1_11","weave",195,1,"Normal",4,1386,"Include"
"LP2013_e1","LP2013_e1_11","agree",196,0,"Normal",3,1027,"Include"
"LP2013_e1","LP2013_e1_11","advert",197,0,"Normal",3,809,"Include"
"LP2013_e1","LP2013_e1_11","beret",198,1,"Normal",2,773,"Include"
"LP2013_e1","LP2013_e1_11","sic",199,0,"Normal",1,1023,"Include"
"LP2013_e1","LP2013_e1_11","verb",200,0,"Normal",2,969,"Include"
"LP2013_e1","LP2013_e1_11","ale",201,0,"Normal",2,1090,"Include"
"LP2013_e1","LP2013_e1_11","skim",202,1,"Normal",3,1163,"Include"
"LP2013_e1","LP2013_e1_11","daze",203,0,"Normal",2,1746,"Include"
"LP2013_e1","LP2013_e1_11","led",204,0,"Normal",3,631,"Include"
"LP2013_e1","LP2013_e1_11","spicy",205,1,"Normal",2,719,"Include"
"LP2013_e1","LP2013_e1_11","mooch",206,1,"Normal",4,928,"Include"
"LP2013_e1","LP2013_e1_11","elder",207,1,"Normal",2,1251,"Include"
"LP2013_e1","LP2013_e1_11","finch",208,0,"Normal",2,730,"Include"
"LP2013_e1","LP2013_e1_11","glad",209,1,"Normal",3,582,"Include"
"LP2013_e1","LP2013_e1_11","bade",210,0,"Normal",3,606,"Include"
"LP2013_e1","LP2013_e1_11","wale",211,1,"Normal",2,1034,"Include"
"LP2013_e1","LP2013_e1_11","piny",212,0,"Normal",2,921,"Include"
"LP2013_e1","LP2013_e1_11","beat",213,1,"Normal",3,1005,"Include"
"LP2013_e1","LP2013_e1_11","bled",214,1,"Normal",2,737,"Include"
"LP2013_e1","LP2013_e1_11","sun",215,0,"Normal",2,1067,"Include"
"LP2013_e1","LP2013_e1_11","lab",216,1,"Normal",2,664,"Include"
"LP2013_e1","LP2013_e1_11","piss",217,0,"Normal",2,608,"Include"
"LP2013_e1","LP2013_e1_11","latex",218,0,"Normal",1,933,"Include"
"LP2013_e1","LP2013_e1_11","cup",219,1,"Normal",2,487,"Include"
"LP2013_e1","LP2013_e1_11","barge",220,0,"Normal",3,816,"Include"
"LP2013_e1","LP2013_e1_11","mission",221,0,"Normal",2,970,"Include"
"LP2013_e1","LP2013_e1_11","hock",222,1,"Normal",2,742,"Include"
"LP2013_e1","LP2013_e1_11","focus",223,0,"Normal",3,1139,"Include"
"LP2013_e1","LP2013_e1_11","drag",224,1,"Normal",3,1140,"Include"
"LP2013_e1","LP2013_e1_11","reveal",225,0,"Normal",4,974,"Include"
"LP2013_e1","LP2013_e1_11","pious",226,1,"Normal",2,1009,"Include"
"LP2013_e1","LP2013_e1_11","ledger",227,1,"Normal",2,831,"Include"
"LP2013_e1","LP2013_e1_11","nun",228,0,"Normal",3,1011,"Include"
"LP2013_e1","LP2013_e1_11","sick",229,0,"Normal",3,760,"Include"
"LP2013_e1","LP2013_e1_11","reel",230,0,"Normal",2,1090,"Include"
"LP2013_e1","LP2013_e1_11","ossify",231,1,"Normal",1,1015,"Include"
"LP2013_e1","LP2013_e1_11","choosy",232,0,"Normal",2,759,"Include"
"LP2013_e1","LP2013_e1_11","rate",233,0,"Normal",3,716,"Include"
"LP2013_e1","LP2013_e1_11","suck",234,0,"Normal",2,856,"Include"
"LP2013_e1","LP2013_e1_11","funk",235,0,"Normal",3,878,"Include"
"LP2013_e1","LP2013_e1_11","kip",236,0,"Normal",2,700,"Include"
"LP2013_e1","LP2013_e1_11","earl",237,0,"Normal",2,738,"Include"
"LP2013_e1","LP2013_e1_11","wage",238,0,"Normal",3,577,"Include"
"LP2013_e1","LP2013_e1_11","war",239,0,"Normal",2,830,"Include"
"LP2013_e1","LP2013_e1_11","rat",240,0,"Normal",3,693,"Include"
"LP2013_e1","LP2013_e1_11","homy",241,1,"Letter_Segregated",3,506,"Include"
"LP2013_e1","LP2013_e1_11","scion",242,1,"Letter_Segregated",4,1118,"Include"
"LP2013_e1","LP2013_e1_11","weed",243,0,"Letter_Segregated",2,988,"Include"
"LP2013_e1","LP2013_e1_11","tee",244,0,"Letter_Segregated",1,1056,"Include"
"LP2013_e1","LP2013_e1_11","reave",245,0,"Letter_Segregated",2,833,"Include"
"LP2013_e1","LP2013_e1_11","java",246,0,"Letter_Segregated",2,802,"Include"
"LP2013_e1","LP2013_e1_11","pock",247,1,"Letter_Segregated",2,610,"Include"
"LP2013_e1","LP2013_e1_11","punk",248,1,"Letter_Segregated",4,870,"Include"
"LP2013_e1","LP2013_e1_11","phony",249,1,"Letter_Segregated",4,817,"Include"
"LP2013_e1","LP2013_e1_11","gravel",250,0,"Letter_Segregated",2,871,"Include"
"LP2013_e1","LP2013_e1_11","music",251,1,"Letter_Segregated",4,1102,"Include"
"LP2013_e1","LP2013_e1_11","mush",252,1,"Letter_Segregated",3,1006,"Include"
"LP2013_e1","LP2013_e1_11","able",253,0,"Letter_Segregated",2,1783,"Include"
"LP2013_e1","LP2013_e1_11","level",254,0,"Letter_Segregated",2,1138,"Include"
"LP2013_e1","LP2013_e1_11","snuff",255,1,"Letter_Segregated",4,953,"Include"
"LP2013_e1","LP2013_e1_11","debate",256,0,"Letter_Segregated",3,1264,"Include"
"LP2013_e1","LP2013_e1_11","gaze",257,0,"Letter_Segregated",3,983,"Include"
"LP2013_e1","LP2013_e1_11","bread",258,0,"Letter_Segregated",1,1094,"Include"
"LP2013_e1","LP2013_e1_11","son",259,1,"Letter_Segregated",4,1149,"Include"
"LP2013_e1","LP2013_e1_11","weld",260,0,"Letter_Segregated",2,956,"Include"
"LP2013_e1","LP2013_e1_11","blare",261,0,"Letter_Segregated",3,963,"Include"
"LP2013_e1","LP2013_e1_11","coupon",262,1,"Letter_Segregated",3,931,"Include"
"LP2013_e1","LP2013_e1_11","wedge",263,0,"Letter_Segregated",3,1022,"Include"
"LP2013_e1","LP2013_e1_11","aware",264,0,"Letter_Segregated",2,1076,"Include"
"LP2013_e1","LP2013_e1_11","funny",265,1,"Letter_Segregated",4,870,"Include"
"LP2013_e1","LP2013_e1_11","weal",266,0,"Letter_Segregated",3,1045,"Include"
"LP2013_e1","LP2013_e1_11","ink",267,1,"Letter_Segregated",2,830,"Include"
"LP2013_e1","LP2013_e1_11","glaze",268,0,"Letter_Segregated",4,1059,"Include"
"LP2013_e1","LP2013_e1_11","badger",269,0,"Letter_Segregated",3,947,"Include"
"LP2013_e1","LP2013_e1_11","regal",270,0,"Letter_Segregated",2,753,"Include"
"LP2013_e1","LP2013_e1_11","pick",271,1,"Letter_Segregated",3,1045,"Include"
"LP2013_e1","LP2013_e1_11","snip",272,1,"Letter_Segregated",3,1147,"Include"
"LP2013_e1","LP2013_e1_11","cousin",273,1,"Letter_Segregated",3,1695,"Include"
"LP2013_e1","LP2013_e1_11","brat",274,0,"Letter_Segregated",2,3324,"Include"
"LP2013_e1","LP2013_e1_11","wave",275,0,"Letter_Segregated",3,1186,"Include"
"LP2013_e1","LP2013_e1_11","kiosk",276,1,"Letter_Segregated",4,979,"Include"
"LP2013_e1","LP2013_e1_11","fish",277,1,"Letter_Segregated",2,1539,"Include"
"LP2013_e1","LP2013_e1_11","drab",278,0,"Letter_Segregated",3,653,"Include"
"LP2013_e1","LP2013_e1_11","gel",279,0,"Letter_Segregated",2,744,"Include"
"LP2013_e1","LP2013_e1_11","kick",280,1,"Letter_Segregated",2,581,"Include"
"LP2013_e1","LP2013_e1_11","soon",281,1,"Letter_Segregated",3,890,"Include"
"LP2013_e1","LP2013_e1_11","jaw",282,0,"Letter_Segregated",3,463,"Include"
"LP2013_e1","LP2013_e1_11","grab",283,0,"Letter_Segregated",2,658,"Include"
"LP2013_e1","LP2013_e1_11","warble",284,0,"Letter_Segregated",2,878,"Include"
"LP2013_e1","LP2013_e1_11","sum",285,1,"Letter_Segregated",3,771,"Include"
"LP2013_e1","LP2013_e1_11","puny",286,1,"Letter_Segregated",3,948,"Include"
"LP2013_e1","LP2013_e1_11","ward",287,0,"Letter_Segregated",3,571,"Include"
"LP2013_e1","LP2013_e1_11","tweed",288,0,"Letter_Segregated",2,831,"Include"
"LP2013_e1","LP2013_e1_11","quip",289,1,"Letter_Segregated",2,883,"Include"
"LP2013_e1","LP2013_e1_11","hum",290,1,"Letter_Segregated",2,887,"Include"
"LP2013_e1","LP2013_e1_11","bear",291,0,"Letter_Segregated",3,765,"Include"
"LP2013_e1","LP2013_e1_11","phi",292,1,"Letter_Segregated",3,1039,"Include"
"LP2013_e1","LP2013_e1_11","bleat",293,0,"Letter_Segregated",3,995,"Include"
"LP2013_e1","LP2013_e1_11","veer",294,0,"Letter_Segregated",3,981,"Include"
"LP2013_e1","LP2013_e1_11","age",295,0,"Letter_Segregated",2,657,"Include"
"LP2013_e1","LP2013_e1_11","his",296,1,"Letter_Segregated",3,469,"Include"
"LP2013_e1","LP2013_e1_11","mink",297,1,"Letter_Segregated",3,745,"Include"
"LP2013_e1","LP2013_e1_11","bag",298,0,"Letter_Segregated",2,899,"Include"
"LP2013_e1","LP2013_e1_11","bad",299,0,"Letter_Segregated",3,690,"Include"
"LP2013_e1","LP2013_e1_11","lag",300,0,"Letter_Segregated",2,692,"Include"
"LP2013_e1","LP2013_e1_11","moo",301,1,"Letter_Segregated",2,1198,"Include"
"LP2013_e1","LP2013_e1_11","pouch",302,1,"Letter_Segregated",4,1230,"Include"
"LP2013_e1","LP2013_e1_11","garb",303,0,"Letter_Segregated",3,914,"Include"
"LP2013_e1","LP2013_e1_11","spoof",304,1,"Letter_Segregated",3,1023,"Include"
"LP2013_e1","LP2013_e1_11","elate",305,0,"Letter_Segregated",1,1482,"Include"
"LP2013_e1","LP2013_e1_11","nosh",306,1,"Letter_Segregated",3,1168,"Include"
"LP2013_e1","LP2013_e1_11","such",307,1,"Letter_Segregated",3,823,"Include"
"LP2013_e1","LP2013_e1_11","tar",308,0,"Letter_Segregated",3,795,"Include"
"LP2013_e1","LP2013_e1_11","non",309,1,"Letter_Segregated",2,751,"Include"
"LP2013_e1","LP2013_e1_11","cosy",310,1,"Letter_Segregated",3,738,"Include"
"LP2013_e1","LP2013_e1_11","opus",311,1,"Letter_Segregated",3,861,"Include"
"LP2013_e1","LP2013_e1_11","fin",312,1,"Letter_Segregated",2,755,"Include"
"LP2013_e1","LP2013_e1_11","pinch",313,1,"Letter_Segregated",2,841,"Include"
"LP2013_e1","LP2013_e1_11","drat",314,0,"Letter_Segregated",3,517,"Include"
"LP2013_e1","LP2013_e1_11","zebra",315,0,"Letter_Segregated",2,780,"Include"
"LP2013_e1","LP2013_e1_11","great",316,0,"Letter_Segregated",2,919,"Include"
"LP2013_e1","LP2013_e1_11","hiss",317,1,"Letter_Segregated",3,625,"Include"
"LP2013_e1","LP2013_e1_11","delta",318,0,"Letter_Segregated",2,1052,"Include"
"LP2013_e1","LP2013_e1_11","cook",319,1,"Letter_Segregated",3,802,"Include"
"LP2013_e1","LP2013_e1_11","bead",320,0,"Letter_Segregated",3,800,"Include"
"LP2013_e1","LP2013_e1_11","deal",321,0,"Letter_Segregated",2,985,"Include"
"LP2013_e1","LP2013_e1_11","mop",322,1,"Letter_Segregated",3,645,"Include"
"LP2013_e1","LP2013_e1_11","cuss",323,1,"Letter_Segregated",3,679,"Include"
"LP2013_e1","LP2013_e1_11","pin",324,1,"Letter_Segregated",2,503,"Include"
"LP2013_e1","LP2013_e1_11","ever",325,0,"Letter_Segregated",2,675,"Include"
"LP2013_e1","LP2013_e1_11","pun",326,1,"Letter_Segregated",3,565,"Include"
"LP2013_e1","LP2013_e1_11","drew",327,0,"Letter_Segregated",2,1008,"Include"
"LP2013_e1","LP2013_e1_11","exalt",328,0,"Letter_Segregated",2,764,"Include"
"LP2013_e1","LP2013_e1_11","physic",329,1,"Letter_Segregated",2,839,"Include"
"LP2013_e1","LP2013_e1_11","finicky",330,1,"Letter_Segregated",1,921,"Include"
"LP2013_e1","LP2013_e1_11","tab",331,0,"Letter_Segregated",2,687,"Include"
"LP2013_e1","LP2013_e1_11","mick",332,1,"Letter_Segregated",2,777,"Include"
"LP2013_e1","LP2013_e1_11","poison",333,1,"Letter_Segregated",3,603,"Include"
"LP2013_e1","LP2013_e1_11","schism",334,1,"Letter_Segregated",3,827,"Include"
"LP2013_e1","LP2013_e1_11","mummy",335,1,"Letter_Segregated",3,736,"Include"
"LP2013_e1","LP2013_e1_11","get",336,0,"Letter_Segregated",3,1024,"Include"
"LP2013_e1","LP2013_e1_11","punish",337,1,"Letter_Segregated",3,831,"Include"
"LP2013_e1","LP2013_e1_11","beard",338,0,"Letter_Segregated",3,872,"Include"
"LP2013_e1","LP2013_e1_11","beer",339,0,"Letter_Segregated",2,640,"Include"
"LP2013_e1","LP2013_e1_11","beaver",340,0,"Letter_Segregated",4,1068,"Include"
"LP2013_e1","LP2013_e1_11","sunny",341,1,"Letter_Segregated",1,1222,"Include"
"LP2013_e1","LP2013_e1_11","breed",342,0,"Letter_Segregated",2,792,"Include"
"LP2013_e1","LP2013_e1_11","lava",343,0,"Letter_Segregated",2,724,"Include"
"LP2013_e1","LP2013_e1_11","revel",344,0,"Letter_Segregated",3,365,"Include"
"LP2013_e1","LP2013_e1_11","pouf",345,1,"Letter_Segregated",4,1123,"Include"
"LP2013_e1","LP2013_e1_11","muck",346,1,"Letter_Segregated",3,891,"Include"
"LP2013_e1","LP2013_e1_11","fuss",347,1,"Letter_Segregated",2,783,"Include"
"LP2013_e1","LP2013_e1_11","web",348,0,"Letter_Segregated",1,1239,"Include"
"LP2013_e1","LP2013_e1_11","spiny",349,1,"Letter_Segregated",2,967,"Include"
"LP2013_e1","LP2013_e1_11","eat",350,0,"Letter_Segregated",2,1023,"Include"
"LP2013_e1","LP2013_e1_11","kiss",351,1,"Letter_Segregated",3,860,"Include"
"LP2013_e1","LP2013_e1_11","tear",352,0,"Letter_Segregated",3,637,"Include"
"LP2013_e1","LP2013_e1_11","moss",353,1,"Letter_Segregated",3,1132,"Include"
"LP2013_e1","LP2013_e1_11","tea",354,0,"Letter_Segregated",3,646,"Include"
"LP2013_e1","LP2013_e1_11","pomp",355,1,"Letter_Segregated",3,703,"Include"
"LP2013_e1","LP2013_e1_11","shuck",356,1,"Letter_Segregated",3,1002,"Include"
"LP2013_e1","LP2013_e1_11","ere",357,0,"Letter_Segregated",2,1204,"Include"
"LP2013_e1","LP2013_e1_11","hocus",358,1,"Letter_Segregated",3,1278,"Include"
"LP2013_e1","LP2013_e1_11","raze",359,0,"Letter_Segregated",2,544,"Include"
"LP2013_e1","LP2013_e1_11","punch",360,1,"Letter_Segregated",2,754,"Include"
"LP2013_e1","LP2013_e1_11","poky",361,1,"Letter_Segregated",3,851,"Include"
"LP2013_e1","LP2013_e1_11","graze",362,0,"Letter_Segregated",3,506,"Include"
"LP2013_e1","LP2013_e1_11","sin",363,1,"Letter_Segregated",3,580,"Include"
"LP2013_e1","LP2013_e1_11","red",364,0,"Letter_Segregated",1,989,"Include"
"LP2013_e1","LP2013_e1_11","pinky",365,1,"Letter_Segregated",3,1146,"Include"
"LP2013_e1","LP2013_e1_11","algebra",366,0,"Letter_Segregated",1,1134,"Include"
"LP2013_e1","LP2013_e1_11","real",367,0,"Letter_Segregated",2,771,"Include"
"LP2013_e1","LP2013_e1_11","rage",368,0,"Letter_Segregated",3,1095,"Include"
"LP2013_e1","LP2013_e1_11","beta",369,0,"Letter_Segregated",2,814,"Include"
"LP2013_e1","LP2013_e1_11","wade",370,0,"Letter_Segregated",3,607,"Include"
"LP2013_e1","LP2013_e1_11","jeer",371,0,"Letter_Segregated",2,643,"Include"
"LP2013_e1","LP2013_e1_11","wear",372,0,"Letter_Segregated",3,749,"Include"
"LP2013_e1","LP2013_e1_11","skimp",373,1,"Letter_Segregated",3,774,"Include"
"LP2013_e1","LP2013_e1_11","braze",374,0,"Letter_Segregated",2,1081,"Include"
"LP2013_e1","LP2013_e1_11","scoop",375,1,"Letter_Segregated",2,640,"Include"
"LP2013_e1","LP2013_e1_11","welt",376,0,"Letter_Segregated",2,673,"Include"
"LP2013_e1","LP2013_e1_11","ear",377,0,"Letter_Segregated",3,749,"Include"
"LP2013_e1","LP2013_e1_11","law",378,0,"Letter_Segregated",2,990,"Include"
"LP2013_e1","LP2013_e1_11","bar",379,0,"Letter_Segregated",2,1042,"Include"
"LP2013_e1","LP2013_e1_11","monk",380,1,"Letter_Segregated",3,735,"Include"
"LP2013_e1","LP2013_e1_11","hoofs",381,1,"Letter_Segregated",4,937,"Include"
"LP2013_e1","LP2013_e1_11","psychic",382,1,"Letter_Segregated",4,909,"Include"
"LP2013_e1","LP2013_e1_11","coo",383,1,"Letter_Segregated",2,852,"Include"
"LP2013_e1","LP2013_e1_11","smooch",384,1,"Letter_Segregated",4,905,"Include"
"LP2013_e1","LP2013_e1_11","fusion",385,1,"Letter_Segregated",3,699,"Include"
"LP2013_e1","LP2013_e1_11","spook",386,1,"Letter_Segregated",3,491,"Include"
"LP2013_e1","LP2013_e1_11","mumps",387,1,"Letter_Segregated",3,385,"Include"
"LP2013_e1","LP2013_e1_11","puck",388,1,"Letter_Segregated",4,1327,"Include"
"LP2013_e1","LP2013_e1_11","ledge",389,0,"Letter_Segregated",2,747,"Include"
"LP2013_e1","LP2013_e1_11","scum",390,1,"Letter_Segregated",2,799,"Include"
"LP2013_e1","LP2013_e1_11","coin",391,1,"Letter_Segregated",3,574,"Include"
"LP2013_e1","LP2013_e1_11","beagle",392,0,"Letter_Segregated",1,936,"Include"
"LP2013_e1","LP2013_e1_11","glee",393,0,"Letter_Segregated",2,891,"Include"
"LP2013_e1","LP2013_e1_11","chomp",394,1,"Letter_Segregated",3,1063,"Include"
"LP2013_e1","LP2013_e1_11","lard",395,0,"Letter_Segregated",2,1236,"Include"
"LP2013_e1","LP2013_e1_11","axe",396,0,"Letter_Segregated",2,705,"Include"
"LP2013_e1","LP2013_e1_11","cuff",397,1,"Letter_Segregated",2,832,"Include"
"LP2013_e1","LP2013_e1_11","wart",398,0,"Letter_Segregated",2,902,"Include"
"LP2013_e1","LP2013_e1_11","were",399,0,"Letter_Segregated",2,857,"Include"
"LP2013_e1","LP2013_e1_11","alert",400,0,"Letter_Segregated",2,1012,"Include"
"LP2013_e1","LP2013_e1_11","chunk",401,1,"Letter_Segregated",3,719,"Include"
"LP2013_e1","LP2013_e1_11","trade",402,0,"Letter_Segregated",3,1108,"Include"
"LP2013_e1","LP2013_e1_11","reed",403,0,"Letter_Segregated",2,746,"Include"
"LP2013_e1","LP2013_e1_11","valet",404,0,"Letter_Segregated",3,501,"Include"
"LP2013_e1","LP2013_e1_11","alder",405,0,"Letter_Segregated",3,808,"Include"
"LP2013_e1","LP2013_e1_11","summon",406,1,"Letter_Segregated",2,834,"Include"
"LP2013_e1","LP2013_e1_11","vet",407,0,"Letter_Segregated",3,974,"Include"
"LP2013_e1","LP2013_e1_11","nosy",408,1,"Letter_Segregated",2,593,"Include"
"LP2013_e1","LP2013_e1_11","sunk",409,1,"Letter_Segregated",2,1049,"Include"
"LP2013_e1","LP2013_e1_11","wager",410,0,"Letter_Segregated",2,975,"Include"
"LP2013_e1","LP2013_e1_11","puff",411,1,"Letter_Segregated",3,695,"Include"
"LP2013_e1","LP2013_e1_11","brawl",412,0,"Letter_Segregated",3,920,"Include"
"LP2013_e1","LP2013_e1_11","raw",413,0,"Letter_Segregated",3,1098,"Include"
"LP2013_e1","LP2013_e1_11","dear",414,0,"Letter_Segregated",4,1048,"Include"
"LP2013_e1","LP2013_e1_11","bred",415,0,"Letter_Segregated",3,663,"Include"
"LP2013_e1","LP2013_e1_11","skin",416,1,"Letter_Segregated",2,555,"Include"
"LP2013_e1","LP2013_e1_11","opium",417,1,"Letter_Segregated",3,454,"Include"
"LP2013_e1","LP2013_e1_11","moon",418,1,"Letter_Segregated",3,682,"Include"
"LP2013_e1","LP2013_e1_11","pop",419,1,"Letter_Segregated",3,588,"Include"
"LP2013_e1","LP2013_e1_11","cuckoo",420,1,"Letter_Segregated",3,797,"Include"
"LP2013_e1","LP2013_e1_11","unify",421,1,"Letter_Segregated",4,967,"Include"
"LP2013_e1","LP2013_e1_11","sonic",422,1,"Letter_Segregated",1,1159,"Include"
"LP2013_e1","LP2013_e1_11","shin",423,1,"Letter_Segregated",3,751,"Include"
"LP2013_e1","LP2013_e1_11","teal",424,0,"Letter_Segregated",2,419,"Include"
"LP2013_e1","LP2013_e1_11","hump",425,1,"Letter_Segregated",3,630,"Include"
"LP2013_e1","LP2013_e1_11","icy",426,1,"Letter_Segregated",2,815,"Include"
"LP2013_e1","LP2013_e1_11","vertex",427,0,"Letter_Segregated",2,790,"Include"
"LP2013_e1","LP2013_e1_11","large",428,0,"Letter_Segregated",2,983,"Include"
"LP2013_e1","LP2013_e1_11","chimp",429,1,"Letter_Segregated",3,1018,"Include"
"LP2013_e1","LP2013_e1_11","rag",430,0,"Letter_Segregated",2,614,"Include"
"LP2013_e1","LP2013_e1_11","gavel",431,0,"Letter_Segregated",4,1215,"Include"
"LP2013_e1","LP2013_e1_11","twelve",432,0,"Letter_Segregated",2,1507,"Include"
"LP2013_e1","LP2013_e1_11","fumy",433,1,"Letter_Segregated",1,2217,"Include"
"LP2013_e1","LP2013_e1_11","rebel",434,0,"Letter_Segregated",2,1122,"Include"
"LP2013_e1","LP2013_e1_11","scuff",435,1,"Letter_Segregated",3,627,"Include"
"LP2013_e1","LP2013_e1_11","bat",436,0,"Letter_Segregated",2,751,"Include"
"LP2013_e1","LP2013_e1_11","award",437,0,"Letter_Segregated",2,1476,"Include"
"LP2013_e1","LP2013_e1_11","shook",438,1,"Letter_Segregated",3,1200,"Include"
"LP2013_e1","LP2013_e1_11","edge",439,0,"Letter_Segregated",3,823,"Include"
"LP2013_e1","LP2013_e1_11","sop",440,1,"Letter_Segregated",2,2130,"Include"
"LP2013_e1","LP2013_e1_11","pip",441,1,"Letter_Segregated",3,867,"Include"
"LP2013_e1","LP2013_e1_11","hop",442,1,"Letter_Segregated",3,653,"Include"
"LP2013_e1","LP2013_e1_11","tree",443,0,"Letter_Segregated",3,574,"Include"
"LP2013_e1","LP2013_e1_11","ski",444,1,"Letter_Segregated",2,386,"Include"
"LP2013_e1","LP2013_e1_11","push",445,1,"Letter_Segregated",3,673,"Include"
"LP2013_e1","LP2013_e1_11","data",446,0,"Letter_Segregated",3,796,"Include"
"LP2013_e1","LP2013_e1_11","kimono",447,1,"Letter_Segregated",4,1071,"Include"
"LP2013_e1","LP2013_e1_11","laze",448,0,"Letter_Segregated",1,1315,"Include"
"LP2013_e1","LP2013_e1_11","opossum",449,1,"Letter_Segregated",4,1522,"Include"
"LP2013_e1","LP2013_e1_11","axle",450,0,"Letter_Segregated",2,1324,"Include"
"LP2013_e1","LP2013_e1_11","drawl",451,0,"Letter_Segregated",1,1786,"Include"
"LP2013_e1","LP2013_e1_11","wax",452,0,"Letter_Segregated",2,967,"Include"
"LP2013_e1","LP2013_e1_11","off",453,1,"Letter_Segregated",4,2148,"Include"
"LP2013_e1","LP2013_e1_11","are",454,0,"Letter_Segregated",3,634,"Include"
"LP2013_e1","LP2013_e1_11","bagel",455,0,"Letter_Segregated",1,1104,"Include"
"LP2013_e1","LP2013_e1_11","muff",456,1,"Letter_Segregated",3,792,"Include"
"LP2013_e1","LP2013_e1_11","honk",457,1,"Letter_Segregated",3,545,"Include"
"LP2013_e1","LP2013_e1_11","ewe",458,0,"Letter_Segregated",2,708,"Include"
"LP2013_e1","LP2013_e1_11","gear",459,0,"Letter_Segregated",2,792,"Include"
