"exp","id","item","trial","isold","condition1","rating","RT","excluding"
"LP2013_e2","LP2013_e2_1","bee",0,0,"not_tested",99,0,"Exclude"
"LP2013_e2","LP2013_e2_1","ear",0,0,"not_tested",99,0,"Exclude"
"LP2013_e2","LP2013_e2_1","gel",0,0,"not_tested",99,0,"Exclude"
"LP2013_e2","LP2013_e2_1","lag",0,0,"not_tested",99,0,"Exclude"
"LP2013_e2","LP2013_e2_1","leg",0,0,"not_tested",99,0,"Exclude"
"LP2013_e2","LP2013_e2_1","tar",0,0,"not_tested",99,0,"Exclude"
"LP2013_e2","LP2013_e2_1","vet",0,0,"not_tested",99,0,"Exclude"
"LP2013_e2","LP2013_e2_1","wax",0,0,"not_tested",99,0,"Exclude"
"LP2013_e2","LP2013_e2_1","bade",0,0,"not_tested",99,0,"Exclude"
"LP2013_e2","LP2013_e2_1","beer",0,0,"not_tested",99,0,"Exclude"
"LP2013_e2","LP2013_e2_1","bled",0,0,"not_tested",99,0,"Exclude"
"LP2013_e2","LP2013_e2_1","bred",0,0,"not_tested",99,0,"Exclude"
"LP2013_e2","LP2013_e2_1","deal",0,0,"not_tested",99,0,"Exclude"
"LP2013_e2","LP2013_e2_1","ever",0,0,"not_tested",99,0,"Exclude"
"LP2013_e2","LP2013_e2_1","glee",0,0,"not_tested",99,0,"Exclude"
"LP2013_e2","LP2013_e2_1","laze",0,0,"not_tested",99,0,"Exclude"
"LP2013_e2","LP2013_e2_1","raze",0,0,"not_tested",99,0,"Exclude"
"LP2013_e2","LP2013_e2_1","tree",0,0,"not_tested",99,0,"Exclude"
"LP2013_e2","LP2013_e2_1","verb",0,0,"not_tested",99,0,"Exclude"
"LP2013_e2","LP2013_e2_1","welt",0,0,"not_tested",99,0,"Exclude"
"LP2013_e2","LP2013_e2_1","alter",0,0,"not_tested",99,0,"Exclude"
"LP2013_e2","LP2013_e2_1","badge",0,0,"not_tested",99,0,"Exclude"
"LP2013_e2","LP2013_e2_1","deter",0,0,"not_tested",99,0,"Exclude"
"LP2013_e2","LP2013_e2_1","glade",0,0,"not_tested",99,0,"Exclude"
"LP2013_e2","LP2013_e2_1","later",0,0,"not_tested",99,0,"Exclude"
"LP2013_e2","LP2013_e2_1","level",0,0,"not_tested",99,0,"Exclude"
"LP2013_e2","LP2013_e2_1","regal",0,0,"not_tested",99,0,"Exclude"
"LP2013_e2","LP2013_e2_1","wager",0,0,"not_tested",99,0,"Exclude"
"LP2013_e2","LP2013_e2_1","gravel",0,0,"not_tested",99,0,"Exclude"
"LP2013_e2","LP2013_e2_1","vertex",0,0,"not_tested",99,0,"Exclude"
"LP2013_e2","LP2013_e2_1","ale",0,0,"not_tested",99,0,"Exclude"
"LP2013_e2","LP2013_e2_1","bar",0,0,"not_tested",99,0,"Exclude"
"LP2013_e2","LP2013_e2_1","eve",0,0,"not_tested",99,0,"Exclude"
"LP2013_e2","LP2013_e2_1","get",0,0,"not_tested",99,0,"Exclude"
"LP2013_e2","LP2013_e2_1","jet",0,0,"not_tested",99,0,"Exclude"
"LP2013_e2","LP2013_e2_1","law",0,0,"not_tested",99,0,"Exclude"
"LP2013_e2","LP2013_e2_1","vex",0,0,"not_tested",99,0,"Exclude"
"LP2013_e2","LP2013_e2_1","area",0,0,"not_tested",99,0,"Exclude"
"LP2013_e2","LP2013_e2_1","bead",0,0,"not_tested",99,0,"Exclude"
"LP2013_e2","LP2013_e2_1","data",0,0,"not_tested",99,0,"Exclude"
"LP2013_e2","LP2013_e2_1","dear",0,0,"not_tested",99,0,"Exclude"
"LP2013_e2","LP2013_e2_1","drag",0,0,"not_tested",99,0,"Exclude"
"LP2013_e2","LP2013_e2_1","earl",0,0,"not_tested",99,0,"Exclude"
"LP2013_e2","LP2013_e2_1","gala",0,0,"not_tested",99,0,"Exclude"
"LP2013_e2","LP2013_e2_1","gaze",0,0,"not_tested",99,0,"Exclude"
"LP2013_e2","LP2013_e2_1","read",0,0,"not_tested",99,0,"Exclude"
"LP2013_e2","LP2013_e2_1","tale",0,0,"not_tested",99,0,"Exclude"
"LP2013_e2","LP2013_e2_1","ware",0,0,"not_tested",99,0,"Exclude"
"LP2013_e2","LP2013_e2_1","were",0,0,"not_tested",99,0,"Exclude"
"LP2013_e2","LP2013_e2_1","alder",0,0,"not_tested",99,0,"Exclude"
"LP2013_e2","LP2013_e2_1","brave",0,0,"not_tested",99,0,"Exclude"
"LP2013_e2","LP2013_e2_1","breed",0,0,"not_tested",99,0,"Exclude"
"LP2013_e2","LP2013_e2_1","extra",0,0,"not_tested",99,0,"Exclude"
"LP2013_e2","LP2013_e2_1","glare",0,0,"not_tested",99,0,"Exclude"
"LP2013_e2","LP2013_e2_1","grave",0,0,"not_tested",99,0,"Exclude"
"LP2013_e2","LP2013_e2_1","tread",0,0,"not_tested",99,0,"Exclude"
"LP2013_e2","LP2013_e2_1","wedge",0,0,"not_tested",99,0,"Exclude"
"LP2013_e2","LP2013_e2_1","badger",0,0,"not_tested",99,0,"Exclude"
"LP2013_e2","LP2013_e2_1","blazer",0,0,"not_tested",99,0,"Exclude"
"LP2013_e2","LP2013_e2_1","larvae",0,0,"not_tested",99,0,"Exclude"
"LP2013_e2","LP2013_e2_1","eel",0,0,"not_tested",99,0,"Exclude"
"LP2013_e2","LP2013_e2_1","ewe",0,0,"not_tested",99,0,"Exclude"
"LP2013_e2","LP2013_e2_1","lab",0,0,"not_tested",99,0,"Exclude"
"LP2013_e2","LP2013_e2_1","lax",0,0,"not_tested",99,0,"Exclude"
"LP2013_e2","LP2013_e2_1","rag",0,0,"not_tested",99,0,"Exclude"
"LP2013_e2","LP2013_e2_1","tab",0,0,"not_tested",99,0,"Exclude"
"LP2013_e2","LP2013_e2_1","tea",0,0,"not_tested",99,0,"Exclude"
"LP2013_e2","LP2013_e2_1","wed",0,0,"not_tested",99,0,"Exclude"
"LP2013_e2","LP2013_e2_1","bale",0,0,"not_tested",99,0,"Exclude"
"LP2013_e2","LP2013_e2_1","brew",0,0,"not_tested",99,0,"Exclude"
"LP2013_e2","LP2013_e2_1","debt",0,0,"not_tested",99,0,"Exclude"
"LP2013_e2","LP2013_e2_1","drat",0,0,"not_tested",99,0,"Exclude"
"LP2013_e2","LP2013_e2_1","eave",0,0,"not_tested",99,0,"Exclude"
"LP2013_e2","LP2013_e2_1","garb",0,0,"not_tested",99,0,"Exclude"
"LP2013_e2","LP2013_e2_1","lard",0,0,"not_tested",99,0,"Exclude"
"LP2013_e2","LP2013_e2_1","rate",0,0,"not_tested",99,0,"Exclude"
"LP2013_e2","LP2013_e2_1","real",0,0,"not_tested",99,0,"Exclude"
"LP2013_e2","LP2013_e2_1","teal",0,0,"not_tested",99,0,"Exclude"
"LP2013_e2","LP2013_e2_1","veal",0,0,"not_tested",99,0,"Exclude"
"LP2013_e2","LP2013_e2_1","weed",0,0,"not_tested",99,0,"Exclude"
"LP2013_e2","LP2013_e2_1","award",0,0,"not_tested",99,0,"Exclude"
"LP2013_e2","LP2013_e2_1","barge",0,0,"not_tested",99,0,"Exclude"
"LP2013_e2","LP2013_e2_1","brawl",0,0,"not_tested",99,0,"Exclude"
"LP2013_e2","LP2013_e2_1","evade",0,0,"not_tested",99,0,"Exclude"
"LP2013_e2","LP2013_e2_1","gable",0,0,"not_tested",99,0,"Exclude"
"LP2013_e2","LP2013_e2_1","jewel",0,0,"not_tested",99,0,"Exclude"
"LP2013_e2","LP2013_e2_1","revel",0,0,"not_tested",99,0,"Exclude"
"LP2013_e2","LP2013_e2_1","tweed",0,0,"not_tested",99,0,"Exclude"
"LP2013_e2","LP2013_e2_1","water",0,0,"not_tested",99,0,"Exclude"
"LP2013_e2","LP2013_e2_1","zebra",0,0,"not_tested",99,0,"Exclude"
"LP2013_e2","LP2013_e2_1","art",0,0,"not_tested",99,0,"Exclude"
"LP2013_e2","LP2013_e2_1","bad",0,0,"not_tested",99,0,"Exclude"
"LP2013_e2","LP2013_e2_1","bed",0,0,"not_tested",99,0,"Exclude"
"LP2013_e2","LP2013_e2_1","led",0,0,"not_tested",99,0,"Exclude"
"LP2013_e2","LP2013_e2_1","rat",0,0,"not_tested",99,0,"Exclude"
"LP2013_e2","LP2013_e2_1","war",0,0,"not_tested",99,0,"Exclude"
"LP2013_e2","LP2013_e2_1","axle",0,0,"not_tested",99,0,"Exclude"
"LP2013_e2","LP2013_e2_1","bard",0,0,"not_tested",99,0,"Exclude"
"LP2013_e2","LP2013_e2_1","beat",0,0,"not_tested",99,0,"Exclude"
"LP2013_e2","LP2013_e2_1","beta",0,0,"not_tested",99,0,"Exclude"
"LP2013_e2","LP2013_e2_1","brat",0,0,"not_tested",99,0,"Exclude"
"LP2013_e2","LP2013_e2_1","gate",0,0,"not_tested",99,0,"Exclude"
"LP2013_e2","LP2013_e2_1","jade",0,0,"not_tested",99,0,"Exclude"
"LP2013_e2","LP2013_e2_1","leer",0,0,"not_tested",99,0,"Exclude"
"LP2013_e2","LP2013_e2_1","rave",0,0,"not_tested",99,0,"Exclude"
"LP2013_e2","LP2013_e2_1","reed",0,0,"not_tested",99,0,"Exclude"
"LP2013_e2","LP2013_e2_1","tear",0,0,"not_tested",99,0,"Exclude"
"LP2013_e2","LP2013_e2_1","veer",0,0,"not_tested",99,0,"Exclude"
"LP2013_e2","LP2013_e2_1","wale",0,0,"not_tested",99,0,"Exclude"
"LP2013_e2","LP2013_e2_1","beard",0,0,"not_tested",99,0,"Exclude"
"LP2013_e2","LP2013_e2_1","blare",0,0,"not_tested",99,0,"Exclude"
"LP2013_e2","LP2013_e2_1","braze",0,0,"not_tested",99,0,"Exclude"
"LP2013_e2","LP2013_e2_1","exalt",0,0,"not_tested",99,0,"Exclude"
"LP2013_e2","LP2013_e2_1","gavel",0,0,"not_tested",99,0,"Exclude"
"LP2013_e2","LP2013_e2_1","grade",0,0,"not_tested",99,0,"Exclude"
"LP2013_e2","LP2013_e2_1","great",0,0,"not_tested",99,0,"Exclude"
"LP2013_e2","LP2013_e2_1","large",0,0,"not_tested",99,0,"Exclude"
"LP2013_e2","LP2013_e2_1","adverb",0,0,"not_tested",99,0,"Exclude"
"LP2013_e2","LP2013_e2_1","beagle",0,0,"not_tested",99,0,"Exclude"
"LP2013_e2","LP2013_e2_1","garble",0,0,"not_tested",99,0,"Exclude"
"LP2013_e2","LP2013_e2_1","trade",1,0,"unrelated_lure",2,1805,"Include"
"LP2013_e2","LP2013_e2_1","much",2,1,"target",4,1063,"Include"
"LP2013_e2","LP2013_e2_1","mono",3,1,"target",4,1262,"Include"
"LP2013_e2","LP2013_e2_1","hick",4,1,"target",4,952,"Include"
"LP2013_e2","LP2013_e2_1","sum",5,1,"related_lure",2,1696,"Include"
"LP2013_e2","LP2013_e2_1","chomp",6,1,"target",4,1104,"Include"
"LP2013_e2","LP2013_e2_1","quin",7,1,"target",4,904,"Include"
"LP2013_e2","LP2013_e2_1","choosy",8,1,"related_lure",1,1414,"Include"
"LP2013_e2","LP2013_e2_1","ate",9,0,"unrelated_lure",2,2630,"Include"
"LP2013_e2","LP2013_e2_1","soup",10,1,"target",4,1092,"Include"
"LP2013_e2","LP2013_e2_1","mink",11,1,"target",3,1279,"Include"
"LP2013_e2","LP2013_e2_1","bare",12,0,"unrelated_lure",2,1140,"Include"
"LP2013_e2","LP2013_e2_1","raw",13,0,"unrelated_lure",3,1799,"Include"
"LP2013_e2","LP2013_e2_1","cup",14,1,"related_lure",3,934,"Include"
"LP2013_e2","LP2013_e2_1","cook",15,1,"target",4,1625,"Include"
"LP2013_e2","LP2013_e2_1","husk",16,1,"related_lure",4,756,"Include"
"LP2013_e2","LP2013_e2_1","mission",17,1,"related_lure",2,2036,"Include"
"LP2013_e2","LP2013_e2_1","sunk",18,1,"related_lure",3,996,"Include"
"LP2013_e2","LP2013_e2_1","huck",19,1,"target",4,912,"Include"
"LP2013_e2","LP2013_e2_1","his",20,1,"target",4,885,"Include"
"LP2013_e2","LP2013_e2_1","begat",21,0,"unrelated_lure",1,1566,"Include"
"LP2013_e2","LP2013_e2_1","pouch",22,1,"related_lure",3,1044,"Include"
"LP2013_e2","LP2013_e2_1","cuckoo",23,1,"target",4,1354,"Include"
"LP2013_e2","LP2013_e2_1","unison",24,1,"related_lure",2,845,"Include"
"LP2013_e2","LP2013_e2_1","pomp",25,1,"target",4,1253,"Include"
"LP2013_e2","LP2013_e2_1","scoop",26,1,"related_lure",4,1180,"Include"
"LP2013_e2","LP2013_e2_1","spiny",27,1,"related_lure",3,1291,"Include"
"LP2013_e2","LP2013_e2_1","sick",28,1,"related_lure",3,1034,"Include"
"LP2013_e2","LP2013_e2_1","icy",29,1,"related_lure",2,885,"Include"
"LP2013_e2","LP2013_e2_1","shimmy",30,1,"related_lure",4,1569,"Include"
"LP2013_e2","LP2013_e2_1","nicks",31,1,"target",3,1210,"Include"
"LP2013_e2","LP2013_e2_1","drab",32,0,"unrelated_lure",3,1369,"Include"
"LP2013_e2","LP2013_e2_1","pinny",33,1,"target",4,1549,"Include"
"LP2013_e2","LP2013_e2_1","smock",34,1,"related_lure",1,1971,"Include"
"LP2013_e2","LP2013_e2_1","dart",35,0,"unrelated_lure",1,1195,"Include"
"LP2013_e2","LP2013_e2_1","fish",36,1,"target",4,1225,"Include"
"LP2013_e2","LP2013_e2_1","coif",37,1,"target",4,1086,"Include"
"LP2013_e2","LP2013_e2_1","pin",38,1,"target",3,1196,"Include"
"LP2013_e2","LP2013_e2_1","elate",39,0,"unrelated_lure",2,1824,"Include"
"LP2013_e2","LP2013_e2_1","lewd",40,0,"unrelated_lure",2,1466,"Include"
"LP2013_e2","LP2013_e2_1","hocus",41,1,"target",3,1579,"Include"
"LP2013_e2","LP2013_e2_1","reel",42,0,"unrelated_lure",2,1413,"Include"
"LP2013_e2","LP2013_e2_1","exert",43,0,"unrelated_lure",2,1758,"Include"
"LP2013_e2","LP2013_e2_1","poison",44,1,"target",4,1152,"Include"
"LP2013_e2","LP2013_e2_1","jaw",45,0,"unrelated_lure",2,1846,"Include"
"LP2013_e2","LP2013_e2_1","ere",46,0,"unrelated_lure",2,3716,"Include"
"LP2013_e2","LP2013_e2_1","opus",47,1,"related_lure",3,1257,"Include"
"LP2013_e2","LP2013_e2_1","musk",48,1,"target",4,864,"Include"
"LP2013_e2","LP2013_e2_1","kimono",49,1,"target",4,993,"Include"
"LP2013_e2","LP2013_e2_1","gave",50,0,"unrelated_lure",3,1024,"Include"
"LP2013_e2","LP2013_e2_1","able",51,0,"unrelated_lure",3,934,"Include"
"LP2013_e2","LP2013_e2_1","beaver",52,0,"unrelated_lure",1,742,"Include"
"LP2013_e2","LP2013_e2_1","age",53,0,"unrelated_lure",2,1069,"Include"
"LP2013_e2","LP2013_e2_1","drew",54,0,"unrelated_lure",2,1664,"Include"
"LP2013_e2","LP2013_e2_1","advert",55,0,"unrelated_lure",2,1061,"Include"
"LP2013_e2","LP2013_e2_1","bag",56,0,"unrelated_lure",2,1451,"Include"
"LP2013_e2","LP2013_e2_1","kin",57,1,"related_lure",3,850,"Include"
"LP2013_e2","LP2013_e2_1","mummy",58,1,"target",4,876,"Include"
"LP2013_e2","LP2013_e2_1","posy",59,1,"related_lure",3,907,"Include"
"LP2013_e2","LP2013_e2_1","bleat",60,0,"unrelated_lure",2,821,"Include"
"LP2013_e2","LP2013_e2_1","minus",61,1,"target",4,1128,"Include"
"LP2013_e2","LP2013_e2_1","greed",62,0,"unrelated_lure",3,957,"Include"
"LP2013_e2","LP2013_e2_1","spunk",63,1,"related_lure",3,1129,"Include"
"LP2013_e2","LP2013_e2_1","punk",64,1,"related_lure",3,1121,"Include"
"LP2013_e2","LP2013_e2_1","chin",65,1,"related_lure",2,1812,"Include"
"LP2013_e2","LP2013_e2_1","weal",66,0,"unrelated_lure",2,1031,"Include"
"LP2013_e2","LP2013_e2_1","skip",67,1,"related_lure",3,1192,"Include"
"LP2013_e2","LP2013_e2_1","agree",68,0,"unrelated_lure",1,699,"Include"
"LP2013_e2","LP2013_e2_1","reveal",69,0,"unrelated_lure",2,1008,"Include"
"LP2013_e2","LP2013_e2_1","weave",70,0,"unrelated_lure",1,689,"Include"
"LP2013_e2","LP2013_e2_1","ship",71,1,"related_lure",3,1097,"Include"
"LP2013_e2","LP2013_e2_1","son",72,1,"related_lure",2,1373,"Include"
"LP2013_e2","LP2013_e2_1","nosh",73,1,"related_lure",2,2153,"Include"
"LP2013_e2","LP2013_e2_1","pun",74,1,"related_lure",3,848,"Include"
"LP2013_e2","LP2013_e2_1","sonic",75,1,"target",2,903,"Include"
"LP2013_e2","LP2013_e2_1","grate",76,0,"unrelated_lure",3,800,"Include"
"LP2013_e2","LP2013_e2_1","homy",77,1,"related_lure",4,1056,"Include"
"LP2013_e2","LP2013_e2_1","piny",78,1,"related_lure",4,984,"Include"
"LP2013_e2","LP2013_e2_1","shook",79,1,"target",3,1189,"Include"
"LP2013_e2","LP2013_e2_1","non",80,1,"related_lure",2,835,"Include"
"LP2013_e2","LP2013_e2_1","java",81,0,"unrelated_lure",1,1113,"Include"
"LP2013_e2","LP2013_e2_1","mop",82,1,"target",3,1292,"Include"
"LP2013_e2","LP2013_e2_1","sin",83,1,"target",2,2973,"Include"
"LP2013_e2","LP2013_e2_1","cumin",84,1,"target",4,1199,"Include"
"LP2013_e2","LP2013_e2_1","ward",85,0,"unrelated_lure",3,1244,"Include"
"LP2013_e2","LP2013_e2_1","opium",86,1,"target",3,3217,"Include"
"LP2013_e2","LP2013_e2_1","bread",87,0,"unrelated_lure",3,1096,"Include"
"LP2013_e2","LP2013_e2_1","kick",88,1,"target",3,988,"Include"
"LP2013_e2","LP2013_e2_1","coup",89,1,"related_lure",4,977,"Include"
"LP2013_e2","LP2013_e2_1","con",90,1,"related_lure",2,1589,"Include"
"LP2013_e2","LP2013_e2_1","mum",91,1,"target",3,1083,"Include"
"LP2013_e2","LP2013_e2_1","warble",92,0,"unrelated_lure",2,1612,"Include"
"LP2013_e2","LP2013_e2_1","bree",93,0,"unrelated_lure",2,970,"Include"
"LP2013_e2","LP2013_e2_1","finish",94,1,"related_lure",1,1112,"Include"
"LP2013_e2","LP2013_e2_1","ink",95,1,"related_lure",3,1093,"Include"
"LP2013_e2","LP2013_e2_1","honk",96,1,"target",3,870,"Include"
"LP2013_e2","LP2013_e2_1","mumps",97,1,"related_lure",3,897,"Include"
"LP2013_e2","LP2013_e2_1","beet",98,0,"unrelated_lure",2,788,"Include"
"LP2013_e2","LP2013_e2_1","tax",99,0,"unrelated_lure",2,816,"Include"
"LP2013_e2","LP2013_e2_1","spoof",100,1,"target",3,1272,"Include"
"LP2013_e2","LP2013_e2_1","coo",101,1,"target",4,884,"Include"
"LP2013_e2","LP2013_e2_1","hymn",102,1,"target",4,676,"Include"
"LP2013_e2","LP2013_e2_1","coop",103,1,"related_lure",4,639,"Include"
"LP2013_e2","LP2013_e2_1","wear",104,0,"unrelated_lure",1,1167,"Include"
"LP2013_e2","LP2013_e2_1","ravel",105,0,"unrelated_lure",2,712,"Include"
"LP2013_e2","LP2013_e2_1","relax",106,0,"unrelated_lure",2,1233,"Include"
"LP2013_e2","LP2013_e2_1","muck",107,1,"related_lure",3,867,"Include"
"LP2013_e2","LP2013_e2_1","upon",108,1,"target",4,637,"Include"
"LP2013_e2","LP2013_e2_1","hon",109,1,"target",4,820,"Include"
"LP2013_e2","LP2013_e2_1","kiss",110,1,"target",4,751,"Include"
"LP2013_e2","LP2013_e2_1","waltz",111,0,"unrelated_lure",2,1259,"Include"
"LP2013_e2","LP2013_e2_1","sop",112,1,"related_lure",1,1956,"Include"
"LP2013_e2","LP2013_e2_1","greet",113,0,"unrelated_lure",2,815,"Include"
"LP2013_e2","LP2013_e2_1","quip",114,1,"target",4,1396,"Include"
"LP2013_e2","LP2013_e2_1","kip",115,1,"target",4,591,"Include"
"LP2013_e2","LP2013_e2_1","smoky",116,1,"related_lure",3,789,"Include"
"LP2013_e2","LP2013_e2_1","sunny",117,1,"target",4,1112,"Include"
"LP2013_e2","LP2013_e2_1","huff",118,1,"related_lure",3,968,"Include"
"LP2013_e2","LP2013_e2_1","spin",119,1,"related_lure",4,793,"Include"
"LP2013_e2","LP2013_e2_1","cuff",120,1,"target",4,800,"Include"
"LP2013_e2","LP2013_e2_1","ouch",121,1,"related_lure",3,884,"Include"
"LP2013_e2","LP2013_e2_1","red",122,0,"unrelated_lure",1,1228,"Include"
"LP2013_e2","LP2013_e2_1","chump",123,1,"related_lure",3,1274,"Include"
"LP2013_e2","LP2013_e2_1","sun",124,1,"target",3,1779,"Include"
"LP2013_e2","LP2013_e2_1","miss",125,1,"related_lure",3,1874,"Include"
"LP2013_e2","LP2013_e2_1","hoofs",126,1,"target",2,1687,"Include"
"LP2013_e2","LP2013_e2_1","travel",127,0,"unrelated_lure",2,1649,"Include"
"LP2013_e2","LP2013_e2_1","puny",128,1,"target",4,1210,"Include"
"LP2013_e2","LP2013_e2_1","noisy",129,1,"target",3,1004,"Include"
"LP2013_e2","LP2013_e2_1","hips",130,1,"related_lure",3,841,"Include"
"LP2013_e2","LP2013_e2_1","snip",131,1,"related_lure",3,999,"Include"
"LP2013_e2","LP2013_e2_1","myopic",132,1,"target",1,1545,"Include"
"LP2013_e2","LP2013_e2_1","nosy",133,1,"related_lure",3,1125,"Include"
"LP2013_e2","LP2013_e2_1","web",134,0,"unrelated_lure",2,1754,"Include"
"LP2013_e2","LP2013_e2_1","bagel",135,0,"unrelated_lure",2,1420,"Include"
"LP2013_e2","LP2013_e2_1","cosmic",136,1,"related_lure",3,1126,"Include"
"LP2013_e2","LP2013_e2_1","tzar",137,0,"unrelated_lure",1,1335,"Include"
"LP2013_e2","LP2013_e2_1","chip",138,1,"related_lure",3,1117,"Include"
"LP2013_e2","LP2013_e2_1","rage",139,0,"unrelated_lure",2,1038,"Include"
"LP2013_e2","LP2013_e2_1","muss",140,1,"related_lure",2,853,"Include"
"LP2013_e2","LP2013_e2_1","beg",141,0,"unrelated_lure",1,1111,"Include"
"LP2013_e2","LP2013_e2_1","piss",142,1,"target",4,821,"Include"
"LP2013_e2","LP2013_e2_1","wade",143,0,"unrelated_lure",2,948,"Include"
"LP2013_e2","LP2013_e2_1","beret",144,0,"unrelated_lure",3,552,"Include"
"LP2013_e2","LP2013_e2_1","sink",145,1,"related_lure",1,617,"Include"
"LP2013_e2","LP2013_e2_1","fumy",146,1,"target",4,939,"Include"
"LP2013_e2","LP2013_e2_1","lead",147,0,"unrelated_lure",2,964,"Include"
"LP2013_e2","LP2013_e2_1","poncho",148,1,"target",4,1047,"Include"
"LP2013_e2","LP2013_e2_1","finch",149,1,"related_lure",3,807,"Include"
"LP2013_e2","LP2013_e2_1","skinny",150,1,"target",4,867,"Include"
"LP2013_e2","LP2013_e2_1","nun",151,1,"related_lure",2,1261,"Include"
"LP2013_e2","LP2013_e2_1","punch",152,1,"related_lure",2,757,"Include"
"LP2013_e2","LP2013_e2_1","spick",153,1,"target",2,818,"Include"
"LP2013_e2","LP2013_e2_1","pinon",154,1,"related_lure",2,1864,"Include"
"LP2013_e2","LP2013_e2_1","mooch",155,1,"target",4,1090,"Include"
"LP2013_e2","LP2013_e2_1","awe",156,0,"unrelated_lure",3,1463,"Include"
"LP2013_e2","LP2013_e2_1","elder",157,0,"unrelated_lure",1,1141,"Include"
"LP2013_e2","LP2013_e2_1","avert",158,0,"unrelated_lure",2,773,"Include"
"LP2013_e2","LP2013_e2_1","grab",159,0,"unrelated_lure",2,763,"Include"
"LP2013_e2","LP2013_e2_1","latex",160,0,"unrelated_lure",2,779,"Include"
"LP2013_e2","LP2013_e2_1","drawl",161,0,"unrelated_lure",3,887,"Include"
"LP2013_e2","LP2013_e2_1","scuff",162,1,"target",3,1082,"Include"
"LP2013_e2","LP2013_e2_1","jeer",163,0,"unrelated_lure",3,778,"Include"
"LP2013_e2","LP2013_e2_1","let",164,0,"unrelated_lure",1,714,"Include"
"LP2013_e2","LP2013_e2_1","coin",165,1,"related_lure",2,796,"Include"
"LP2013_e2","LP2013_e2_1","pip",166,1,"target",4,733,"Include"
"LP2013_e2","LP2013_e2_1","pouf",167,1,"related_lure",3,912,"Include"
"LP2013_e2","LP2013_e2_1","pup",168,1,"related_lure",2,427,"Include"
"LP2013_e2","LP2013_e2_1","moon",169,1,"related_lure",4,635,"Include"
"LP2013_e2","LP2013_e2_1","eat",170,0,"unrelated_lure",2,983,"Include"
"LP2013_e2","LP2013_e2_1","phony",171,1,"target",3,779,"Include"
"LP2013_e2","LP2013_e2_1","ominous",172,1,"related_lure",1,773,"Include"
"LP2013_e2","LP2013_e2_1","sip",173,1,"target",4,2756,"Include"
"LP2013_e2","LP2013_e2_1","cushion",174,1,"related_lure",2,1384,"Include"
"LP2013_e2","LP2013_e2_1","fin",175,1,"target",3,1677,"Include"
"LP2013_e2","LP2013_e2_1","blew",176,0,"unrelated_lure",3,884,"Include"
"LP2013_e2","LP2013_e2_1","bald",177,0,"unrelated_lure",3,964,"Include"
"LP2013_e2","LP2013_e2_1","shoo",178,1,"target",4,781,"Include"
"LP2013_e2","LP2013_e2_1","shuck",179,1,"related_lure",4,1930,"Include"
"LP2013_e2","LP2013_e2_1","pons",180,1,"target",3,888,"Include"
"LP2013_e2","LP2013_e2_1","push",181,1,"related_lure",2,1148,"Include"
"LP2013_e2","LP2013_e2_1","spicy",182,1,"related_lure",1,1492,"Include"
"LP2013_e2","LP2013_e2_1","graze",183,0,"unrelated_lure",2,1796,"Include"
"LP2013_e2","LP2013_e2_1","ski",184,1,"target",3,888,"Include"
"LP2013_e2","LP2013_e2_1","finicky",185,1,"target",1,1534,"Include"
"LP2013_e2","LP2013_e2_1","sup",186,1,"target",4,890,"Include"
"LP2013_e2","LP2013_e2_1","snoop",187,1,"target",4,1354,"Include"
"LP2013_e2","LP2013_e2_1","leave",188,0,"unrelated_lure",2,1253,"Include"
"LP2013_e2","LP2013_e2_1","hiss",189,1,"target",3,1276,"Include"
"LP2013_e2","LP2013_e2_1","munch",190,1,"target",4,957,"Include"
"LP2013_e2","LP2013_e2_1","shy",191,1,"target",3,1773,"Include"
"LP2013_e2","LP2013_e2_1","dwelt",192,0,"unrelated_lure",1,1052,"Include"
"LP2013_e2","LP2013_e2_1","ledger",193,0,"unrelated_lure",2,1146,"Include"
"LP2013_e2","LP2013_e2_1","glaze",194,0,"unrelated_lure",2,898,"Include"
"LP2013_e2","LP2013_e2_1","beadle",195,0,"unrelated_lure",2,910,"Include"
"LP2013_e2","LP2013_e2_1","chunk",196,1,"target",4,1064,"Include"
"LP2013_e2","LP2013_e2_1","mom",197,1,"target",2,1218,"Include"
"LP2013_e2","LP2013_e2_1","bear",198,0,"unrelated_lure",1,1245,"Include"
"LP2013_e2","LP2013_e2_1","nymph",199,1,"related_lure",2,1987,"Include"
"LP2013_e2","LP2013_e2_1","pony",200,1,"related_lure",2,1765,"Include"
"LP2013_e2","LP2013_e2_1","ossify",201,1,"target",1,3323,"Include"
"LP2013_e2","LP2013_e2_1","belt",202,0,"unrelated_lure",2,1005,"Include"
"LP2013_e2","LP2013_e2_1","skim",203,1,"target",2,1189,"Include"
"LP2013_e2","LP2013_e2_1","mick",204,1,"target",3,1539,"Include"
"LP2013_e2","LP2013_e2_1","such",205,1,"related_lure",3,2405,"Include"
"LP2013_e2","LP2013_e2_1","fusion",206,1,"related_lure",4,2697,"Include"
"LP2013_e2","LP2013_e2_1","pom",207,1,"target",3,712,"Include"
"LP2013_e2","LP2013_e2_1","funk",208,1,"target",4,1648,"Include"
"LP2013_e2","LP2013_e2_1","blade",209,0,"unrelated_lure",3,692,"Include"
"LP2013_e2","LP2013_e2_1","alert",210,0,"unrelated_lure",2,697,"Include"
"LP2013_e2","LP2013_e2_1","spook",211,1,"related_lure",3,1277,"Include"
"LP2013_e2","LP2013_e2_1","aver",212,0,"unrelated_lure",2,677,"Include"
"LP2013_e2","LP2013_e2_1","zeal",213,0,"unrelated_lure",2,1085,"Include"
"LP2013_e2","LP2013_e2_1","reave",214,0,"unrelated_lure",2,916,"Include"
"LP2013_e2","LP2013_e2_1","bet",215,0,"unrelated_lure",3,844,"Include"
"LP2013_e2","LP2013_e2_1","pick",216,1,"related_lure",3,1036,"Include"
"LP2013_e2","LP2013_e2_1","pock",217,1,"related_lure",2,627,"Include"
"LP2013_e2","LP2013_e2_1","conk",218,1,"target",3,876,"Include"
"LP2013_e2","LP2013_e2_1","pinch",219,1,"related_lure",4,959,"Include"
"LP2013_e2","LP2013_e2_1","coupon",220,1,"related_lure",1,1271,"Include"
"LP2013_e2","LP2013_e2_1","cusp",221,1,"related_lure",2,864,"Include"
"LP2013_e2","LP2013_e2_1","fun",222,1,"related_lure",3,599,"Include"
"LP2013_e2","LP2013_e2_1","copy",223,1,"target",4,1146,"Include"
"LP2013_e2","LP2013_e2_1","hook",224,1,"target",2,912,"Include"
"LP2013_e2","LP2013_e2_1","mock",225,1,"related_lure",3,1309,"Include"
"LP2013_e2","LP2013_e2_1","skimp",226,1,"related_lure",3,1355,"Include"
"LP2013_e2","LP2013_e2_1","quick",227,1,"target",2,1128,"Include"
"LP2013_e2","LP2013_e2_1","nook",228,1,"target",3,1110,"Include"
"LP2013_e2","LP2013_e2_1","kiosk",229,1,"related_lure",1,1073,"Include"
"LP2013_e2","LP2013_e2_1","unify",230,1,"target",2,2124,"Include"
"LP2013_e2","LP2013_e2_1","algebra",231,0,"unrelated_lure",1,1554,"Include"
"LP2013_e2","LP2013_e2_1","off",232,1,"related_lure",3,1699,"Include"
"LP2013_e2","LP2013_e2_1","icon",233,1,"target",4,1039,"Include"
"LP2013_e2","LP2013_e2_1","twelve",234,0,"unrelated_lure",2,1290,"Include"
"LP2013_e2","LP2013_e2_1","pious",235,1,"target",4,980,"Include"
"LP2013_e2","LP2013_e2_1","wad",236,0,"unrelated_lure",2,1198,"Include"
"LP2013_e2","LP2013_e2_1","chop",237,1,"related_lure",4,1189,"Include"
"LP2013_e2","LP2013_e2_1","gear",238,0,"unrelated_lure",1,1368,"Include"
"LP2013_e2","LP2013_e2_1","punish",239,1,"related_lure",3,1279,"Include"
"LP2013_e2","LP2013_e2_1","brag",240,0,"unrelated_lure",2,876,"Include"
"LP2013_e2","LP2013_e2_1","nip",241,1,"target",4,750,"Include"
"LP2013_e2","LP2013_e2_1","lear",242,0,"unrelated_lure",1,629,"Include"
"LP2013_e2","LP2013_e2_1","smooch",243,1,"related_lure",4,1054,"Include"
"LP2013_e2","LP2013_e2_1","delta",244,0,"unrelated_lure",2,582,"Include"
"LP2013_e2","LP2013_e2_1","date",245,0,"unrelated_lure",2,638,"Include"
"LP2013_e2","LP2013_e2_1","wart",246,0,"unrelated_lure",1,672,"Include"
"LP2013_e2","LP2013_e2_1","cop",247,1,"related_lure",4,637,"Include"
"LP2013_e2","LP2013_e2_1","wage",248,0,"unrelated_lure",3,862,"Include"
"LP2013_e2","LP2013_e2_1","shiny",249,1,"related_lure",4,1066,"Include"
"LP2013_e2","LP2013_e2_1","grew",250,0,"unrelated_lure",2,487,"Include"
"LP2013_e2","LP2013_e2_1","sock",251,1,"target",2,785,"Include"
"LP2013_e2","LP2013_e2_1","debate",252,0,"unrelated_lure",2,968,"Include"
"LP2013_e2","LP2013_e2_1","jab",253,0,"unrelated_lure",3,1068,"Include"
"LP2013_e2","LP2013_e2_1","focus",254,1,"target",4,937,"Include"
"LP2013_e2","LP2013_e2_1","scum",255,1,"target",3,836,"Include"
"LP2013_e2","LP2013_e2_1","possum",256,1,"related_lure",1,752,"Include"
"LP2013_e2","LP2013_e2_1","inn",257,1,"related_lure",2,1381,"Include"
"LP2013_e2","LP2013_e2_1","mousy",258,1,"target",2,1353,"Include"
"LP2013_e2","LP2013_e2_1","mopy",259,1,"related_lure",1,993,"Include"
"LP2013_e2","LP2013_e2_1","noun",260,1,"related_lure",2,1025,"Include"
"LP2013_e2","LP2013_e2_1","hump",261,1,"target",3,599,"Include"
"LP2013_e2","LP2013_e2_1","chick",262,1,"target",4,593,"Include"
"LP2013_e2","LP2013_e2_1","muff",263,1,"related_lure",3,1205,"Include"
"LP2013_e2","LP2013_e2_1","hop",264,1,"related_lure",4,821,"Include"
"LP2013_e2","LP2013_e2_1","soy",265,1,"related_lure",3,808,"Include"
"LP2013_e2","LP2013_e2_1","shop",266,1,"target",3,1310,"Include"
"LP2013_e2","LP2013_e2_1","bat",267,0,"unrelated_lure",1,654,"Include"
"LP2013_e2","LP2013_e2_1","are",268,0,"unrelated_lure",2,769,"Include"
"LP2013_e2","LP2013_e2_1","puck",269,1,"related_lure",4,830,"Include"
"LP2013_e2","LP2013_e2_1","axe",270,0,"unrelated_lure",2,1005,"Include"
"LP2013_e2","LP2013_e2_1","pop",271,1,"target",4,649,"Include"
"LP2013_e2","LP2013_e2_1","ion",272,1,"target",4,796,"Include"
"LP2013_e2","LP2013_e2_1","lava",273,0,"unrelated_lure",1,1109,"Include"
"LP2013_e2","LP2013_e2_1","aware",274,0,"unrelated_lure",1,984,"Include"
"LP2013_e2","LP2013_e2_1","puff",275,1,"related_lure",3,1465,"Include"
"LP2013_e2","LP2013_e2_1","mimic",276,1,"related_lure",2,1248,"Include"
"LP2013_e2","LP2013_e2_1","noon",277,1,"target",3,826,"Include"
"LP2013_e2","LP2013_e2_1","zeta",278,0,"unrelated_lure",1,1857,"Include"
"LP2013_e2","LP2013_e2_1","sky",279,1,"target",4,915,"Include"
"LP2013_e2","LP2013_e2_1","cousin",280,1,"target",4,910,"Include"
"LP2013_e2","LP2013_e2_1","cuss",281,1,"related_lure",3,903,"Include"
"LP2013_e2","LP2013_e2_1","era",282,0,"unrelated_lure",2,970,"Include"
"LP2013_e2","LP2013_e2_1","glad",283,0,"unrelated_lure",2,1984,"Include"
"LP2013_e2","LP2013_e2_1","table",284,0,"unrelated_lure",2,1920,"Include"
"LP2013_e2","LP2013_e2_1","scion",285,1,"related_lure",3,1115,"Include"
"LP2013_e2","LP2013_e2_1","poky",286,1,"target",4,797,"Include"
"LP2013_e2","LP2013_e2_1","draw",287,0,"unrelated_lure",1,907,"Include"
"LP2013_e2","LP2013_e2_1","hock",288,1,"related_lure",3,918,"Include"
"LP2013_e2","LP2013_e2_1","rebel",289,0,"unrelated_lure",2,852,"Include"
"LP2013_e2","LP2013_e2_1","spy",290,1,"target",3,912,"Include"
"LP2013_e2","LP2013_e2_1","monk",291,1,"related_lure",2,1131,"Include"
"LP2013_e2","LP2013_e2_1","hunk",292,1,"related_lure",2,1437,"Include"
"LP2013_e2","LP2013_e2_1","hum",293,1,"target",1,632,"Include"
"LP2013_e2","LP2013_e2_1","soon",294,1,"related_lure",2,458,"Include"
"LP2013_e2","LP2013_e2_1","fuss",295,1,"target",3,821,"Include"
"LP2013_e2","LP2013_e2_1","schism",296,1,"target",4,796,"Include"
"LP2013_e2","LP2013_e2_1","physic",297,1,"target",4,1893,"Include"
"LP2013_e2","LP2013_e2_1","wave",298,0,"unrelated_lure",2,658,"Include"
"LP2013_e2","LP2013_e2_1","chum",299,1,"related_lure",1,577,"Include"
"LP2013_e2","LP2013_e2_1","jar",300,0,"unrelated_lure",3,1152,"Include"
"LP2013_e2","LP2013_e2_1","weld",301,0,"unrelated_lure",2,470,"Include"
"LP2013_e2","LP2013_e2_1","tee",302,0,"unrelated_lure",3,786,"Include"
"LP2013_e2","LP2013_e2_1","union",303,1,"target",4,765,"Include"
"LP2013_e2","LP2013_e2_1","ledge",304,0,"unrelated_lure",2,444,"Include"
"LP2013_e2","LP2013_e2_1","posh",305,1,"related_lure",3,872,"Include"
"LP2013_e2","LP2013_e2_1","inch",306,1,"target",3,1080,"Include"
"LP2013_e2","LP2013_e2_1","funny",307,1,"related_lure",3,926,"Include"
"LP2013_e2","LP2013_e2_1","skunk",308,1,"related_lure",3,713,"Include"
"LP2013_e2","LP2013_e2_1","waver",309,0,"unrelated_lure",1,626,"Include"
"LP2013_e2","LP2013_e2_1","hoop",310,1,"related_lure",2,736,"Include"
"LP2013_e2","LP2013_e2_1","spiky",311,1,"target",3,913,"Include"
"LP2013_e2","LP2013_e2_1","chimp",312,1,"target",3,876,"Include"
"LP2013_e2","LP2013_e2_1","puss",313,1,"target",4,771,"Include"
"LP2013_e2","LP2013_e2_1","dew",314,0,"unrelated_lure",3,899,"Include"
"LP2013_e2","LP2013_e2_1","dare",315,0,"unrelated_lure",3,718,"Include"
"LP2013_e2","LP2013_e2_1","psychic",316,1,"related_lure",4,716,"Include"
"LP2013_e2","LP2013_e2_1","daze",317,0,"unrelated_lure",1,761,"Include"
"LP2013_e2","LP2013_e2_1","cony",318,1,"target",2,499,"Include"
"LP2013_e2","LP2013_e2_1","music",319,1,"related_lure",1,584,"Include"
"LP2013_e2","LP2013_e2_1","comfy",320,1,"related_lure",1,627,"Include"
"LP2013_e2","LP2013_e2_1","verbal",321,0,"unrelated_lure",1,1037,"Include"
"LP2013_e2","LP2013_e2_1","mush",322,1,"target",2,729,"Include"
"LP2013_e2","LP2013_e2_1","tag",323,0,"unrelated_lure",3,1259,"Include"
"LP2013_e2","LP2013_e2_1","cosy",324,1,"related_lure",3,671,"Include"
"LP2013_e2","LP2013_e2_1","moss",325,1,"target",4,593,"Include"
"LP2013_e2","LP2013_e2_1","snuff",326,1,"related_lure",3,573,"Include"
"LP2013_e2","LP2013_e2_1","deer",327,0,"unrelated_lure",2,647,"Include"
"LP2013_e2","LP2013_e2_1","sic",328,1,"related_lure",3,778,"Include"
"LP2013_e2","LP2013_e2_1","ravage",329,0,"unrelated_lure",1,610,"Include"
"LP2013_e2","LP2013_e2_1","minimum",330,1,"related_lure",2,685,"Include"
"LP2013_e2","LP2013_e2_1","delve",331,0,"unrelated_lure",2,1014,"Include"
"LP2013_e2","LP2013_e2_1","onus",332,1,"target",3,948,"Include"
"LP2013_e2","LP2013_e2_1","valet",333,0,"unrelated_lure",1,837,"Include"
"LP2013_e2","LP2013_e2_1","eagle",334,0,"unrelated_lure",2,516,"Include"
"LP2013_e2","LP2013_e2_1","suck",335,1,"target",4,661,"Include"
"LP2013_e2","LP2013_e2_1","lad",336,0,"unrelated_lure",2,822,"Include"
"LP2013_e2","LP2013_e2_1","pinky",337,1,"target",3,791,"Include"
"LP2013_e2","LP2013_e2_1","phi",338,1,"target",4,912,"Include"
"LP2013_e2","LP2013_e2_1","average",339,0,"unrelated_lure",1,511,"Include"
"LP2013_e2","LP2013_e2_1","oomph",340,1,"related_lure",2,626,"Include"
"LP2013_e2","LP2013_e2_1","summon",341,1,"target",1,855,"Include"
"LP2013_e2","LP2013_e2_1","wet",342,0,"unrelated_lure",3,854,"Include"
"LP2013_e2","LP2013_e2_1","shock",343,1,"target",2,616,"Include"
"LP2013_e2","LP2013_e2_1","shin",344,1,"related_lure",3,874,"Include"
"LP2013_e2","LP2013_e2_1","miff",345,1,"target",4,910,"Include"
"LP2013_e2","LP2013_e2_1","mucus",346,1,"target",4,757,"Include"
"LP2013_e2","LP2013_e2_1","algae",347,0,"unrelated_lure",2,1068,"Include"
"LP2013_e2","LP2013_e2_1","moo",348,1,"related_lure",3,957,"Include"
"LP2013_e2","LP2013_e2_1","skin",349,1,"target",4,665,"Include"
"LP2013_e2","LP2013_e2_1","coy",350,1,"related_lure",3,1149,"Include"
"LP2013_e2","LP2013_e2_1","shun",351,1,"related_lure",1,697,"Include"
"LP2013_e2","LP2013_e2_1","spoon",352,1,"related_lure",2,358,"Include"
"LP2013_e2","LP2013_e2_1","nom",353,1,"target",4,782,"Include"
"LP2013_e2","LP2013_e2_1","you",354,1,"related_lure",4,1184,"Include"
"LP2013_e2","LP2013_e2_1","poppy",355,1,"related_lure",3,919,"Include"
"LP2013_e2","LP2013_e2_1","him",356,1,"target",2,817,"Include"
"LP2013_e2","LP2013_e2_1","impish",357,1,"related_lure",3,1661,"Include"
"LP2013_e2","LP2013_e2_1","gab",358,0,"unrelated_lure",3,893,"Include"
"LP2013_e2","LP2013_e2_1","edge",359,0,"unrelated_lure",2,453,"Include"
"LP2013_e2","LP2013_e2_1","pink",360,1,"related_lure",1,236,"Include"
"LP2013_e2","LP2013_e2_10","age",0,0,"not_tested",99,0,"Exclude"
"LP2013_e2","LP2013_e2_10","bee",0,0,"not_tested",99,0,"Exclude"
"LP2013_e2","LP2013_e2_10","ere",0,0,"not_tested",99,0,"Exclude"
"LP2013_e2","LP2013_e2_10","gel",0,0,"not_tested",99,0,"Exclude"
"LP2013_e2","LP2013_e2_10","jaw",0,0,"not_tested",99,0,"Exclude"
"LP2013_e2","LP2013_e2_10","leg",0,0,"not_tested",99,0,"Exclude"
"LP2013_e2","LP2013_e2_10","tar",0,0,"not_tested",99,0,"Exclude"
"LP2013_e2","LP2013_e2_10","wax",0,0,"not_tested",99,0,"Exclude"
"LP2013_e2","LP2013_e2_10","able",0,0,"not_tested",99,0,"Exclude"
"LP2013_e2","LP2013_e2_10","dart",0,0,"not_tested",99,0,"Exclude"
"LP2013_e2","LP2013_e2_10","deal",0,0,"not_tested",99,0,"Exclude"
"LP2013_e2","LP2013_e2_10","drab",0,0,"not_tested",99,0,"Exclude"
"LP2013_e2","LP2013_e2_10","gave",0,0,"not_tested",99,0,"Exclude"
"LP2013_e2","LP2013_e2_10","laze",0,0,"not_tested",99,0,"Exclude"
"LP2013_e2","LP2013_e2_10","lewd",0,0,"not_tested",99,0,"Exclude"
"LP2013_e2","LP2013_e2_10","reel",0,0,"not_tested",99,0,"Exclude"
"LP2013_e2","LP2013_e2_10","verb",0,0,"not_tested",99,0,"Exclude"
"LP2013_e2","LP2013_e2_10","ward",0,0,"not_tested",99,0,"Exclude"
"LP2013_e2","LP2013_e2_10","weal",0,0,"not_tested",99,0,"Exclude"
"LP2013_e2","LP2013_e2_10","alter",0,0,"not_tested",99,0,"Exclude"
"LP2013_e2","LP2013_e2_10","begat",0,0,"not_tested",99,0,"Exclude"
"LP2013_e2","LP2013_e2_10","bread",0,0,"not_tested",99,0,"Exclude"
"LP2013_e2","LP2013_e2_10","deter",0,0,"not_tested",99,0,"Exclude"
"LP2013_e2","LP2013_e2_10","elate",0,0,"not_tested",99,0,"Exclude"
"LP2013_e2","LP2013_e2_10","later",0,0,"not_tested",99,0,"Exclude"
"LP2013_e2","LP2013_e2_10","trade",0,0,"not_tested",99,0,"Exclude"
"LP2013_e2","LP2013_e2_10","wager",0,0,"not_tested",99,0,"Exclude"
"LP2013_e2","LP2013_e2_10","weave",0,0,"not_tested",99,0,"Exclude"
"LP2013_e2","LP2013_e2_10","advert",0,0,"not_tested",99,0,"Exclude"
"LP2013_e2","LP2013_e2_10","vertex",0,0,"not_tested",99,0,"Exclude"
"LP2013_e2","LP2013_e2_10","ale",0,0,"not_tested",99,0,"Exclude"
"LP2013_e2","LP2013_e2_10","awe",0,0,"not_tested",99,0,"Exclude"
"LP2013_e2","LP2013_e2_10","eat",0,0,"not_tested",99,0,"Exclude"
"LP2013_e2","LP2013_e2_10","eve",0,0,"not_tested",99,0,"Exclude"
"LP2013_e2","LP2013_e2_10","get",0,0,"not_tested",99,0,"Exclude"
"LP2013_e2","LP2013_e2_10","red",0,0,"not_tested",99,0,"Exclude"
"LP2013_e2","LP2013_e2_10","web",0,0,"not_tested",99,0,"Exclude"
"LP2013_e2","LP2013_e2_10","bald",0,0,"not_tested",99,0,"Exclude"
"LP2013_e2","LP2013_e2_10","bead",0,0,"not_tested",99,0,"Exclude"
"LP2013_e2","LP2013_e2_10","beet",0,0,"not_tested",99,0,"Exclude"
"LP2013_e2","LP2013_e2_10","bree",0,0,"not_tested",99,0,"Exclude"
"LP2013_e2","LP2013_e2_10","drag",0,0,"not_tested",99,0,"Exclude"
"LP2013_e2","LP2013_e2_10","grab",0,0,"not_tested",99,0,"Exclude"
"LP2013_e2","LP2013_e2_10","jeer",0,0,"not_tested",99,0,"Exclude"
"LP2013_e2","LP2013_e2_10","rage",0,0,"not_tested",99,0,"Exclude"
"LP2013_e2","LP2013_e2_10","read",0,0,"not_tested",99,0,"Exclude"
"LP2013_e2","LP2013_e2_10","tale",0,0,"not_tested",99,0,"Exclude"
"LP2013_e2","LP2013_e2_10","tzar",0,0,"not_tested",99,0,"Exclude"
"LP2013_e2","LP2013_e2_10","were",0,0,"not_tested",99,0,"Exclude"
"LP2013_e2","LP2013_e2_10","alder",0,0,"not_tested",99,0,"Exclude"
"LP2013_e2","LP2013_e2_10","avert",0,0,"not_tested",99,0,"Exclude"
"LP2013_e2","LP2013_e2_10","bagel",0,0,"not_tested",99,0,"Exclude"
"LP2013_e2","LP2013_e2_10","beret",0,0,"not_tested",99,0,"Exclude"
"LP2013_e2","LP2013_e2_10","breed",0,0,"not_tested",99,0,"Exclude"
"LP2013_e2","LP2013_e2_10","extra",0,0,"not_tested",99,0,"Exclude"
"LP2013_e2","LP2013_e2_10","grave",0,0,"not_tested",99,0,"Exclude"
"LP2013_e2","LP2013_e2_10","greet",0,0,"not_tested",99,0,"Exclude"
"LP2013_e2","LP2013_e2_10","latex",0,0,"not_tested",99,0,"Exclude"
"LP2013_e2","LP2013_e2_10","larvae",0,0,"not_tested",99,0,"Exclude"
"LP2013_e2","LP2013_e2_10","travel",0,0,"not_tested",99,0,"Exclude"
"LP2013_e2","LP2013_e2_10","are",0,0,"not_tested",99,0,"Exclude"
"LP2013_e2","LP2013_e2_10","axe",0,0,"not_tested",99,0,"Exclude"
"LP2013_e2","LP2013_e2_10","bat",0,0,"not_tested",99,0,"Exclude"
"LP2013_e2","LP2013_e2_10","eel",0,0,"not_tested",99,0,"Exclude"
"LP2013_e2","LP2013_e2_10","ewe",0,0,"not_tested",99,0,"Exclude"
"LP2013_e2","LP2013_e2_10","jab",0,0,"not_tested",99,0,"Exclude"
"LP2013_e2","LP2013_e2_10","tea",0,0,"not_tested",99,0,"Exclude"
"LP2013_e2","LP2013_e2_10","wed",0,0,"not_tested",99,0,"Exclude"
"LP2013_e2","LP2013_e2_10","aver",0,0,"not_tested",99,0,"Exclude"
"LP2013_e2","LP2013_e2_10","belt",0,0,"not_tested",99,0,"Exclude"
"LP2013_e2","LP2013_e2_10","date",0,0,"not_tested",99,0,"Exclude"
"LP2013_e2","LP2013_e2_10","eave",0,0,"not_tested",99,0,"Exclude"
"LP2013_e2","LP2013_e2_10","gear",0,0,"not_tested",99,0,"Exclude"
"LP2013_e2","LP2013_e2_10","lard",0,0,"not_tested",99,0,"Exclude"
"LP2013_e2","LP2013_e2_10","rate",0,0,"not_tested",99,0,"Exclude"
"LP2013_e2","LP2013_e2_10","teal",0,0,"not_tested",99,0,"Exclude"
"LP2013_e2","LP2013_e2_10","zeal",0,0,"not_tested",99,0,"Exclude"
"LP2013_e2","LP2013_e2_10","alert",0,0,"not_tested",99,0,"Exclude"
"LP2013_e2","LP2013_e2_10","award",0,0,"not_tested",99,0,"Exclude"
"LP2013_e2","LP2013_e2_10","barge",0,0,"not_tested",99,0,"Exclude"
"LP2013_e2","LP2013_e2_10","blade",0,0,"not_tested",99,0,"Exclude"
"LP2013_e2","LP2013_e2_10","brawl",0,0,"not_tested",99,0,"Exclude"
"LP2013_e2","LP2013_e2_10","dwelt",0,0,"not_tested",99,0,"Exclude"
"LP2013_e2","LP2013_e2_10","evade",0,0,"not_tested",99,0,"Exclude"
"LP2013_e2","LP2013_e2_10","jewel",0,0,"not_tested",99,0,"Exclude"
"LP2013_e2","LP2013_e2_10","leave",0,0,"not_tested",99,0,"Exclude"
"LP2013_e2","LP2013_e2_10","reave",0,0,"not_tested",99,0,"Exclude"
"LP2013_e2","LP2013_e2_10","revel",0,0,"not_tested",99,0,"Exclude"
"LP2013_e2","LP2013_e2_10","zebra",0,0,"not_tested",99,0,"Exclude"
"LP2013_e2","LP2013_e2_10","ledger",0,0,"not_tested",99,0,"Exclude"
"LP2013_e2","LP2013_e2_10","art",0,0,"not_tested",99,0,"Exclude"
"LP2013_e2","LP2013_e2_10","bad",0,0,"not_tested",99,0,"Exclude"
"LP2013_e2","LP2013_e2_10","dew",0,0,"not_tested",99,0,"Exclude"
"LP2013_e2","LP2013_e2_10","era",0,0,"not_tested",99,0,"Exclude"
"LP2013_e2","LP2013_e2_10","rat",0,0,"not_tested",99,0,"Exclude"
"LP2013_e2","LP2013_e2_10","tag",0,0,"not_tested",99,0,"Exclude"
"LP2013_e2","LP2013_e2_10","war",0,0,"not_tested",99,0,"Exclude"
"LP2013_e2","LP2013_e2_10","beat",0,0,"not_tested",99,0,"Exclude"
"LP2013_e2","LP2013_e2_10","beta",0,0,"not_tested",99,0,"Exclude"
"LP2013_e2","LP2013_e2_10","daze",0,0,"not_tested",99,0,"Exclude"
"LP2013_e2","LP2013_e2_10","draw",0,0,"not_tested",99,0,"Exclude"
"LP2013_e2","LP2013_e2_10","glad",0,0,"not_tested",99,0,"Exclude"
"LP2013_e2","LP2013_e2_10","jade",0,0,"not_tested",99,0,"Exclude"
"LP2013_e2","LP2013_e2_10","lava",0,0,"not_tested",99,0,"Exclude"
"LP2013_e2","LP2013_e2_10","leer",0,0,"not_tested",99,0,"Exclude"
"LP2013_e2","LP2013_e2_10","rave",0,0,"not_tested",99,0,"Exclude"
"LP2013_e2","LP2013_e2_10","tear",0,0,"not_tested",99,0,"Exclude"
"LP2013_e2","LP2013_e2_10","wave",0,0,"not_tested",99,0,"Exclude"
"LP2013_e2","LP2013_e2_10","weld",0,0,"not_tested",99,0,"Exclude"
"LP2013_e2","LP2013_e2_10","algae",0,0,"not_tested",99,0,"Exclude"
"LP2013_e2","LP2013_e2_10","delve",0,0,"not_tested",99,0,"Exclude"
"LP2013_e2","LP2013_e2_10","eagle",0,0,"not_tested",99,0,"Exclude"
"LP2013_e2","LP2013_e2_10","exalt",0,0,"not_tested",99,0,"Exclude"
"LP2013_e2","LP2013_e2_10","gavel",0,0,"not_tested",99,0,"Exclude"
"LP2013_e2","LP2013_e2_10","great",0,0,"not_tested",99,0,"Exclude"
"LP2013_e2","LP2013_e2_10","valet",0,0,"not_tested",99,0,"Exclude"
"LP2013_e2","LP2013_e2_10","waver",0,0,"not_tested",99,0,"Exclude"
"LP2013_e2","LP2013_e2_10","beagle",0,0,"not_tested",99,0,"Exclude"
"LP2013_e2","LP2013_e2_10","garble",0,0,"not_tested",99,0,"Exclude"
"LP2013_e2","LP2013_e2_10","ravage",0,0,"not_tested",99,0,"Exclude"
"LP2013_e2","LP2013_e2_10","fun",1,1,"target",4,512,"Include"
"LP2013_e2","LP2013_e2_10","skim",2,1,"target",4,758,"Include"
"LP2013_e2","LP2013_e2_10","smooch",3,1,"related_lure",2,2418,"Include"
"LP2013_e2","LP2013_e2_10","shy",4,1,"target",4,1123,"Include"
"LP2013_e2","LP2013_e2_10","copy",5,1,"related_lure",4,1712,"Include"
"LP2013_e2","LP2013_e2_10","kiosk",6,1,"related_lure",1,2489,"Include"
"LP2013_e2","LP2013_e2_10","chunk",7,1,"target",4,1046,"Include"
"LP2013_e2","LP2013_e2_10","water",8,0,"unrelated_lure",1,773,"Include"
"LP2013_e2","LP2013_e2_10","gable",9,0,"unrelated_lure",1,1345,"Include"
"LP2013_e2","LP2013_e2_10","such",10,1,"related_lure",4,797,"Include"
"LP2013_e2","LP2013_e2_10","bet",11,0,"unrelated_lure",3,1625,"Include"
"LP2013_e2","LP2013_e2_10","mom",12,1,"related_lure",1,1368,"Include"
"LP2013_e2","LP2013_e2_10","algebra",13,0,"unrelated_lure",1,2010,"Include"
"LP2013_e2","LP2013_e2_10","twelve",14,0,"unrelated_lure",1,1097,"Include"
"LP2013_e2","LP2013_e2_10","mopy",15,1,"target",4,1105,"Include"
"LP2013_e2","LP2013_e2_10","drat",16,0,"unrelated_lure",1,906,"Include"
"LP2013_e2","LP2013_e2_10","skimp",17,1,"related_lure",4,3703,"Include"
"LP2013_e2","LP2013_e2_10","brew",18,0,"unrelated_lure",1,805,"Include"
"LP2013_e2","LP2013_e2_10","fusion",19,1,"related_lure",3,1699,"Include"
"LP2013_e2","LP2013_e2_10","tweed",20,0,"unrelated_lure",1,1261,"Include"
"LP2013_e2","LP2013_e2_10","cusp",21,1,"target",4,2100,"Include"
"LP2013_e2","LP2013_e2_10","mousy",22,1,"related_lure",3,1192,"Include"
"LP2013_e2","LP2013_e2_10","finicky",23,1,"related_lure",1,1695,"Include"
"LP2013_e2","LP2013_e2_10","ski",24,1,"target",4,1103,"Include"
"LP2013_e2","LP2013_e2_10","munch",25,1,"related_lure",4,1212,"Include"
"LP2013_e2","LP2013_e2_10","punish",26,1,"target",4,1100,"Include"
"LP2013_e2","LP2013_e2_10","rag",27,0,"unrelated_lure",1,1084,"Include"
"LP2013_e2","LP2013_e2_10","conk",28,1,"target",4,1745,"Include"
"LP2013_e2","LP2013_e2_10","grew",29,0,"unrelated_lure",1,780,"Include"
"LP2013_e2","LP2013_e2_10","glaze",30,0,"unrelated_lure",1,1830,"Include"
"LP2013_e2","LP2013_e2_10","off",31,1,"target",4,998,"Include"
"LP2013_e2","LP2013_e2_10","pock",32,1,"target",3,820,"Include"
"LP2013_e2","LP2013_e2_10","hook",33,1,"related_lure",4,1134,"Include"
"LP2013_e2","LP2013_e2_10","weed",34,0,"unrelated_lure",1,3001,"Include"
"LP2013_e2","LP2013_e2_10","debate",35,0,"unrelated_lure",1,3530,"Include"
"LP2013_e2","LP2013_e2_10","wart",36,0,"unrelated_lure",4,2311,"Include"
"LP2013_e2","LP2013_e2_10","chick",37,1,"related_lure",4,1116,"Include"
"LP2013_e2","LP2013_e2_10","push",38,1,"related_lure",4,1603,"Include"
"LP2013_e2","LP2013_e2_10","lear",39,0,"unrelated_lure",1,1798,"Include"
"LP2013_e2","LP2013_e2_10","shiny",40,1,"related_lure",3,1506,"Include"
"LP2013_e2","LP2013_e2_10","sup",41,1,"target",4,1832,"Include"
"LP2013_e2","LP2013_e2_10","noun",42,1,"target",1,3359,"Include"
"LP2013_e2","LP2013_e2_10","muff",43,1,"target",4,1422,"Include"
"LP2013_e2","LP2013_e2_10","bale",44,0,"unrelated_lure",1,1965,"Include"
"LP2013_e2","LP2013_e2_10","focus",45,1,"target",4,2011,"Include"
"LP2013_e2","LP2013_e2_10","nook",46,1,"related_lure",1,1418,"Include"
"LP2013_e2","LP2013_e2_10","graze",47,0,"unrelated_lure",4,1937,"Include"
"LP2013_e2","LP2013_e2_10","wage",48,0,"unrelated_lure",4,2650,"Include"
"LP2013_e2","LP2013_e2_10","coupon",49,1,"target",4,857,"Include"
"LP2013_e2","LP2013_e2_10","icon",50,1,"related_lure",1,1052,"Include"
"LP2013_e2","LP2013_e2_10","pick",51,1,"related_lure",4,1676,"Include"
"LP2013_e2","LP2013_e2_10","pious",52,1,"target",4,1887,"Include"
"LP2013_e2","LP2013_e2_10","wad",53,0,"unrelated_lure",1,1579,"Include"
"LP2013_e2","LP2013_e2_10","nymph",54,1,"related_lure",1,1034,"Include"
"LP2013_e2","LP2013_e2_10","puck",55,1,"related_lure",4,1456,"Include"
"LP2013_e2","LP2013_e2_10","funk",56,1,"target",4,916,"Include"
"LP2013_e2","LP2013_e2_10","brag",57,0,"unrelated_lure",4,1121,"Include"
"LP2013_e2","LP2013_e2_10","possum",58,1,"related_lure",1,844,"Include"
"LP2013_e2","LP2013_e2_10","mock",59,1,"related_lure",4,1526,"Include"
"LP2013_e2","LP2013_e2_10","unify",60,1,"target",4,1734,"Include"
"LP2013_e2","LP2013_e2_10","lax",61,0,"unrelated_lure",1,737,"Include"
"LP2013_e2","LP2013_e2_10","spicy",62,1,"target",4,1264,"Include"
"LP2013_e2","LP2013_e2_10","inn",63,1,"target",4,1107,"Include"
"LP2013_e2","LP2013_e2_10","hiss",64,1,"related_lure",1,1049,"Include"
"LP2013_e2","LP2013_e2_10","debt",65,0,"unrelated_lure",1,2769,"Include"
"LP2013_e2","LP2013_e2_10","pony",66,1,"target",4,981,"Include"
"LP2013_e2","LP2013_e2_10","garb",67,0,"unrelated_lure",2,1492,"Include"
"LP2013_e2","LP2013_e2_10","beadle",68,0,"unrelated_lure",1,1044,"Include"
"LP2013_e2","LP2013_e2_10","shop",69,1,"related_lure",4,1098,"Include"
"LP2013_e2","LP2013_e2_10","pinch",70,1,"target",4,1407,"Include"
"LP2013_e2","LP2013_e2_10","bear",71,0,"unrelated_lure",2,1764,"Include"
"LP2013_e2","LP2013_e2_10","nip",72,1,"related_lure",3,1177,"Include"
"LP2013_e2","LP2013_e2_10","tab",73,0,"unrelated_lure",2,1855,"Include"
"LP2013_e2","LP2013_e2_10","spook",74,1,"related_lure",1,3064,"Include"
"LP2013_e2","LP2013_e2_10","hump",75,1,"target",4,1651,"Include"
"LP2013_e2","LP2013_e2_10","hop",76,1,"target",3,643,"Include"
"LP2013_e2","LP2013_e2_10","sock",77,1,"related_lure",2,1709,"Include"
"LP2013_e2","LP2013_e2_10","mick",78,1,"target",4,1201,"Include"
"LP2013_e2","LP2013_e2_10","veal",79,0,"unrelated_lure",3,967,"Include"
"LP2013_e2","LP2013_e2_10","cop",80,1,"related_lure",3,1960,"Include"
"LP2013_e2","LP2013_e2_10","ossify",81,1,"related_lure",1,1418,"Include"
"LP2013_e2","LP2013_e2_10","delta",82,0,"unrelated_lure",1,944,"Include"
"LP2013_e2","LP2013_e2_10","snoop",83,1,"related_lure",4,816,"Include"
"LP2013_e2","LP2013_e2_10","scum",84,1,"target",4,840,"Include"
"LP2013_e2","LP2013_e2_10","quick",85,1,"target",4,1403,"Include"
"LP2013_e2","LP2013_e2_10","lab",86,0,"unrelated_lure",3,1154,"Include"
"LP2013_e2","LP2013_e2_10","real",87,0,"unrelated_lure",1,975,"Include"
"LP2013_e2","LP2013_e2_10","soy",88,1,"target",4,836,"Include"
"LP2013_e2","LP2013_e2_10","pom",89,1,"related_lure",2,1301,"Include"
"LP2013_e2","LP2013_e2_10","chop",90,1,"target",4,1289,"Include"
"LP2013_e2","LP2013_e2_10","soon",91,1,"related_lure",1,3256,"Include"
"LP2013_e2","LP2013_e2_10","dare",92,0,"unrelated_lure",1,2477,"Include"
"LP2013_e2","LP2013_e2_10","verbal",93,0,"unrelated_lure",1,1600,"Include"
"LP2013_e2","LP2013_e2_10","you",94,1,"target",4,2402,"Include"
"LP2013_e2","LP2013_e2_10","oomph",95,1,"related_lure",1,2148,"Include"
"LP2013_e2","LP2013_e2_10","wale",96,0,"unrelated_lure",3,2164,"Include"
"LP2013_e2","LP2013_e2_10","mimic",97,1,"target",4,2333,"Include"
"LP2013_e2","LP2013_e2_10","shun",98,1,"target",4,1681,"Include"
"LP2013_e2","LP2013_e2_10","spiky",99,1,"related_lure",1,1798,"Include"
"LP2013_e2","LP2013_e2_10","pop",100,1,"target",3,2093,"Include"
"LP2013_e2","LP2013_e2_10","mucus",101,1,"related_lure",4,2271,"Include"
"LP2013_e2","LP2013_e2_10","veer",102,0,"unrelated_lure",3,1298,"Include"
"LP2013_e2","LP2013_e2_10","coy",103,1,"target",3,2635,"Include"
"LP2013_e2","LP2013_e2_10","led",104,0,"unrelated_lure",1,1813,"Include"
"LP2013_e2","LP2013_e2_10","sky",105,1,"related_lure",3,1744,"Include"
"LP2013_e2","LP2013_e2_10","pink",106,1,"target",4,2405,"Include"
"LP2013_e2","LP2013_e2_10","spy",107,1,"target",4,1097,"Include"
"LP2013_e2","LP2013_e2_10","axle",108,0,"unrelated_lure",1,1445,"Include"
"LP2013_e2","LP2013_e2_10","gab",109,0,"unrelated_lure",4,1878,"Include"
"LP2013_e2","LP2013_e2_10","funny",110,1,"target",1,1895,"Include"
"LP2013_e2","LP2013_e2_10","noon",111,1,"related_lure",4,2025,"Include"
"LP2013_e2","LP2013_e2_10","chimp",112,1,"target",4,2887,"Include"
"LP2013_e2","LP2013_e2_10","edge",113,0,"unrelated_lure",1,1232,"Include"
"LP2013_e2","LP2013_e2_10","onus",114,1,"target",4,2654,"Include"
"LP2013_e2","LP2013_e2_10","phi",115,1,"related_lure",1,1616,"Include"
"LP2013_e2","LP2013_e2_10","reed",116,0,"unrelated_lure",1,1586,"Include"
"LP2013_e2","LP2013_e2_10","braze",117,0,"unrelated_lure",4,2243,"Include"
"LP2013_e2","LP2013_e2_10","summon",118,1,"target",4,2381,"Include"
"LP2013_e2","LP2013_e2_10","shin",119,1,"target",4,3505,"Include"
"LP2013_e2","LP2013_e2_10","zeta",120,0,"unrelated_lure",1,2311,"Include"
"LP2013_e2","LP2013_e2_10","skunk",121,1,"related_lure",2,2204,"Include"
"LP2013_e2","LP2013_e2_10","nom",122,1,"target",4,1901,"Include"
"LP2013_e2","LP2013_e2_10","minimum",123,1,"target",4,2040,"Include"
"LP2013_e2","LP2013_e2_10","cousin",124,1,"target",4,1122,"Include"
"LP2013_e2","LP2013_e2_10","skin",125,1,"related_lure",4,1050,"Include"
"LP2013_e2","LP2013_e2_10","puss",126,1,"related_lure",4,1645,"Include"
"LP2013_e2","LP2013_e2_10","blare",127,0,"unrelated_lure",3,1278,"Include"
"LP2013_e2","LP2013_e2_10","table",128,0,"unrelated_lure",1,920,"Include"
"LP2013_e2","LP2013_e2_10","spoon",129,1,"related_lure",4,1755,"Include"
"LP2013_e2","LP2013_e2_10","large",130,0,"unrelated_lure",1,1013,"Include"
"LP2013_e2","LP2013_e2_10","beard",131,0,"unrelated_lure",1,1334,"Include"
"LP2013_e2","LP2013_e2_10","snuff",132,1,"related_lure",4,823,"Include"
"LP2013_e2","LP2013_e2_10","hock",133,1,"target",4,1068,"Include"
"LP2013_e2","LP2013_e2_10","impish",134,1,"related_lure",1,1453,"Include"
"LP2013_e2","LP2013_e2_10","cuss",135,1,"target",3,2476,"Include"
"LP2013_e2","LP2013_e2_10","puff",136,1,"related_lure",4,1166,"Include"
"LP2013_e2","LP2013_e2_10","psychic",137,1,"target",1,1781,"Include"
"LP2013_e2","LP2013_e2_10","sic",138,1,"related_lure",2,1500,"Include"
"LP2013_e2","LP2013_e2_10","poppy",139,1,"related_lure",4,3234,"Include"
"LP2013_e2","LP2013_e2_10","cosy",140,1,"related_lure",4,1105,"Include"
"LP2013_e2","LP2013_e2_10","hoop",141,1,"target",4,931,"Include"
"LP2013_e2","LP2013_e2_10","fuss",142,1,"target",4,711,"Include"
"LP2013_e2","LP2013_e2_10","union",143,1,"target",4,925,"Include"
"LP2013_e2","LP2013_e2_10","average",144,0,"unrelated_lure",2,1456,"Include"
"LP2013_e2","LP2013_e2_10","ledge",145,0,"unrelated_lure",3,1103,"Include"
"LP2013_e2","LP2013_e2_10","moo",146,1,"target",4,1093,"Include"
"LP2013_e2","LP2013_e2_10","mush",147,1,"related_lure",4,1735,"Include"
"LP2013_e2","LP2013_e2_10","lad",148,0,"unrelated_lure",1,1131,"Include"
"LP2013_e2","LP2013_e2_10","tee",149,0,"unrelated_lure",1,1174,"Include"
"LP2013_e2","LP2013_e2_10","music",150,1,"target",3,936,"Include"
"LP2013_e2","LP2013_e2_10","schism",151,1,"related_lure",1,2231,"Include"
"LP2013_e2","LP2013_e2_10","bard",152,0,"unrelated_lure",4,1374,"Include"
"LP2013_e2","LP2013_e2_10","grade",153,0,"unrelated_lure",2,952,"Include"
"LP2013_e2","LP2013_e2_10","adverb",154,0,"unrelated_lure",3,1901,"Include"
"LP2013_e2","LP2013_e2_10","chum",155,1,"related_lure",4,1002,"Include"
"LP2013_e2","LP2013_e2_10","physic",156,1,"related_lure",4,924,"Include"
"LP2013_e2","LP2013_e2_10","brat",157,0,"unrelated_lure",1,1494,"Include"
"LP2013_e2","LP2013_e2_10","shock",158,1,"related_lure",4,1626,"Include"
"LP2013_e2","LP2013_e2_10","suck",159,1,"related_lure",1,1289,"Include"
"LP2013_e2","LP2013_e2_10","bed",160,0,"unrelated_lure",1,1309,"Include"
"LP2013_e2","LP2013_e2_10","him",161,1,"target",1,1073,"Include"
"LP2013_e2","LP2013_e2_10","comfy",162,1,"target",4,867,"Include"
"LP2013_e2","LP2013_e2_10","deer",163,0,"unrelated_lure",1,1299,"Include"
"LP2013_e2","LP2013_e2_10","miff",164,1,"related_lure",4,760,"Include"
"LP2013_e2","LP2013_e2_10","inch",165,1,"related_lure",1,1200,"Include"
"LP2013_e2","LP2013_e2_10","aware",166,0,"unrelated_lure",2,1307,"Include"
"LP2013_e2","LP2013_e2_10","gate",167,0,"unrelated_lure",3,1039,"Include"
"LP2013_e2","LP2013_e2_10","posh",168,1,"related_lure",4,848,"Include"
"LP2013_e2","LP2013_e2_10","pinky",169,1,"target",4,1947,"Include"
"LP2013_e2","LP2013_e2_10","hum",170,1,"target",1,957,"Include"
"LP2013_e2","LP2013_e2_10","moss",171,1,"related_lure",4,1075,"Include"
"LP2013_e2","LP2013_e2_10","wet",172,0,"unrelated_lure",3,1575,"Include"
"LP2013_e2","LP2013_e2_10","rebel",173,0,"unrelated_lure",1,1200,"Include"
"LP2013_e2","LP2013_e2_10","poky",174,1,"related_lure",1,1461,"Include"
"LP2013_e2","LP2013_e2_10","hunk",175,1,"related_lure",3,1105,"Include"
"LP2013_e2","LP2013_e2_10","cony",176,1,"target",1,1372,"Include"
"LP2013_e2","LP2013_e2_10","scion",177,1,"related_lure",1,1668,"Include"
"LP2013_e2","LP2013_e2_10","jar",178,0,"unrelated_lure",3,1065,"Include"
"LP2013_e2","LP2013_e2_10","monk",179,1,"target",4,1105,"Include"
"LP2013_e2","LP2013_e2_10","ion",180,1,"target",4,724,"Include"
"LP2013_e2","LP2013_e2_10","mop",181,1,"related_lure",1,920,"Include"
"LP2013_e2","LP2013_e2_10","ate",182,0,"unrelated_lure",1,862,"Include"
"LP2013_e2","LP2013_e2_10","posy",183,1,"target",4,1231,"Include"
"LP2013_e2","LP2013_e2_10","bag",184,0,"unrelated_lure",1,876,"Include"
"LP2013_e2","LP2013_e2_10","pun",185,1,"related_lure",4,1076,"Include"
"LP2013_e2","LP2013_e2_10","huck",186,1,"related_lure",4,1056,"Include"
"LP2013_e2","LP2013_e2_10","ever",187,0,"unrelated_lure",1,1529,"Include"
"LP2013_e2","LP2013_e2_10","skip",188,1,"related_lure",4,1048,"Include"
"LP2013_e2","LP2013_e2_10","pouch",189,1,"related_lure",4,1782,"Include"
"LP2013_e2","LP2013_e2_10","quin",190,1,"related_lure",1,991,"Include"
"LP2013_e2","LP2013_e2_10","fish",191,1,"target",4,770,"Include"
"LP2013_e2","LP2013_e2_10","son",192,1,"related_lure",1,1297,"Include"
"LP2013_e2","LP2013_e2_10","hick",193,1,"target",4,746,"Include"
"LP2013_e2","LP2013_e2_10","minus",194,1,"target",2,1733,"Include"
"LP2013_e2","LP2013_e2_10","regal",195,0,"unrelated_lure",1,940,"Include"
"LP2013_e2","LP2013_e2_10","greed",196,0,"unrelated_lure",4,957,"Include"
"LP2013_e2","LP2013_e2_10","sick",197,1,"target",3,1087,"Include"
"LP2013_e2","LP2013_e2_10","vet",198,0,"unrelated_lure",1,1433,"Include"
"LP2013_e2","LP2013_e2_10","bled",199,0,"unrelated_lure",1,1028,"Include"
"LP2013_e2","LP2013_e2_10","pinny",200,1,"target",2,1551,"Include"
"LP2013_e2","LP2013_e2_10","coif",201,1,"related_lure",1,1080,"Include"
"LP2013_e2","LP2013_e2_10","glee",202,0,"unrelated_lure",1,1679,"Include"
"LP2013_e2","LP2013_e2_10","sonic",203,1,"related_lure",3,1323,"Include"
"LP2013_e2","LP2013_e2_10","smock",204,1,"target",4,1083,"Include"
"LP2013_e2","LP2013_e2_10","beer",205,0,"unrelated_lure",1,963,"Include"
"LP2013_e2","LP2013_e2_10","reveal",206,0,"unrelated_lure",1,999,"Include"
"LP2013_e2","LP2013_e2_10","piny",207,1,"related_lure",4,2360,"Include"
"LP2013_e2","LP2013_e2_10","level",208,0,"unrelated_lure",4,969,"Include"
"LP2013_e2","LP2013_e2_10","pin",209,1,"related_lure",3,1920,"Include"
"LP2013_e2","LP2013_e2_10","gravel",210,0,"unrelated_lure",1,1265,"Include"
"LP2013_e2","LP2013_e2_10","ship",211,1,"related_lure",2,1195,"Include"
"LP2013_e2","LP2013_e2_10","grate",212,0,"unrelated_lure",4,721,"Include"
"LP2013_e2","LP2013_e2_10","sin",213,1,"target",3,1417,"Include"
"LP2013_e2","LP2013_e2_10","his",214,1,"related_lure",1,1664,"Include"
"LP2013_e2","LP2013_e2_10","nicks",215,1,"target",4,904,"Include"
"LP2013_e2","LP2013_e2_10","choosy",216,1,"target",4,826,"Include"
"LP2013_e2","LP2013_e2_10","spiny",217,1,"related_lure",3,987,"Include"
"LP2013_e2","LP2013_e2_10","mono",218,1,"related_lure",2,1686,"Include"
"LP2013_e2","LP2013_e2_10","cup",219,1,"related_lure",1,1232,"Include"
"LP2013_e2","LP2013_e2_10","cuckoo",220,1,"target",4,839,"Include"
"LP2013_e2","LP2013_e2_10","bade",221,0,"unrelated_lure",1,862,"Include"
"LP2013_e2","LP2013_e2_10","raw",222,0,"unrelated_lure",1,729,"Include"
"LP2013_e2","LP2013_e2_10","exert",223,0,"unrelated_lure",1,957,"Include"
"LP2013_e2","LP2013_e2_10","bleat",224,0,"unrelated_lure",2,1235,"Include"
"LP2013_e2","LP2013_e2_10","welt",225,0,"unrelated_lure",4,678,"Include"
"LP2013_e2","LP2013_e2_10","kick",226,1,"target",4,720,"Include"
"LP2013_e2","LP2013_e2_10","opus",227,1,"related_lure",2,1589,"Include"
"LP2013_e2","LP2013_e2_10","scoop",228,1,"target",4,776,"Include"
"LP2013_e2","LP2013_e2_10","pomp",229,1,"target",4,640,"Include"
"LP2013_e2","LP2013_e2_10","nosh",230,1,"target",4,1240,"Include"
"LP2013_e2","LP2013_e2_10","agree",231,0,"unrelated_lure",2,888,"Include"
"LP2013_e2","LP2013_e2_10","mission",232,1,"related_lure",3,1144,"Include"
"LP2013_e2","LP2013_e2_10","punk",233,1,"target",4,960,"Include"
"LP2013_e2","LP2013_e2_10","chomp",234,1,"target",4,1058,"Include"
"LP2013_e2","LP2013_e2_10","glade",235,0,"unrelated_lure",4,847,"Include"
"LP2013_e2","LP2013_e2_10","hocus",236,1,"related_lure",2,1159,"Include"
"LP2013_e2","LP2013_e2_10","homy",237,1,"target",4,971,"Include"
"LP2013_e2","LP2013_e2_10","sunk",238,1,"target",4,931,"Include"
"LP2013_e2","LP2013_e2_10","musk",239,1,"target",4,744,"Include"
"LP2013_e2","LP2013_e2_10","cumin",240,1,"target",4,781,"Include"
"LP2013_e2","LP2013_e2_10","lag",241,0,"unrelated_lure",1,794,"Include"
"LP2013_e2","LP2013_e2_10","soup",242,1,"target",3,1104,"Include"
"LP2013_e2","LP2013_e2_10","chin",243,1,"related_lure",4,648,"Include"
"LP2013_e2","LP2013_e2_10","ear",244,0,"unrelated_lure",1,711,"Include"
"LP2013_e2","LP2013_e2_10","opium",245,1,"related_lure",4,922,"Include"
"LP2013_e2","LP2013_e2_10","sum",246,1,"target",3,971,"Include"
"LP2013_e2","LP2013_e2_10","husk",247,1,"target",4,765,"Include"
"LP2013_e2","LP2013_e2_10","much",248,1,"related_lure",3,1160,"Include"
"LP2013_e2","LP2013_e2_10","bred",249,0,"unrelated_lure",2,1105,"Include"
"LP2013_e2","LP2013_e2_10","spunk",250,1,"related_lure",3,2067,"Include"
"LP2013_e2","LP2013_e2_10","unison",251,1,"related_lure",1,1596,"Include"
"LP2013_e2","LP2013_e2_10","tree",252,0,"unrelated_lure",3,1443,"Include"
"LP2013_e2","LP2013_e2_10","shimmy",253,1,"target",4,1193,"Include"
"LP2013_e2","LP2013_e2_10","bare",254,0,"unrelated_lure",4,734,"Include"
"LP2013_e2","LP2013_e2_10","con",255,1,"related_lure",2,2049,"Include"
"LP2013_e2","LP2013_e2_10","coup",256,1,"related_lure",4,1206,"Include"
"LP2013_e2","LP2013_e2_10","non",257,1,"target",3,2589,"Include"
"LP2013_e2","LP2013_e2_10","kimono",258,1,"target",4,899,"Include"
"LP2013_e2","LP2013_e2_10","mummy",259,1,"related_lure",2,1363,"Include"
"LP2013_e2","LP2013_e2_10","drew",260,0,"unrelated_lure",1,979,"Include"
"LP2013_e2","LP2013_e2_10","raze",261,0,"unrelated_lure",4,1028,"Include"
"LP2013_e2","LP2013_e2_10","shook",262,1,"target",4,922,"Include"
"LP2013_e2","LP2013_e2_10","badge",263,0,"unrelated_lure",1,1066,"Include"
"LP2013_e2","LP2013_e2_10","kin",264,1,"target",4,1016,"Include"
"LP2013_e2","LP2013_e2_10","mink",265,1,"related_lure",4,938,"Include"
"LP2013_e2","LP2013_e2_10","beaver",266,0,"unrelated_lure",1,851,"Include"
"LP2013_e2","LP2013_e2_10","icy",267,1,"related_lure",2,1052,"Include"
"LP2013_e2","LP2013_e2_10","poison",268,1,"related_lure",2,2186,"Include"
"LP2013_e2","LP2013_e2_10","java",269,0,"unrelated_lure",1,821,"Include"
"LP2013_e2","LP2013_e2_10","cook",270,1,"target",4,875,"Include"
"LP2013_e2","LP2013_e2_10","spin",271,1,"related_lure",1,863,"Include"
"LP2013_e2","LP2013_e2_10","gaze",272,0,"unrelated_lure",1,717,"Include"
"LP2013_e2","LP2013_e2_10","ouch",273,1,"related_lure",1,749,"Include"
"LP2013_e2","LP2013_e2_10","wade",274,0,"unrelated_lure",1,757,"Include"
"LP2013_e2","LP2013_e2_10","huff",275,1,"target",4,566,"Include"
"LP2013_e2","LP2013_e2_10","kiss",276,1,"target",4,515,"Include"
"LP2013_e2","LP2013_e2_10","brave",277,0,"unrelated_lure",1,803,"Include"
"LP2013_e2","LP2013_e2_10","miss",278,1,"related_lure",2,1474,"Include"
"LP2013_e2","LP2013_e2_10","chip",279,1,"target",4,544,"Include"
"LP2013_e2","LP2013_e2_10","mumps",280,1,"related_lure",1,1731,"Include"
"LP2013_e2","LP2013_e2_10","badger",281,0,"unrelated_lure",1,885,"Include"
"LP2013_e2","LP2013_e2_10","sip",282,1,"related_lure",4,737,"Include"
"LP2013_e2","LP2013_e2_10","blazer",283,0,"unrelated_lure",1,726,"Include"
"LP2013_e2","LP2013_e2_10","muck",284,1,"target",4,1144,"Include"
"LP2013_e2","LP2013_e2_10","warble",285,0,"unrelated_lure",1,984,"Include"
"LP2013_e2","LP2013_e2_10","sink",286,1,"related_lure",4,595,"Include"
"LP2013_e2","LP2013_e2_10","smoky",287,1,"target",4,1146,"Include"
"LP2013_e2","LP2013_e2_10","spick",288,1,"related_lure",1,756,"Include"
"LP2013_e2","LP2013_e2_10","sop",289,1,"related_lure",1,913,"Include"
"LP2013_e2","LP2013_e2_10","snip",290,1,"related_lure",1,909,"Include"
"LP2013_e2","LP2013_e2_10","dear",291,0,"unrelated_lure",1,792,"Include"
"LP2013_e2","LP2013_e2_10","pouf",292,1,"related_lure",1,882,"Include"
"LP2013_e2","LP2013_e2_10","phony",293,1,"related_lure",4,647,"Include"
"LP2013_e2","LP2013_e2_10","drawl",294,0,"unrelated_lure",1,879,"Include"
"LP2013_e2","LP2013_e2_10","shoo",295,1,"target",4,691,"Include"
"LP2013_e2","LP2013_e2_10","vex",296,0,"unrelated_lure",1,661,"Include"
"LP2013_e2","LP2013_e2_10","bar",297,0,"unrelated_lure",1,944,"Include"
"LP2013_e2","LP2013_e2_10","poncho",298,1,"target",4,1264,"Include"
"LP2013_e2","LP2013_e2_10","let",299,0,"unrelated_lure",4,868,"Include"
"LP2013_e2","LP2013_e2_10","ink",300,1,"related_lure",1,724,"Include"
"LP2013_e2","LP2013_e2_10","punch",301,1,"target",4,759,"Include"
"LP2013_e2","LP2013_e2_10","sun",302,1,"related_lure",4,1215,"Include"
"LP2013_e2","LP2013_e2_10","fin",303,1,"related_lure",1,776,"Include"
"LP2013_e2","LP2013_e2_10","tread",304,0,"unrelated_lure",1,1377,"Include"
"LP2013_e2","LP2013_e2_10","cuff",305,1,"target",4,884,"Include"
"LP2013_e2","LP2013_e2_10","lead",306,0,"unrelated_lure",3,1000,"Include"
"LP2013_e2","LP2013_e2_10","earl",307,0,"unrelated_lure",1,804,"Include"
"LP2013_e2","LP2013_e2_10","relax",308,0,"unrelated_lure",1,852,"Include"
"LP2013_e2","LP2013_e2_10","noisy",309,1,"related_lure",4,644,"Include"
"LP2013_e2","LP2013_e2_10","jet",310,0,"unrelated_lure",1,652,"Include"
"LP2013_e2","LP2013_e2_10","wear",311,0,"unrelated_lure",1,968,"Include"
"LP2013_e2","LP2013_e2_10","ravel",312,0,"unrelated_lure",1,606,"Include"
"LP2013_e2","LP2013_e2_10","gala",313,0,"unrelated_lure",1,867,"Include"
"LP2013_e2","LP2013_e2_10","moon",314,1,"target",4,666,"Include"
"LP2013_e2","LP2013_e2_10","fumy",315,1,"related_lure",1,1020,"Include"
"LP2013_e2","LP2013_e2_10","hon",316,1,"target",4,934,"Include"
"LP2013_e2","LP2013_e2_10","piss",317,1,"related_lure",1,760,"Include"
"LP2013_e2","LP2013_e2_10","law",318,0,"unrelated_lure",1,1012,"Include"
"LP2013_e2","LP2013_e2_10","beg",319,0,"unrelated_lure",4,875,"Include"
"LP2013_e2","LP2013_e2_10","muss",320,1,"related_lure",4,538,"Include"
"LP2013_e2","LP2013_e2_10","kip",321,1,"target",3,679,"Include"
"LP2013_e2","LP2013_e2_10","spoof",322,1,"related_lure",4,853,"Include"
"LP2013_e2","LP2013_e2_10","hoofs",323,1,"target",1,812,"Include"
"LP2013_e2","LP2013_e2_10","skinny",324,1,"related_lure",4,541,"Include"
"LP2013_e2","LP2013_e2_10","quip",325,1,"target",4,670,"Include"
"LP2013_e2","LP2013_e2_10","area",326,0,"unrelated_lure",1,555,"Include"
"LP2013_e2","LP2013_e2_10","mum",327,1,"target",4,682,"Include"
"LP2013_e2","LP2013_e2_10","tax",328,0,"unrelated_lure",1,677,"Include"
"LP2013_e2","LP2013_e2_10","pup",329,1,"target",4,601,"Include"
"LP2013_e2","LP2013_e2_10","nosy",330,1,"target",4,675,"Include"
"LP2013_e2","LP2013_e2_10","puny",331,1,"target",1,923,"Include"
"LP2013_e2","LP2013_e2_10","coo",332,1,"related_lure",1,1255,"Include"
"LP2013_e2","LP2013_e2_10","coin",333,1,"related_lure",4,783,"Include"
"LP2013_e2","LP2013_e2_10","chump",334,1,"target",4,739,"Include"
"LP2013_e2","LP2013_e2_10","ware",335,0,"unrelated_lure",4,740,"Include"
"LP2013_e2","LP2013_e2_10","waltz",336,0,"unrelated_lure",1,663,"Include"
"LP2013_e2","LP2013_e2_10","cushion",337,1,"target",4,1881,"Include"
"LP2013_e2","LP2013_e2_10","myopic",338,1,"target",4,3869,"Include"
"LP2013_e2","LP2013_e2_10","nun",339,1,"target",4,571,"Include"
"LP2013_e2","LP2013_e2_10","pip",340,1,"related_lure",1,917,"Include"
"LP2013_e2","LP2013_e2_10","cosmic",341,1,"related_lure",4,774,"Include"
"LP2013_e2","LP2013_e2_10","coop",342,1,"related_lure",1,718,"Include"
"LP2013_e2","LP2013_e2_10","hymn",343,1,"related_lure",1,719,"Include"
"LP2013_e2","LP2013_e2_10","finch",344,1,"target",4,664,"Include"
"LP2013_e2","LP2013_e2_10","pons",345,1,"target",4,886,"Include"
"LP2013_e2","LP2013_e2_10","mooch",346,1,"target",4,799,"Include"
"LP2013_e2","LP2013_e2_10","honk",347,1,"related_lure",1,874,"Include"
"LP2013_e2","LP2013_e2_10","sunny",348,1,"target",4,669,"Include"
"LP2013_e2","LP2013_e2_10","finish",349,1,"related_lure",1,882,"Include"
"LP2013_e2","LP2013_e2_10","pinon",350,1,"target",4,758,"Include"
"LP2013_e2","LP2013_e2_10","elder",351,0,"unrelated_lure",1,618,"Include"
"LP2013_e2","LP2013_e2_10","shuck",352,1,"target",4,645,"Include"
"LP2013_e2","LP2013_e2_10","blew",353,0,"unrelated_lure",1,494,"Include"
"LP2013_e2","LP2013_e2_10","data",354,0,"unrelated_lure",4,704,"Include"
"LP2013_e2","LP2013_e2_10","glare",355,0,"unrelated_lure",1,462,"Include"
"LP2013_e2","LP2013_e2_10","wedge",356,0,"unrelated_lure",1,693,"Include"
"LP2013_e2","LP2013_e2_10","ominous",357,1,"related_lure",4,787,"Include"
"LP2013_e2","LP2013_e2_10","hips",358,1,"target",3,1018,"Include"
"LP2013_e2","LP2013_e2_10","upon",359,1,"related_lure",1,644,"Include"
"LP2013_e2","LP2013_e2_10","scuff",360,1,"target",4,587,"Include"
"LP2013_e2","LP2013_e2_11","cup",0,0,"not_tested",99,0,"Exclude"
"LP2013_e2","LP2013_e2_11","icy",0,0,"not_tested",99,0,"Exclude"
"LP2013_e2","LP2013_e2_11","mop",0,0,"not_tested",99,0,"Exclude"
"LP2013_e2","LP2013_e2_11","pun",0,0,"not_tested",99,0,"Exclude"
"LP2013_e2","LP2013_e2_11","sin",0,0,"not_tested",99,0,"Exclude"
"LP2013_e2","LP2013_e2_11","son",0,0,"not_tested",99,0,"Exclude"
"LP2013_e2","LP2013_e2_11","chin",0,0,"not_tested",99,0,"Exclude"
"LP2013_e2","LP2013_e2_11","coup",0,0,"not_tested",99,0,"Exclude"
"LP2013_e2","LP2013_e2_11","fish",0,0,"not_tested",99,0,"Exclude"
"LP2013_e2","LP2013_e2_11","hick",0,0,"not_tested",99,0,"Exclude"
"LP2013_e2","LP2013_e2_11","homy",0,0,"not_tested",99,0,"Exclude"
"LP2013_e2","LP2013_e2_11","husk",0,0,"not_tested",99,0,"Exclude"
"LP2013_e2","LP2013_e2_11","much",0,0,"not_tested",99,0,"Exclude"
"LP2013_e2","LP2013_e2_11","musk",0,0,"not_tested",99,0,"Exclude"
"LP2013_e2","LP2013_e2_11","posy",0,0,"not_tested",99,0,"Exclude"
"LP2013_e2","LP2013_e2_11","punk",0,0,"not_tested",99,0,"Exclude"
"LP2013_e2","LP2013_e2_11","quin",0,0,"not_tested",99,0,"Exclude"
"LP2013_e2","LP2013_e2_11","ship",0,0,"not_tested",99,0,"Exclude"
"LP2013_e2","LP2013_e2_11","soup",0,0,"not_tested",99,0,"Exclude"
"LP2013_e2","LP2013_e2_11","sunk",0,0,"not_tested",99,0,"Exclude"
"LP2013_e2","LP2013_e2_11","chomp",0,0,"not_tested",99,0,"Exclude"
"LP2013_e2","LP2013_e2_11","cumin",0,0,"not_tested",99,0,"Exclude"
"LP2013_e2","LP2013_e2_11","minus",0,0,"not_tested",99,0,"Exclude"
"LP2013_e2","LP2013_e2_11","opium",0,0,"not_tested",99,0,"Exclude"
"LP2013_e2","LP2013_e2_11","pouch",0,0,"not_tested",99,0,"Exclude"
"LP2013_e2","LP2013_e2_11","scoop",0,0,"not_tested",99,0,"Exclude"
"LP2013_e2","LP2013_e2_11","spiny",0,0,"not_tested",99,0,"Exclude"
"LP2013_e2","LP2013_e2_11","spunk",0,0,"not_tested",99,0,"Exclude"
"LP2013_e2","LP2013_e2_11","kimono",0,0,"not_tested",99,0,"Exclude"
"LP2013_e2","LP2013_e2_11","mission",0,0,"not_tested",99,0,"Exclude"
"LP2013_e2","LP2013_e2_11","coo",0,0,"not_tested",99,0,"Exclude"
"LP2013_e2","LP2013_e2_11","fin",0,0,"not_tested",99,0,"Exclude"
"LP2013_e2","LP2013_e2_11","ink",0,0,"not_tested",99,0,"Exclude"
"LP2013_e2","LP2013_e2_11","mum",0,0,"not_tested",99,0,"Exclude"
"LP2013_e2","LP2013_e2_11","nun",0,0,"not_tested",99,0,"Exclude"
"LP2013_e2","LP2013_e2_11","pip",0,0,"not_tested",99,0,"Exclude"
"LP2013_e2","LP2013_e2_11","pup",0,0,"not_tested",99,0,"Exclude"
"LP2013_e2","LP2013_e2_11","sun",0,0,"not_tested",99,0,"Exclude"
"LP2013_e2","LP2013_e2_11","chip",0,0,"not_tested",99,0,"Exclude"
"LP2013_e2","LP2013_e2_11","coin",0,0,"not_tested",99,0,"Exclude"
"LP2013_e2","LP2013_e2_11","coop",0,0,"not_tested",99,0,"Exclude"
"LP2013_e2","LP2013_e2_11","fumy",0,0,"not_tested",99,0,"Exclude"
"LP2013_e2","LP2013_e2_11","honk",0,0,"not_tested",99,0,"Exclude"
"LP2013_e2","LP2013_e2_11","hymn",0,0,"not_tested",99,0,"Exclude"
"LP2013_e2","LP2013_e2_11","kiss",0,0,"not_tested",99,0,"Exclude"
"LP2013_e2","LP2013_e2_11","nosy",0,0,"not_tested",99,0,"Exclude"
"LP2013_e2","LP2013_e2_11","puny",0,0,"not_tested",99,0,"Exclude"
"LP2013_e2","LP2013_e2_11","snip",0,0,"not_tested",99,0,"Exclude"
"LP2013_e2","LP2013_e2_11","upon",0,0,"not_tested",99,0,"Exclude"
"LP2013_e2","LP2013_e2_11","finch",0,0,"not_tested",99,0,"Exclude"
"LP2013_e2","LP2013_e2_11","mumps",0,0,"not_tested",99,0,"Exclude"
"LP2013_e2","LP2013_e2_11","noisy",0,0,"not_tested",99,0,"Exclude"
"LP2013_e2","LP2013_e2_11","scuff",0,0,"not_tested",99,0,"Exclude"
"LP2013_e2","LP2013_e2_11","shuck",0,0,"not_tested",99,0,"Exclude"
"LP2013_e2","LP2013_e2_11","spick",0,0,"not_tested",99,0,"Exclude"
"LP2013_e2","LP2013_e2_11","spoof",0,0,"not_tested",99,0,"Exclude"
"LP2013_e2","LP2013_e2_11","cosmic",0,0,"not_tested",99,0,"Exclude"
"LP2013_e2","LP2013_e2_11","finish",0,0,"not_tested",99,0,"Exclude"
"LP2013_e2","LP2013_e2_11","skinny",0,0,"not_tested",99,0,"Exclude"
"LP2013_e2","LP2013_e2_11","ominous",0,0,"not_tested",99,0,"Exclude"
"LP2013_e2","LP2013_e2_11","fun",0,0,"not_tested",99,0,"Exclude"
"LP2013_e2","LP2013_e2_11","hop",0,0,"not_tested",99,0,"Exclude"
"LP2013_e2","LP2013_e2_11","inn",0,0,"not_tested",99,0,"Exclude"
"LP2013_e2","LP2013_e2_11","nip",0,0,"not_tested",99,0,"Exclude"
"LP2013_e2","LP2013_e2_11","off",0,0,"not_tested",99,0,"Exclude"
"LP2013_e2","LP2013_e2_11","shy",0,0,"not_tested",99,0,"Exclude"
"LP2013_e2","LP2013_e2_11","cusp",0,0,"not_tested",99,0,"Exclude"
"LP2013_e2","LP2013_e2_11","funk",0,0,"not_tested",99,0,"Exclude"
"LP2013_e2","LP2013_e2_11","mopy",0,0,"not_tested",99,0,"Exclude"
"LP2013_e2","LP2013_e2_11","nook",0,0,"not_tested",99,0,"Exclude"
"LP2013_e2","LP2013_e2_11","pock",0,0,"not_tested",99,0,"Exclude"
"LP2013_e2","LP2013_e2_11","puck",0,0,"not_tested",99,0,"Exclude"
"LP2013_e2","LP2013_e2_11","shop",0,0,"not_tested",99,0,"Exclude"
"LP2013_e2","LP2013_e2_11","skim",0,0,"not_tested",99,0,"Exclude"
"LP2013_e2","LP2013_e2_11","sock",0,0,"not_tested",99,0,"Exclude"
"LP2013_e2","LP2013_e2_11","chick",0,0,"not_tested",99,0,"Exclude"
"LP2013_e2","LP2013_e2_11","chunk",0,0,"not_tested",99,0,"Exclude"
"LP2013_e2","LP2013_e2_11","mousy",0,0,"not_tested",99,0,"Exclude"
"LP2013_e2","LP2013_e2_11","munch",0,0,"not_tested",99,0,"Exclude"
"LP2013_e2","LP2013_e2_11","nymph",0,0,"not_tested",99,0,"Exclude"
"LP2013_e2","LP2013_e2_11","quick",0,0,"not_tested",99,0,"Exclude"
"LP2013_e2","LP2013_e2_11","shiny",0,0,"not_tested",99,0,"Exclude"
"LP2013_e2","LP2013_e2_11","spicy",0,0,"not_tested",99,0,"Exclude"
"LP2013_e2","LP2013_e2_11","spook",0,0,"not_tested",99,0,"Exclude"
"LP2013_e2","LP2013_e2_11","unify",0,0,"not_tested",99,0,"Exclude"
"LP2013_e2","LP2013_e2_11","fusion",0,0,"not_tested",99,0,"Exclude"
"LP2013_e2","LP2013_e2_11","ossify",0,0,"not_tested",99,0,"Exclude"
"LP2013_e2","LP2013_e2_11","punish",0,0,"not_tested",99,0,"Exclude"
"LP2013_e2","LP2013_e2_11","smooch",0,0,"not_tested",99,0,"Exclude"
"LP2013_e2","LP2013_e2_11","possum",0,0,"not_tested",99,0,"Exclude"
"LP2013_e2","LP2013_e2_11","coy",0,0,"not_tested",99,0,"Exclude"
"LP2013_e2","LP2013_e2_11","hum",0,0,"not_tested",99,0,"Exclude"
"LP2013_e2","LP2013_e2_11","ion",0,0,"not_tested",99,0,"Exclude"
"LP2013_e2","LP2013_e2_11","moo",0,0,"not_tested",99,0,"Exclude"
"LP2013_e2","LP2013_e2_11","sic",0,0,"not_tested",99,0,"Exclude"
"LP2013_e2","LP2013_e2_11","cony",0,0,"not_tested",99,0,"Exclude"
"LP2013_e2","LP2013_e2_11","hock",0,0,"not_tested",99,0,"Exclude"
"LP2013_e2","LP2013_e2_11","hoop",0,0,"not_tested",99,0,"Exclude"
"LP2013_e2","LP2013_e2_11","hunk",0,0,"not_tested",99,0,"Exclude"
"LP2013_e2","LP2013_e2_11","miff",0,0,"not_tested",99,0,"Exclude"
"LP2013_e2","LP2013_e2_11","moss",0,0,"not_tested",99,0,"Exclude"
"LP2013_e2","LP2013_e2_11","mush",0,0,"not_tested",99,0,"Exclude"
"LP2013_e2","LP2013_e2_11","onus",0,0,"not_tested",99,0,"Exclude"
"LP2013_e2","LP2013_e2_11","pink",0,0,"not_tested",99,0,"Exclude"
"LP2013_e2","LP2013_e2_11","poky",0,0,"not_tested",99,0,"Exclude"
"LP2013_e2","LP2013_e2_11","puff",0,0,"not_tested",99,0,"Exclude"
"LP2013_e2","LP2013_e2_11","shin",0,0,"not_tested",99,0,"Exclude"
"LP2013_e2","LP2013_e2_11","chimp",0,0,"not_tested",99,0,"Exclude"
"LP2013_e2","LP2013_e2_11","comfy",0,0,"not_tested",99,0,"Exclude"
"LP2013_e2","LP2013_e2_11","mucus",0,0,"not_tested",99,0,"Exclude"
"LP2013_e2","LP2013_e2_11","oomph",0,0,"not_tested",99,0,"Exclude"
"LP2013_e2","LP2013_e2_11","shock",0,0,"not_tested",99,0,"Exclude"
"LP2013_e2","LP2013_e2_11","skunk",0,0,"not_tested",99,0,"Exclude"
"LP2013_e2","LP2013_e2_11","snuff",0,0,"not_tested",99,0,"Exclude"
"LP2013_e2","LP2013_e2_11","spiky",0,0,"not_tested",99,0,"Exclude"
"LP2013_e2","LP2013_e2_11","spoon",0,0,"not_tested",99,0,"Exclude"
"LP2013_e2","LP2013_e2_11","union",0,0,"not_tested",99,0,"Exclude"
"LP2013_e2","LP2013_e2_11","impish",0,0,"not_tested",99,0,"Exclude"
"LP2013_e2","LP2013_e2_11","schism",0,0,"not_tested",99,0,"Exclude"
"LP2013_e2","LP2013_e2_11","minimum",0,0,"not_tested",99,0,"Exclude"
"LP2013_e2","LP2013_e2_11","him",1,0,"unrelated_lure",1,822,"Include"
"LP2013_e2","LP2013_e2_11","summon",2,0,"unrelated_lure",1,1765,"Include"
"LP2013_e2","LP2013_e2_11","inch",3,0,"unrelated_lure",1,1352,"Include"
"LP2013_e2","LP2013_e2_11","tear",4,1,"related_lure",3,1820,"Include"
"LP2013_e2","LP2013_e2_11","you",5,0,"unrelated_lure",2,2028,"Include"
"LP2013_e2","LP2013_e2_11","reed",6,1,"target",4,967,"Include"
"LP2013_e2","LP2013_e2_11","led",7,1,"related_lure",3,1000,"Include"
"LP2013_e2","LP2013_e2_11","soon",8,0,"unrelated_lure",2,1205,"Include"
"LP2013_e2","LP2013_e2_11","funny",9,0,"unrelated_lure",2,3820,"Include"
"LP2013_e2","LP2013_e2_11","daze",10,1,"related_lure",1,1831,"Include"
"LP2013_e2","LP2013_e2_11","edge",11,1,"target",4,878,"Include"
"LP2013_e2","LP2013_e2_11","beat",12,1,"related_lure",3,950,"Include"
"LP2013_e2","LP2013_e2_11","war",13,1,"target",4,956,"Include"
"LP2013_e2","LP2013_e2_11","draw",14,1,"target",4,1329,"Include"
"LP2013_e2","LP2013_e2_11","physic",15,0,"unrelated_lure",1,1075,"Include"
"LP2013_e2","LP2013_e2_11","tee",16,1,"target",4,1035,"Include"
"LP2013_e2","LP2013_e2_11","lad",17,1,"related_lure",3,1408,"Include"
"LP2013_e2","LP2013_e2_11","scion",18,0,"unrelated_lure",1,1560,"Include"
"LP2013_e2","LP2013_e2_11","lava",19,1,"related_lure",2,1146,"Include"
"LP2013_e2","LP2013_e2_11","delve",20,1,"target",3,1638,"Include"
"LP2013_e2","LP2013_e2_11","skin",21,0,"unrelated_lure",2,1006,"Include"
"LP2013_e2","LP2013_e2_11","exalt",22,1,"target",3,817,"Include"
"LP2013_e2","LP2013_e2_11","weld",23,1,"target",3,1022,"Include"
"LP2013_e2","LP2013_e2_11","veer",24,1,"related_lure",2,847,"Include"
"LP2013_e2","LP2013_e2_11","great",25,1,"related_lure",3,1013,"Include"
"LP2013_e2","LP2013_e2_11","phi",26,0,"unrelated_lure",3,921,"Include"
"LP2013_e2","LP2013_e2_11","rave",27,1,"related_lure",2,889,"Include"
"LP2013_e2","LP2013_e2_11","cosy",28,0,"unrelated_lure",2,976,"Include"
"LP2013_e2","LP2013_e2_11","cousin",29,0,"unrelated_lure",1,977,"Include"
"LP2013_e2","LP2013_e2_11","rebel",30,1,"related_lure",1,1091,"Include"
"LP2013_e2","LP2013_e2_11","beta",31,1,"related_lure",1,878,"Include"
"LP2013_e2","LP2013_e2_11","algae",32,1,"target",4,798,"Include"
"LP2013_e2","LP2013_e2_11","blare",33,1,"target",4,734,"Include"
"LP2013_e2","LP2013_e2_11","nom",34,0,"unrelated_lure",1,1630,"Include"
"LP2013_e2","LP2013_e2_11","bard",35,1,"target",1,979,"Include"
"LP2013_e2","LP2013_e2_11","verbal",36,1,"target",4,1439,"Include"
"LP2013_e2","LP2013_e2_11","posh",37,0,"unrelated_lure",2,1544,"Include"
"LP2013_e2","LP2013_e2_11","waver",38,1,"target",4,934,"Include"
"LP2013_e2","LP2013_e2_11","ledge",39,1,"target",4,677,"Include"
"LP2013_e2","LP2013_e2_11","wale",40,1,"related_lure",3,716,"Include"
"LP2013_e2","LP2013_e2_11","mimic",41,0,"unrelated_lure",1,1467,"Include"
"LP2013_e2","LP2013_e2_11","pinky",42,0,"unrelated_lure",1,858,"Include"
"LP2013_e2","LP2013_e2_11","sky",43,0,"unrelated_lure",1,862,"Include"
"LP2013_e2","LP2013_e2_11","aware",44,1,"target",3,1070,"Include"
"LP2013_e2","LP2013_e2_11","music",45,0,"unrelated_lure",3,1041,"Include"
"LP2013_e2","LP2013_e2_11","shun",46,0,"unrelated_lure",2,1293,"Include"
"LP2013_e2","LP2013_e2_11","gavel",47,1,"target",4,826,"Include"
"LP2013_e2","LP2013_e2_11","bad",48,1,"related_lure",3,934,"Include"
"LP2013_e2","LP2013_e2_11","deer",49,1,"related_lure",1,1375,"Include"
"LP2013_e2","LP2013_e2_11","axle",50,1,"target",4,705,"Include"
"LP2013_e2","LP2013_e2_11","dare",51,1,"target",4,810,"Include"
"LP2013_e2","LP2013_e2_11","psychic",52,0,"unrelated_lure",1,894,"Include"
"LP2013_e2","LP2013_e2_11","brat",53,1,"related_lure",1,1976,"Include"
"LP2013_e2","LP2013_e2_11","wave",54,1,"target",4,760,"Include"
"LP2013_e2","LP2013_e2_11","poppy",55,0,"unrelated_lure",1,737,"Include"
"LP2013_e2","LP2013_e2_11","cuss",56,0,"unrelated_lure",1,659,"Include"
"LP2013_e2","LP2013_e2_11","large",57,1,"related_lure",1,821,"Include"
"LP2013_e2","LP2013_e2_11","pop",58,0,"unrelated_lure",1,994,"Include"
"LP2013_e2","LP2013_e2_11","suck",59,0,"unrelated_lure",3,1458,"Include"
"LP2013_e2","LP2013_e2_11","average",60,1,"target",2,1170,"Include"
"LP2013_e2","LP2013_e2_11","garble",61,1,"related_lure",4,801,"Include"
"LP2013_e2","LP2013_e2_11","era",62,1,"target",4,881,"Include"
"LP2013_e2","LP2013_e2_11","grade",63,1,"target",4,711,"Include"
"LP2013_e2","LP2013_e2_11","monk",64,0,"unrelated_lure",2,1182,"Include"
"LP2013_e2","LP2013_e2_11","adverb",65,1,"target",4,643,"Include"
"LP2013_e2","LP2013_e2_11","jar",66,1,"related_lure",4,713,"Include"
"LP2013_e2","LP2013_e2_11","valet",67,1,"target",3,816,"Include"
"LP2013_e2","LP2013_e2_11","ravage",68,1,"related_lure",4,1088,"Include"
"LP2013_e2","LP2013_e2_11","tag",69,1,"target",4,1092,"Include"
"LP2013_e2","LP2013_e2_11","glad",70,1,"related_lure",4,707,"Include"
"LP2013_e2","LP2013_e2_11","eagle",71,1,"target",4,739,"Include"
"LP2013_e2","LP2013_e2_11","fuss",72,0,"unrelated_lure",3,1053,"Include"
"LP2013_e2","LP2013_e2_11","gab",73,1,"related_lure",3,745,"Include"
"LP2013_e2","LP2013_e2_11","braze",74,1,"related_lure",2,871,"Include"
"LP2013_e2","LP2013_e2_11","chum",75,0,"unrelated_lure",1,1036,"Include"
"LP2013_e2","LP2013_e2_11","beard",76,1,"target",4,740,"Include"
"LP2013_e2","LP2013_e2_11","rat",77,1,"related_lure",3,863,"Include"
"LP2013_e2","LP2013_e2_11","spy",78,0,"unrelated_lure",1,1549,"Include"
"LP2013_e2","LP2013_e2_11","art",79,1,"related_lure",1,938,"Include"
"LP2013_e2","LP2013_e2_11","table",80,1,"target",4,710,"Include"
"LP2013_e2","LP2013_e2_11","puss",81,0,"unrelated_lure",3,1137,"Include"
"LP2013_e2","LP2013_e2_11","noon",82,0,"unrelated_lure",2,989,"Include"
"LP2013_e2","LP2013_e2_11","beagle",83,1,"related_lure",4,887,"Include"
"LP2013_e2","LP2013_e2_11","jade",84,1,"related_lure",3,861,"Include"
"LP2013_e2","LP2013_e2_11","leer",85,1,"related_lure",3,708,"Include"
"LP2013_e2","LP2013_e2_11","bed",86,1,"target",4,632,"Include"
"LP2013_e2","LP2013_e2_11","gate",87,1,"related_lure",2,1004,"Include"
"LP2013_e2","LP2013_e2_11","dew",88,1,"target",4,905,"Include"
"LP2013_e2","LP2013_e2_11","wet",89,1,"related_lure",3,979,"Include"
"LP2013_e2","LP2013_e2_11","zeta",90,1,"related_lure",2,1149,"Include"
"LP2013_e2","LP2013_e2_11","gel",91,1,"target",4,622,"Include"
"LP2013_e2","LP2013_e2_11","mummy",92,0,"unrelated_lure",2,644,"Include"
"LP2013_e2","LP2013_e2_11","drab",93,1,"related_lure",1,749,"Include"
"LP2013_e2","LP2013_e2_11","level",94,1,"target",4,1033,"Include"
"LP2013_e2","LP2013_e2_11","bag",95,1,"related_lure",4,1195,"Include"
"LP2013_e2","LP2013_e2_11","weal",96,1,"related_lure",1,843,"Include"
"LP2013_e2","LP2013_e2_11","advert",97,1,"target",4,577,"Include"
"LP2013_e2","LP2013_e2_11","con",98,0,"unrelated_lure",1,696,"Include"
"LP2013_e2","LP2013_e2_11","gave",99,1,"target",3,1803,"Include"
"LP2013_e2","LP2013_e2_11","ever",100,1,"related_lure",2,655,"Include"
"LP2013_e2","LP2013_e2_11","badge",101,1,"target",4,815,"Include"
"LP2013_e2","LP2013_e2_11","bred",102,1,"target",4,582,"Include"
"LP2013_e2","LP2013_e2_11","cuckoo",103,0,"unrelated_lure",1,849,"Include"
"LP2013_e2","LP2013_e2_11","bee",104,1,"related_lure",4,829,"Include"
"LP2013_e2","LP2013_e2_11","lewd",105,1,"target",4,757,"Include"
"LP2013_e2","LP2013_e2_11","wager",106,1,"target",4,539,"Include"
"LP2013_e2","LP2013_e2_11","java",107,1,"related_lure",3,709,"Include"
"LP2013_e2","LP2013_e2_11","opus",108,0,"unrelated_lure",3,820,"Include"
"LP2013_e2","LP2013_e2_11","vertex",109,1,"related_lure",1,740,"Include"
"LP2013_e2","LP2013_e2_11","coif",110,0,"unrelated_lure",1,624,"Include"
"LP2013_e2","LP2013_e2_11","sonic",111,0,"unrelated_lure",3,1101,"Include"
"LP2013_e2","LP2013_e2_11","wax",112,1,"related_lure",3,841,"Include"
"LP2013_e2","LP2013_e2_11","ear",113,1,"related_lure",3,881,"Include"
"LP2013_e2","LP2013_e2_11","ere",114,1,"related_lure",2,669,"Include"
"LP2013_e2","LP2013_e2_11","reel",115,1,"target",4,639,"Include"
"LP2013_e2","LP2013_e2_11","greed",116,1,"related_lure",4,1023,"Include"
"LP2013_e2","LP2013_e2_11","regal",117,1,"related_lure",3,771,"Include"
"LP2013_e2","LP2013_e2_11","exert",118,1,"target",4,731,"Include"
"LP2013_e2","LP2013_e2_11","bare",119,1,"target",3,535,"Include"
"LP2013_e2","LP2013_e2_11","pomp",120,0,"unrelated_lure",2,859,"Include"
"LP2013_e2","LP2013_e2_11","agree",121,1,"target",4,657,"Include"
"LP2013_e2","LP2013_e2_11","able",122,1,"related_lure",3,629,"Include"
"LP2013_e2","LP2013_e2_11","raw",123,1,"related_lure",4,1015,"Include"
"LP2013_e2","LP2013_e2_11","pin",124,0,"unrelated_lure",2,1070,"Include"
"LP2013_e2","LP2013_e2_11","glee",125,1,"related_lure",2,1021,"Include"
"LP2013_e2","LP2013_e2_11","his",126,0,"unrelated_lure",1,863,"Include"
"LP2013_e2","LP2013_e2_11","ward",127,1,"target",4,1398,"Include"
"LP2013_e2","LP2013_e2_11","pinny",128,0,"unrelated_lure",1,808,"Include"
"LP2013_e2","LP2013_e2_11","shook",129,0,"unrelated_lure",2,709,"Include"
"LP2013_e2","LP2013_e2_11","later",130,1,"target",1,766,"Include"
"LP2013_e2","LP2013_e2_11","non",131,0,"unrelated_lure",4,836,"Include"
"LP2013_e2","LP2013_e2_11","choosy",132,0,"unrelated_lure",1,757,"Include"
"LP2013_e2","LP2013_e2_11","alter",133,1,"target",1,580,"Include"
"LP2013_e2","LP2013_e2_11","beer",134,1,"target",3,1035,"Include"
"LP2013_e2","LP2013_e2_11","age",135,1,"related_lure",4,691,"Include"
"LP2013_e2","LP2013_e2_11","raze",136,1,"related_lure",4,475,"Include"
"LP2013_e2","LP2013_e2_11","weave",137,1,"related_lure",3,871,"Include"
"LP2013_e2","LP2013_e2_11","gravel",138,1,"related_lure",4,806,"Include"
"LP2013_e2","LP2013_e2_11","tree",139,1,"target",4,747,"Include"
"LP2013_e2","LP2013_e2_11","dart",140,1,"target",3,768,"Include"
"LP2013_e2","LP2013_e2_11","bled",141,1,"target",4,651,"Include"
"LP2013_e2","LP2013_e2_11","mono",142,0,"unrelated_lure",1,1090,"Include"
"LP2013_e2","LP2013_e2_11","bread",143,1,"target",4,613,"Include"
"LP2013_e2","LP2013_e2_11","vet",144,1,"related_lure",1,970,"Include"
"LP2013_e2","LP2013_e2_11","nicks",145,0,"unrelated_lure",1,790,"Include"
"LP2013_e2","LP2013_e2_11","sick",146,0,"unrelated_lure",2,1048,"Include"
"LP2013_e2","LP2013_e2_11","piny",147,0,"unrelated_lure",1,1060,"Include"
"LP2013_e2","LP2013_e2_11","glade",148,1,"related_lure",3,1141,"Include"
"LP2013_e2","LP2013_e2_11","verb",149,1,"related_lure",3,1951,"Include"
"LP2013_e2","LP2013_e2_11","deal",150,1,"related_lure",3,852,"Include"
"LP2013_e2","LP2013_e2_11","ate",151,1,"target",4,640,"Include"
"LP2013_e2","LP2013_e2_11","jaw",152,1,"related_lure",3,1109,"Include"
"LP2013_e2","LP2013_e2_11","bleat",153,1,"target",3,834,"Include"
"LP2013_e2","LP2013_e2_11","lag",154,1,"related_lure",4,908,"Include"
"LP2013_e2","LP2013_e2_11","grate",155,1,"target",4,1061,"Include"
"LP2013_e2","LP2013_e2_11","kick",156,0,"unrelated_lure",2,1045,"Include"
"LP2013_e2","LP2013_e2_11","bade",157,1,"target",2,1167,"Include"
"LP2013_e2","LP2013_e2_11","deter",158,1,"target",4,955,"Include"
"LP2013_e2","LP2013_e2_11","cook",159,0,"unrelated_lure",3,891,"Include"
"LP2013_e2","LP2013_e2_11","drew",160,1,"target",4,644,"Include"
"LP2013_e2","LP2013_e2_11","hocus",161,0,"unrelated_lure",1,824,"Include"
"LP2013_e2","LP2013_e2_11","trade",162,1,"target",4,824,"Include"
"LP2013_e2","LP2013_e2_11","laze",163,1,"related_lure",2,782,"Include"
"LP2013_e2","LP2013_e2_11","elate",164,1,"target",3,882,"Include"
"LP2013_e2","LP2013_e2_11","nosh",165,0,"unrelated_lure",2,854,"Include"
"LP2013_e2","LP2013_e2_11","huck",166,0,"unrelated_lure",1,914,"Include"
"LP2013_e2","LP2013_e2_11","beaver",167,1,"related_lure",1,592,"Include"
"LP2013_e2","LP2013_e2_11","kin",168,0,"unrelated_lure",2,662,"Include"
"LP2013_e2","LP2013_e2_11","leg",169,1,"target",4,585,"Include"
"LP2013_e2","LP2013_e2_11","poison",170,0,"unrelated_lure",3,709,"Include"
"LP2013_e2","LP2013_e2_11","skip",171,0,"unrelated_lure",2,617,"Include"
"LP2013_e2","LP2013_e2_11","begat",172,1,"related_lure",1,915,"Include"
"LP2013_e2","LP2013_e2_11","tar",173,1,"related_lure",3,792,"Include"
"LP2013_e2","LP2013_e2_11","welt",174,1,"target",2,606,"Include"
"LP2013_e2","LP2013_e2_11","reveal",175,1,"related_lure",3,780,"Include"
"LP2013_e2","LP2013_e2_11","shimmy",176,0,"unrelated_lure",2,916,"Include"
"LP2013_e2","LP2013_e2_11","unison",177,0,"unrelated_lure",1,572,"Include"
"LP2013_e2","LP2013_e2_11","mink",178,0,"unrelated_lure",3,1020,"Include"
"LP2013_e2","LP2013_e2_11","sum",179,0,"unrelated_lure",2,924,"Include"
"LP2013_e2","LP2013_e2_11","smock",180,0,"unrelated_lure",1,661,"Include"
"LP2013_e2","LP2013_e2_11","cuff",181,0,"unrelated_lure",1,713,"Include"
"LP2013_e2","LP2013_e2_11","ravel",182,1,"related_lure",1,595,"Include"
"LP2013_e2","LP2013_e2_11","hoofs",183,0,"unrelated_lure",2,367,"Include"
"LP2013_e2","LP2013_e2_11","elder",184,1,"related_lure",1,337,"Include"
"LP2013_e2","LP2013_e2_11","rage",185,1,"target",2,480,"Include"
"LP2013_e2","LP2013_e2_11","pons",186,0,"unrelated_lure",1,1126,"Include"
"LP2013_e2","LP2013_e2_11","ouch",187,0,"unrelated_lure",1,594,"Include"
"LP2013_e2","LP2013_e2_11","tzar",188,1,"related_lure",1,949,"Include"
"LP2013_e2","LP2013_e2_11","beg",189,1,"related_lure",3,772,"Include"
"LP2013_e2","LP2013_e2_11","miss",190,0,"unrelated_lure",2,856,"Include"
"LP2013_e2","LP2013_e2_11","ale",191,1,"target",4,503,"Include"
"LP2013_e2","LP2013_e2_11","eat",192,1,"target",3,443,"Include"
"LP2013_e2","LP2013_e2_11","wade",193,1,"related_lure",2,629,"Include"
"LP2013_e2","LP2013_e2_11","greet",194,1,"related_lure",3,1251,"Include"
"LP2013_e2","LP2013_e2_11","let",195,1,"related_lure",3,1159,"Include"
"LP2013_e2","LP2013_e2_11","sunny",196,0,"unrelated_lure",2,1064,"Include"
"LP2013_e2","LP2013_e2_11","brave",197,1,"target",2,939,"Include"
"LP2013_e2","LP2013_e2_11","bree",198,1,"related_lure",2,947,"Include"
"LP2013_e2","LP2013_e2_11","quip",199,0,"unrelated_lure",2,433,"Include"
"LP2013_e2","LP2013_e2_11","lead",200,1,"target",3,887,"Include"
"LP2013_e2","LP2013_e2_11","avert",201,1,"target",3,577,"Include"
"LP2013_e2","LP2013_e2_11","ware",202,1,"related_lure",3,1096,"Include"
"LP2013_e2","LP2013_e2_11","bead",203,1,"related_lure",3,503,"Include"
"LP2013_e2","LP2013_e2_11","read",204,1,"target",3,747,"Include"
"LP2013_e2","LP2013_e2_11","area",205,1,"related_lure",2,419,"Include"
"LP2013_e2","LP2013_e2_11","smoky",206,0,"unrelated_lure",1,1592,"Include"
"LP2013_e2","LP2013_e2_11","get",207,1,"related_lure",4,670,"Include"
"LP2013_e2","LP2013_e2_11","bald",208,1,"target",3,527,"Include"
"LP2013_e2","LP2013_e2_11","gaze",209,1,"related_lure",4,811,"Include"
"LP2013_e2","LP2013_e2_11","warble",210,1,"related_lure",3,413,"Include"
"LP2013_e2","LP2013_e2_11","dear",211,1,"target",3,754,"Include"
"LP2013_e2","LP2013_e2_11","beret",212,1,"target",2,1178,"Include"
"LP2013_e2","LP2013_e2_11","poncho",213,0,"unrelated_lure",2,879,"Include"
"LP2013_e2","LP2013_e2_11","sink",214,0,"unrelated_lure",3,1054,"Include"
"LP2013_e2","LP2013_e2_11","awe",215,1,"target",4,721,"Include"
"LP2013_e2","LP2013_e2_11","muss",216,0,"unrelated_lure",2,1080,"Include"
"LP2013_e2","LP2013_e2_11","waltz",217,1,"related_lure",2,788,"Include"
"LP2013_e2","LP2013_e2_11","law",218,1,"related_lure",2,976,"Include"
"LP2013_e2","LP2013_e2_11","tale",219,1,"target",3,825,"Include"
"LP2013_e2","LP2013_e2_11","shoo",220,0,"unrelated_lure",2,662,"Include"
"LP2013_e2","LP2013_e2_11","hips",221,0,"unrelated_lure",2,381,"Include"
"LP2013_e2","LP2013_e2_11","spin",222,0,"unrelated_lure",3,721,"Include"
"LP2013_e2","LP2013_e2_11","glare",223,1,"target",3,712,"Include"
"LP2013_e2","LP2013_e2_11","kip",224,0,"unrelated_lure",3,434,"Include"
"LP2013_e2","LP2013_e2_11","bar",225,1,"related_lure",3,556,"Include"
"LP2013_e2","LP2013_e2_11","relax",226,1,"target",2,464,"Include"
"LP2013_e2","LP2013_e2_11","were",227,1,"target",2,569,"Include"
"LP2013_e2","LP2013_e2_11","travel",228,1,"related_lure",3,810,"Include"
"LP2013_e2","LP2013_e2_11","red",229,1,"target",3,1000,"Include"
"LP2013_e2","LP2013_e2_11","blazer",230,1,"target",4,906,"Include"
"LP2013_e2","LP2013_e2_11","pouf",231,0,"unrelated_lure",1,740,"Include"
"LP2013_e2","LP2013_e2_11","cushion",232,0,"unrelated_lure",2,1464,"Include"
"LP2013_e2","LP2013_e2_11","bagel",233,1,"related_lure",3,805,"Include"
"LP2013_e2","LP2013_e2_11","myopic",234,0,"unrelated_lure",1,742,"Include"
"LP2013_e2","LP2013_e2_11","eve",235,1,"related_lure",2,979,"Include"
"LP2013_e2","LP2013_e2_11","mooch",236,0,"unrelated_lure",1,763,"Include"
"LP2013_e2","LP2013_e2_11","larvae",237,1,"related_lure",1,940,"Include"
"LP2013_e2","LP2013_e2_11","web",238,1,"related_lure",2,776,"Include"
"LP2013_e2","LP2013_e2_11","tread",239,1,"target",3,801,"Include"
"LP2013_e2","LP2013_e2_11","blew",240,1,"target",3,363,"Include"
"LP2013_e2","LP2013_e2_11","jeer",241,1,"target",4,683,"Include"
"LP2013_e2","LP2013_e2_11","chump",242,0,"unrelated_lure",2,904,"Include"
"LP2013_e2","LP2013_e2_11","drag",243,1,"target",2,615,"Include"
"LP2013_e2","LP2013_e2_11","grab",244,1,"related_lure",2,467,"Include"
"LP2013_e2","LP2013_e2_11","sip",245,0,"unrelated_lure",2,707,"Include"
"LP2013_e2","LP2013_e2_11","huff",246,0,"unrelated_lure",2,601,"Include"
"LP2013_e2","LP2013_e2_11","earl",247,1,"target",3,1152,"Include"
"LP2013_e2","LP2013_e2_11","data",248,1,"related_lure",2,888,"Include"
"LP2013_e2","LP2013_e2_11","gala",249,1,"target",3,958,"Include"
"LP2013_e2","LP2013_e2_11","pinon",250,0,"unrelated_lure",2,903,"Include"
"LP2013_e2","LP2013_e2_11","moon",251,0,"unrelated_lure",2,979,"Include"
"LP2013_e2","LP2013_e2_11","badger",252,1,"related_lure",3,679,"Include"
"LP2013_e2","LP2013_e2_11","latex",253,1,"target",3,583,"Include"
"LP2013_e2","LP2013_e2_11","jet",254,1,"target",3,652,"Include"
"LP2013_e2","LP2013_e2_11","wear",255,1,"target",3,759,"Include"
"LP2013_e2","LP2013_e2_11","wedge",256,1,"related_lure",3,601,"Include"
"LP2013_e2","LP2013_e2_11","punch",257,0,"unrelated_lure",3,504,"Include"
"LP2013_e2","LP2013_e2_11","grave",258,1,"target",2,466,"Include"
"LP2013_e2","LP2013_e2_11","extra",259,1,"related_lure",2,740,"Include"
"LP2013_e2","LP2013_e2_11","alder",260,1,"related_lure",1,394,"Include"
"LP2013_e2","LP2013_e2_11","piss",261,0,"unrelated_lure",2,932,"Include"
"LP2013_e2","LP2013_e2_11","tax",262,1,"target",2,509,"Include"
"LP2013_e2","LP2013_e2_11","beet",263,1,"related_lure",3,732,"Include"
"LP2013_e2","LP2013_e2_11","muck",264,0,"unrelated_lure",3,850,"Include"
"LP2013_e2","LP2013_e2_11","hon",265,0,"unrelated_lure",2,711,"Include"
"LP2013_e2","LP2013_e2_11","sop",266,0,"unrelated_lure",2,493,"Include"
"LP2013_e2","LP2013_e2_11","vex",267,1,"target",2,952,"Include"
"LP2013_e2","LP2013_e2_11","drawl",268,1,"target",3,825,"Include"
"LP2013_e2","LP2013_e2_11","breed",269,1,"related_lure",3,1675,"Include"
"LP2013_e2","LP2013_e2_11","phony",270,0,"unrelated_lure",3,887,"Include"
"LP2013_e2","LP2013_e2_11","copy",271,0,"unrelated_lure",2,309,"Include"
"LP2013_e2","LP2013_e2_11","bat",272,1,"related_lure",2,409,"Include"
"LP2013_e2","LP2013_e2_11","brawl",273,1,"target",1,638,"Include"
"LP2013_e2","LP2013_e2_11","wart",274,1,"target",4,656,"Include"
"LP2013_e2","LP2013_e2_11","wad",275,1,"related_lure",3,278,"Include"
"LP2013_e2","LP2013_e2_11","hook",276,0,"unrelated_lure",2,887,"Include"
"LP2013_e2","LP2013_e2_11","garb",277,1,"related_lure",2,290,"Include"
"LP2013_e2","LP2013_e2_11","pony",278,0,"unrelated_lure",3,860,"Include"
"LP2013_e2","LP2013_e2_11","water",279,1,"related_lure",3,572,"Include"
"LP2013_e2","LP2013_e2_11","dwelt",280,1,"related_lure",2,324,"Include"
"LP2013_e2","LP2013_e2_11","drat",281,1,"target",2,446,"Include"
"LP2013_e2","LP2013_e2_11","pinch",282,0,"unrelated_lure",2,569,"Include"
"LP2013_e2","LP2013_e2_11","twelve",283,1,"related_lure",1,687,"Include"
"LP2013_e2","LP2013_e2_11","snoop",284,0,"unrelated_lure",2,959,"Include"
"LP2013_e2","LP2013_e2_11","date",285,1,"related_lure",2,944,"Include"
"LP2013_e2","LP2013_e2_11","scum",286,0,"unrelated_lure",2,1136,"Include"
"LP2013_e2","LP2013_e2_11","pom",287,0,"unrelated_lure",3,1045,"Include"
"LP2013_e2","LP2013_e2_11","gable",288,1,"target",3,3454,"Include"
"LP2013_e2","LP2013_e2_11","push",289,0,"unrelated_lure",3,871,"Include"
"LP2013_e2","LP2013_e2_11","beadle",290,1,"related_lure",3,1262,"Include"
"LP2013_e2","LP2013_e2_11","bear",291,1,"target",4,763,"Include"
"LP2013_e2","LP2013_e2_11","ledger",292,1,"related_lure",2,968,"Include"
"LP2013_e2","LP2013_e2_11","award",293,1,"related_lure",2,966,"Include"
"LP2013_e2","LP2013_e2_11","skimp",294,0,"unrelated_lure",2,488,"Include"
"LP2013_e2","LP2013_e2_11","teal",295,1,"related_lure",3,1107,"Include"
"LP2013_e2","LP2013_e2_11","blade",296,1,"target",3,525,"Include"
"LP2013_e2","LP2013_e2_11","aver",297,1,"related_lure",3,1405,"Include"
"LP2013_e2","LP2013_e2_11","tea",298,1,"target",4,1184,"Include"
"LP2013_e2","LP2013_e2_11","lab",299,1,"target",4,768,"Include"
"LP2013_e2","LP2013_e2_11","hump",300,0,"unrelated_lure",2,1126,"Include"
"LP2013_e2","LP2013_e2_11","brew",301,1,"target",1,704,"Include"
"LP2013_e2","LP2013_e2_11","leave",302,1,"related_lure",2,1158,"Include"
"LP2013_e2","LP2013_e2_11","conk",303,0,"unrelated_lure",2,740,"Include"
"LP2013_e2","LP2013_e2_11","icon",304,0,"unrelated_lure",1,681,"Include"
"LP2013_e2","LP2013_e2_11","barge",305,1,"target",3,992,"Include"
"LP2013_e2","LP2013_e2_11","weed",306,1,"target",4,876,"Include"
"LP2013_e2","LP2013_e2_11","sup",307,0,"unrelated_lure",2,736,"Include"
"LP2013_e2","LP2013_e2_11","gear",308,1,"related_lure",2,421,"Include"
"LP2013_e2","LP2013_e2_11","debt",309,1,"related_lure",2,319,"Include"
"LP2013_e2","LP2013_e2_11","lard",310,1,"target",2,740,"Include"
"LP2013_e2","LP2013_e2_11","muff",311,0,"unrelated_lure",1,866,"Include"
"LP2013_e2","LP2013_e2_11","eel",312,1,"related_lure",2,834,"Include"
"LP2013_e2","LP2013_e2_11","noun",313,0,"unrelated_lure",2,858,"Include"
"LP2013_e2","LP2013_e2_11","eave",314,1,"related_lure",3,476,"Include"
"LP2013_e2","LP2013_e2_11","chop",315,0,"unrelated_lure",2,775,"Include"
"LP2013_e2","LP2013_e2_11","cop",316,0,"unrelated_lure",2,565,"Include"
"LP2013_e2","LP2013_e2_11","mom",317,0,"unrelated_lure",1,910,"Include"
"LP2013_e2","LP2013_e2_11","mick",318,0,"unrelated_lure",1,649,"Include"
"LP2013_e2","LP2013_e2_11","mock",319,0,"unrelated_lure",1,612,"Include"
"LP2013_e2","LP2013_e2_11","lear",320,1,"related_lure",2,298,"Include"
"LP2013_e2","LP2013_e2_11","finicky",321,0,"unrelated_lure",3,356,"Include"
"LP2013_e2","LP2013_e2_11","such",322,0,"unrelated_lure",2,359,"Include"
"LP2013_e2","LP2013_e2_11","pious",323,0,"unrelated_lure",2,282,"Include"
"LP2013_e2","LP2013_e2_11","rag",324,1,"related_lure",2,1051,"Include"
"LP2013_e2","LP2013_e2_11","graze",325,1,"target",4,829,"Include"
"LP2013_e2","LP2013_e2_11","tab",326,1,"target",4,915,"Include"
"LP2013_e2","LP2013_e2_11","kiosk",327,0,"unrelated_lure",3,487,"Include"
"LP2013_e2","LP2013_e2_11","jab",328,1,"related_lure",2,296,"Include"
"LP2013_e2","LP2013_e2_11","bale",329,1,"target",2,321,"Include"
"LP2013_e2","LP2013_e2_11","grew",330,1,"related_lure",3,422,"Include"
"LP2013_e2","LP2013_e2_11","are",331,1,"target",4,729,"Include"
"LP2013_e2","LP2013_e2_11","wed",332,1,"related_lure",2,823,"Include"
"LP2013_e2","LP2013_e2_11","debate",333,1,"target",2,743,"Include"
"LP2013_e2","LP2013_e2_11","hiss",334,0,"unrelated_lure",3,1246,"Include"
"LP2013_e2","LP2013_e2_11","tweed",335,1,"related_lure",3,903,"Include"
"LP2013_e2","LP2013_e2_11","focus",336,0,"unrelated_lure",2,622,"Include"
"LP2013_e2","LP2013_e2_11","evade",337,1,"target",3,384,"Include"
"LP2013_e2","LP2013_e2_11","soy",338,0,"unrelated_lure",2,823,"Include"
"LP2013_e2","LP2013_e2_11","glaze",339,1,"related_lure",4,682,"Include"
"LP2013_e2","LP2013_e2_11","ski",340,0,"unrelated_lure",1,815,"Include"
"LP2013_e2","LP2013_e2_11","ewe",341,1,"related_lure",2,666,"Include"
"LP2013_e2","LP2013_e2_11","real",342,1,"related_lure",1,373,"Include"
"LP2013_e2","LP2013_e2_11","algebra",343,1,"target",4,645,"Include"
"LP2013_e2","LP2013_e2_11","axe",344,1,"related_lure",4,665,"Include"
"LP2013_e2","LP2013_e2_11","bet",345,1,"related_lure",3,639,"Include"
"LP2013_e2","LP2013_e2_11","rate",346,1,"related_lure",2,627,"Include"
"LP2013_e2","LP2013_e2_11","revel",347,1,"target",1,519,"Include"
"LP2013_e2","LP2013_e2_11","zebra",348,1,"target",2,805,"Include"
"LP2013_e2","LP2013_e2_11","veal",349,1,"target",3,553,"Include"
"LP2013_e2","LP2013_e2_11","reave",350,1,"target",3,776,"Include"
"LP2013_e2","LP2013_e2_11","brag",351,1,"target",3,735,"Include"
"LP2013_e2","LP2013_e2_11","belt",352,1,"target",3,667,"Include"
"LP2013_e2","LP2013_e2_11","coupon",353,0,"unrelated_lure",1,926,"Include"
"LP2013_e2","LP2013_e2_11","alert",354,1,"target",3,978,"Include"
"LP2013_e2","LP2013_e2_11","delta",355,1,"target",4,817,"Include"
"LP2013_e2","LP2013_e2_11","pick",356,0,"unrelated_lure",2,844,"Include"
"LP2013_e2","LP2013_e2_11","wage",357,1,"target",2,616,"Include"
"LP2013_e2","LP2013_e2_11","lax",358,1,"target",4,650,"Include"
"LP2013_e2","LP2013_e2_11","jewel",359,1,"related_lure",3,875,"Include"
"LP2013_e2","LP2013_e2_11","zeal",360,1,"target",2,1099,"Include"
"LP2013_e2","LP2013_e2_12","ate",0,0,"not_tested",99,0,"Exclude"
"LP2013_e2","LP2013_e2_12","bag",0,0,"not_tested",99,0,"Exclude"
"LP2013_e2","LP2013_e2_12","gel",0,0,"not_tested",99,0,"Exclude"
"LP2013_e2","LP2013_e2_12","leg",0,0,"not_tested",99,0,"Exclude"
"LP2013_e2","LP2013_e2_12","raw",0,0,"not_tested",99,0,"Exclude"
"LP2013_e2","LP2013_e2_12","wax",0,0,"not_tested",99,0,"Exclude"
"LP2013_e2","LP2013_e2_12","able",0,0,"not_tested",99,0,"Exclude"
"LP2013_e2","LP2013_e2_12","bare",0,0,"not_tested",99,0,"Exclude"
"LP2013_e2","LP2013_e2_12","bled",0,0,"not_tested",99,0,"Exclude"
"LP2013_e2","LP2013_e2_12","drab",0,0,"not_tested",99,0,"Exclude"
"LP2013_e2","LP2013_e2_12","drew",0,0,"not_tested",99,0,"Exclude"
"LP2013_e2","LP2013_e2_12","gave",0,0,"not_tested",99,0,"Exclude"
"LP2013_e2","LP2013_e2_12","java",0,0,"not_tested",99,0,"Exclude"
