"exp","id","block","trial","isold","condition1","condition2","rating","RT","excluding"
"PCM2006_e1","PCM2006_e1_1",1,76,1,"young","L1",5,20437,"Include"
"PCM2006_e1","PCM2006_e1_1",1,77,1,"young","L2",6,3983,"Include"
"PCM2006_e1","PCM2006_e1_1",1,78,1,"young","L2",6,3045,"Include"
"PCM2006_e1","PCM2006_e1_1",1,79,0,"young","new",1,4803,"Include"
"PCM2006_e1","PCM2006_e1_1",1,80,0,"young","new",2,4516,"Include"
"PCM2006_e1","PCM2006_e1_1",1,81,0,"young","new",2,3179,"Include"
"PCM2006_e1","PCM2006_e1_1",1,82,1,"young","L1",6,2656,"Include"
"PCM2006_e1","PCM2006_e1_1",1,83,1,"young","L2",2,5748,"Include"
"PCM2006_e1","PCM2006_e1_1",1,84,0,"young","new",1,3339,"Include"
"PCM2006_e1","PCM2006_e1_1",1,85,1,"young","L2",6,1771,"Include"
"PCM2006_e1","PCM2006_e1_1",1,86,1,"young","L1",6,1867,"Include"
"PCM2006_e1","PCM2006_e1_1",1,87,1,"young","L2",6,980,"Include"
"PCM2006_e1","PCM2006_e1_1",1,88,0,"young","new",3,6600,"Include"
"PCM2006_e1","PCM2006_e1_1",1,89,1,"young","L2",6,2115,"Include"
"PCM2006_e1","PCM2006_e1_1",1,90,1,"young","L2",6,776,"Include"
"PCM2006_e1","PCM2006_e1_1",1,91,0,"young","new",1,2095,"Include"
"PCM2006_e1","PCM2006_e1_1",1,92,0,"young","new",1,2496,"Include"
"PCM2006_e1","PCM2006_e1_1",1,93,1,"young","L1",4,6978,"Include"
"PCM2006_e1","PCM2006_e1_1",1,94,0,"young","new",2,2674,"Include"
"PCM2006_e1","PCM2006_e1_1",1,95,1,"young","L2",1,5296,"Include"
"PCM2006_e1","PCM2006_e1_1",1,96,1,"young","L1",3,4747,"Include"
"PCM2006_e1","PCM2006_e1_1",1,97,0,"young","new",1,5729,"Include"
"PCM2006_e1","PCM2006_e1_1",1,98,1,"young","L2",2,4541,"Include"
"PCM2006_e1","PCM2006_e1_1",1,99,1,"young","L2",6,1677,"Include"
"PCM2006_e1","PCM2006_e1_1",1,100,1,"young","L2",6,1228,"Include"
"PCM2006_e1","PCM2006_e1_1",1,101,1,"young","L1",6,2080,"Include"
"PCM2006_e1","PCM2006_e1_1",1,102,0,"young","new",1,1686,"Include"
"PCM2006_e1","PCM2006_e1_1",1,103,1,"young","L2",6,1170,"Include"
"PCM2006_e1","PCM2006_e1_1",1,104,1,"young","L2",6,1681,"Include"
"PCM2006_e1","PCM2006_e1_1",1,105,1,"young","L1",3,4559,"Include"
"PCM2006_e1","PCM2006_e1_1",1,106,0,"young","new",5,3995,"Include"
"PCM2006_e1","PCM2006_e1_1",1,107,1,"young","L1",5,2615,"Include"
"PCM2006_e1","PCM2006_e1_1",1,108,1,"young","L2",6,1829,"Include"
"PCM2006_e1","PCM2006_e1_1",1,109,1,"young","L2",6,992,"Include"
"PCM2006_e1","PCM2006_e1_1",1,110,1,"young","L1",5,1658,"Include"
"PCM2006_e1","PCM2006_e1_1",1,111,0,"young","new",1,2885,"Include"
"PCM2006_e1","PCM2006_e1_1",1,112,0,"young","new",1,1290,"Include"
"PCM2006_e1","PCM2006_e1_1",1,113,1,"young","L1",5,1725,"Include"
"PCM2006_e1","PCM2006_e1_1",1,114,0,"young","new",2,4455,"Include"
"PCM2006_e1","PCM2006_e1_1",1,115,1,"young","L2",5,1724,"Include"
"PCM2006_e1","PCM2006_e1_1",1,116,1,"young","L1",6,2377,"Include"
"PCM2006_e1","PCM2006_e1_1",1,117,1,"young","L1",6,945,"Include"
"PCM2006_e1","PCM2006_e1_1",1,118,0,"young","new",1,1776,"Include"
"PCM2006_e1","PCM2006_e1_1",1,119,1,"young","L1",4,5239,"Include"
"PCM2006_e1","PCM2006_e1_1",1,120,1,"young","L2",6,2167,"Include"
"PCM2006_e1","PCM2006_e1_1",1,121,1,"young","L1",3,7550,"Include"
"PCM2006_e1","PCM2006_e1_1",1,122,1,"young","L1",6,1134,"Include"
"PCM2006_e1","PCM2006_e1_1",1,123,1,"young","L2",6,1464,"Include"
"PCM2006_e1","PCM2006_e1_1",1,124,1,"young","L1",6,721,"Include"
"PCM2006_e1","PCM2006_e1_1",1,125,0,"young","new",1,1181,"Include"
"PCM2006_e1","PCM2006_e1_1",1,126,1,"young","L1",5,1698,"Include"
"PCM2006_e1","PCM2006_e1_1",1,127,1,"young","L1",2,2730,"Include"
"PCM2006_e1","PCM2006_e1_1",1,128,1,"young","L2",4,2509,"Include"
"PCM2006_e1","PCM2006_e1_1",1,129,1,"young","L1",5,2260,"Include"
"PCM2006_e1","PCM2006_e1_1",1,130,1,"young","L2",3,5183,"Include"
"PCM2006_e1","PCM2006_e1_1",1,131,1,"young","L1",5,1887,"Include"
"PCM2006_e1","PCM2006_e1_1",1,132,1,"young","L2",6,2211,"Include"
"PCM2006_e1","PCM2006_e1_1",1,133,0,"young","new",2,1657,"Include"
"PCM2006_e1","PCM2006_e1_1",1,134,1,"young","L1",6,917,"Include"
"PCM2006_e1","PCM2006_e1_1",1,135,1,"young","L2",6,2552,"Include"
"PCM2006_e1","PCM2006_e1_1",1,136,0,"young","new",3,3941,"Include"
"PCM2006_e1","PCM2006_e1_1",1,137,0,"young","new",1,3054,"Include"
"PCM2006_e1","PCM2006_e1_1",1,138,1,"young","L1",6,1850,"Include"
"PCM2006_e1","PCM2006_e1_1",1,139,0,"young","new",2,4079,"Include"
"PCM2006_e1","PCM2006_e1_1",1,140,0,"young","new",2,4558,"Include"
"PCM2006_e1","PCM2006_e1_1",1,141,1,"young","L2",4,2403,"Include"
"PCM2006_e1","PCM2006_e1_1",1,142,0,"young","new",2,4739,"Include"
"PCM2006_e1","PCM2006_e1_1",1,143,1,"young","L1",5,3020,"Include"
"PCM2006_e1","PCM2006_e1_1",1,144,1,"young","L2",5,1264,"Include"
"PCM2006_e1","PCM2006_e1_1",1,145,0,"young","new",1,2208,"Include"
"PCM2006_e1","PCM2006_e1_1",1,146,0,"young","new",1,1561,"Include"
"PCM2006_e1","PCM2006_e1_1",1,147,1,"young","L1",5,4538,"Include"
"PCM2006_e1","PCM2006_e1_1",1,148,0,"young","new",2,2028,"Include"
"PCM2006_e1","PCM2006_e1_1",1,149,0,"young","new",1,1295,"Include"
"PCM2006_e1","PCM2006_e1_1",1,150,1,"young","L1",6,1048,"Include"
"PCM2006_e1","PCM2006_e1_1",1,151,1,"young","L2",6,1102,"Include"
"PCM2006_e1","PCM2006_e1_1",1,152,1,"young","L2",6,887,"Include"
"PCM2006_e1","PCM2006_e1_1",1,153,1,"young","L1",6,1602,"Include"
"PCM2006_e1","PCM2006_e1_1",1,154,1,"young","L2",2,4658,"Include"
"PCM2006_e1","PCM2006_e1_1",1,155,0,"young","new",1,1664,"Include"
"PCM2006_e1","PCM2006_e1_1",1,156,1,"young","L1",5,3512,"Include"
"PCM2006_e1","PCM2006_e1_1",1,157,1,"young","L1",1,2351,"Include"
"PCM2006_e1","PCM2006_e1_1",1,158,0,"young","new",2,4660,"Include"
"PCM2006_e1","PCM2006_e1_1",1,159,1,"young","L2",5,4094,"Include"
"PCM2006_e1","PCM2006_e1_1",1,160,1,"young","L1",6,1954,"Include"
"PCM2006_e1","PCM2006_e1_1",1,161,1,"young","L1",5,2230,"Include"
"PCM2006_e1","PCM2006_e1_1",1,162,0,"young","new",2,1903,"Include"
"PCM2006_e1","PCM2006_e1_1",1,163,0,"young","new",3,6552,"Include"
"PCM2006_e1","PCM2006_e1_1",1,164,1,"young","L2",6,1647,"Include"
"PCM2006_e1","PCM2006_e1_1",1,165,1,"young","L2",6,1046,"Include"
"PCM2006_e1","PCM2006_e1_1",2,241,1,"young","L2",5,2042,"Include"
"PCM2006_e1","PCM2006_e1_1",2,242,1,"young","L1",6,1783,"Include"
"PCM2006_e1","PCM2006_e1_1",2,243,1,"young","L2",6,733,"Include"
"PCM2006_e1","PCM2006_e1_1",2,244,1,"young","L1",3,3501,"Include"
"PCM2006_e1","PCM2006_e1_1",2,245,0,"young","new",2,1576,"Include"
"PCM2006_e1","PCM2006_e1_1",2,246,0,"young","new",3,1784,"Include"
"PCM2006_e1","PCM2006_e1_1",2,247,1,"young","L2",6,1493,"Include"
"PCM2006_e1","PCM2006_e1_1",2,248,0,"young","new",1,1241,"Include"
"PCM2006_e1","PCM2006_e1_1",2,249,1,"young","L2",6,1120,"Include"
"PCM2006_e1","PCM2006_e1_1",2,250,1,"young","L2",4,3139,"Include"
"PCM2006_e1","PCM2006_e1_1",2,251,1,"young","L2",6,1548,"Include"
"PCM2006_e1","PCM2006_e1_1",2,252,0,"young","new",3,5663,"Include"
"PCM2006_e1","PCM2006_e1_1",2,253,1,"young","L1",6,2210,"Include"
"PCM2006_e1","PCM2006_e1_1",2,254,0,"young","new",5,2768,"Include"
"PCM2006_e1","PCM2006_e1_1",2,255,0,"young","new",2,3912,"Include"
"PCM2006_e1","PCM2006_e1_1",2,256,0,"young","new",2,3392,"Include"
"PCM2006_e1","PCM2006_e1_1",2,257,1,"young","L1",6,1435,"Include"
"PCM2006_e1","PCM2006_e1_1",2,258,1,"young","L2",6,1188,"Include"
"PCM2006_e1","PCM2006_e1_1",2,259,1,"young","L2",6,969,"Include"
"PCM2006_e1","PCM2006_e1_1",2,260,0,"young","new",3,2944,"Include"
"PCM2006_e1","PCM2006_e1_1",2,261,1,"young","L2",6,1113,"Include"
"PCM2006_e1","PCM2006_e1_1",2,262,1,"young","L2",2,3103,"Include"
"PCM2006_e1","PCM2006_e1_1",2,263,1,"young","L1",4,5048,"Include"
"PCM2006_e1","PCM2006_e1_1",2,264,1,"young","L1",2,3360,"Include"
"PCM2006_e1","PCM2006_e1_1",2,265,1,"young","L2",2,3347,"Include"
"PCM2006_e1","PCM2006_e1_1",2,266,1,"young","L1",5,1713,"Include"
"PCM2006_e1","PCM2006_e1_1",2,267,1,"young","L1",5,1448,"Include"
"PCM2006_e1","PCM2006_e1_1",2,268,0,"young","new",1,2101,"Include"
"PCM2006_e1","PCM2006_e1_1",2,269,1,"young","L1",3,3471,"Include"
"PCM2006_e1","PCM2006_e1_1",2,270,0,"young","new",3,3241,"Include"
"PCM2006_e1","PCM2006_e1_1",2,271,0,"young","new",1,1648,"Include"
"PCM2006_e1","PCM2006_e1_1",2,272,0,"young","new",1,2358,"Include"
"PCM2006_e1","PCM2006_e1_1",2,273,1,"young","L2",6,1289,"Include"
"PCM2006_e1","PCM2006_e1_1",2,274,1,"young","L1",6,1020,"Include"
"PCM2006_e1","PCM2006_e1_1",2,275,1,"young","L2",6,2377,"Include"
"PCM2006_e1","PCM2006_e1_1",2,276,1,"young","L2",6,1010,"Include"
"PCM2006_e1","PCM2006_e1_1",2,277,1,"young","L1",6,777,"Include"
"PCM2006_e1","PCM2006_e1_1",2,278,0,"young","new",4,4328,"Include"
"PCM2006_e1","PCM2006_e1_1",2,279,1,"young","L1",6,1523,"Include"
"PCM2006_e1","PCM2006_e1_1",2,280,0,"young","new",1,1360,"Include"
"PCM2006_e1","PCM2006_e1_1",2,281,1,"young","L2",5,3194,"Include"
"PCM2006_e1","PCM2006_e1_1",2,282,1,"young","L1",6,2197,"Include"
"PCM2006_e1","PCM2006_e1_1",2,283,1,"young","L2",4,1336,"Include"
"PCM2006_e1","PCM2006_e1_1",2,284,1,"young","L2",5,1655,"Include"
"PCM2006_e1","PCM2006_e1_1",2,285,0,"young","new",1,1858,"Include"
"PCM2006_e1","PCM2006_e1_1",2,286,1,"young","L1",4,5685,"Include"
"PCM2006_e1","PCM2006_e1_1",2,287,1,"young","L1",6,1012,"Include"
"PCM2006_e1","PCM2006_e1_1",2,288,0,"young","new",5,2073,"Include"
"PCM2006_e1","PCM2006_e1_1",2,289,1,"young","L2",6,1264,"Include"
"PCM2006_e1","PCM2006_e1_1",2,290,1,"young","L1",5,1593,"Include"
"PCM2006_e1","PCM2006_e1_1",2,291,1,"young","L2",6,1803,"Include"
"PCM2006_e1","PCM2006_e1_1",2,292,0,"young","new",4,4627,"Include"
"PCM2006_e1","PCM2006_e1_1",2,293,0,"young","new",2,1616,"Include"
"PCM2006_e1","PCM2006_e1_1",2,294,0,"young","new",1,917,"Include"
"PCM2006_e1","PCM2006_e1_1",2,295,1,"young","L1",5,1569,"Include"
"PCM2006_e1","PCM2006_e1_1",2,296,1,"young","L2",1,1665,"Include"
"PCM2006_e1","PCM2006_e1_1",2,297,1,"young","L2",5,2346,"Include"
"PCM2006_e1","PCM2006_e1_1",2,298,0,"young","new",2,2087,"Include"
"PCM2006_e1","PCM2006_e1_1",2,299,1,"young","L1",6,1659,"Include"
"PCM2006_e1","PCM2006_e1_1",2,300,1,"young","L2",6,2335,"Include"
"PCM2006_e1","PCM2006_e1_1",2,301,1,"young","L2",3,3248,"Include"
"PCM2006_e1","PCM2006_e1_1",2,302,1,"young","L1",1,3351,"Include"
"PCM2006_e1","PCM2006_e1_1",2,303,0,"young","new",2,3844,"Include"
"PCM2006_e1","PCM2006_e1_1",2,304,0,"young","new",3,5299,"Include"
"PCM2006_e1","PCM2006_e1_1",2,305,1,"young","L1",4,2087,"Include"
"PCM2006_e1","PCM2006_e1_1",2,306,0,"young","new",2,1698,"Include"
"PCM2006_e1","PCM2006_e1_1",2,307,0,"young","new",1,2404,"Include"
"PCM2006_e1","PCM2006_e1_1",2,308,1,"young","L1",3,2300,"Include"
"PCM2006_e1","PCM2006_e1_1",2,309,0,"young","new",1,1142,"Include"
"PCM2006_e1","PCM2006_e1_1",2,310,1,"young","L2",4,1590,"Include"
"PCM2006_e1","PCM2006_e1_1",2,311,0,"young","new",2,1808,"Include"
"PCM2006_e1","PCM2006_e1_1",2,312,1,"young","L1",1,2264,"Include"
"PCM2006_e1","PCM2006_e1_1",2,313,1,"young","L2",2,8832,"Include"
"PCM2006_e1","PCM2006_e1_1",2,314,0,"young","new",1,1382,"Include"
"PCM2006_e1","PCM2006_e1_1",2,315,1,"young","L2",5,8209,"Include"
"PCM2006_e1","PCM2006_e1_1",2,316,0,"young","new",2,3210,"Include"
"PCM2006_e1","PCM2006_e1_1",2,317,1,"young","L1",3,3457,"Include"
"PCM2006_e1","PCM2006_e1_1",2,318,1,"young","L1",2,2509,"Include"
"PCM2006_e1","PCM2006_e1_1",2,319,1,"young","L2",4,2820,"Include"
"PCM2006_e1","PCM2006_e1_1",2,320,1,"young","L1",6,1360,"Include"
"PCM2006_e1","PCM2006_e1_1",2,321,0,"young","new",2,2609,"Include"
"PCM2006_e1","PCM2006_e1_1",2,322,1,"young","L1",6,1544,"Include"
"PCM2006_e1","PCM2006_e1_1",2,323,1,"young","L2",4,1552,"Include"
"PCM2006_e1","PCM2006_e1_1",2,324,1,"young","L1",5,3140,"Include"
"PCM2006_e1","PCM2006_e1_1",2,325,1,"young","L2",5,1523,"Include"
"PCM2006_e1","PCM2006_e1_1",2,326,1,"young","L1",6,1216,"Include"
"PCM2006_e1","PCM2006_e1_1",2,327,0,"young","new",1,2406,"Include"
"PCM2006_e1","PCM2006_e1_1",2,328,1,"young","L1",5,2942,"Include"
"PCM2006_e1","PCM2006_e1_1",2,329,1,"young","L2",6,1022,"Include"
"PCM2006_e1","PCM2006_e1_1",2,330,1,"young","L1",6,3208,"Include"
"PCM2006_e1","PCM2006_e1_1",3,406,0,"young","new",2,1660,"Include"
"PCM2006_e1","PCM2006_e1_1",3,407,1,"young","L1",2,2040,"Include"
"PCM2006_e1","PCM2006_e1_1",3,408,1,"young","L1",5,1897,"Include"
"PCM2006_e1","PCM2006_e1_1",3,409,1,"young","L2",6,2586,"Include"
"PCM2006_e1","PCM2006_e1_1",3,410,1,"young","L2",6,1064,"Include"
"PCM2006_e1","PCM2006_e1_1",3,411,1,"young","L1",5,1593,"Include"
"PCM2006_e1","PCM2006_e1_1",3,412,1,"young","L1",4,2068,"Include"
"PCM2006_e1","PCM2006_e1_1",3,413,1,"young","L2",6,980,"Include"
"PCM2006_e1","PCM2006_e1_1",3,414,0,"young","new",6,1537,"Include"
"PCM2006_e1","PCM2006_e1_1",3,415,1,"young","L2",6,1080,"Include"
"PCM2006_e1","PCM2006_e1_1",3,416,0,"young","new",2,1694,"Include"
"PCM2006_e1","PCM2006_e1_1",3,417,1,"young","L1",3,1816,"Include"
"PCM2006_e1","PCM2006_e1_1",3,418,1,"young","L2",6,1405,"Include"
"PCM2006_e1","PCM2006_e1_1",3,419,0,"young","new",1,2358,"Include"
"PCM2006_e1","PCM2006_e1_1",3,420,0,"young","new",1,1352,"Include"
"PCM2006_e1","PCM2006_e1_1",3,421,1,"young","L2",4,1965,"Include"
"PCM2006_e1","PCM2006_e1_1",3,422,1,"young","L1",5,1472,"Include"
"PCM2006_e1","PCM2006_e1_1",3,423,1,"young","L1",6,1240,"Include"
"PCM2006_e1","PCM2006_e1_1",3,424,0,"young","new",2,3392,"Include"
"PCM2006_e1","PCM2006_e1_1",3,425,0,"young","new",2,2308,"Include"
"PCM2006_e1","PCM2006_e1_1",3,426,1,"young","L2",5,2458,"Include"
"PCM2006_e1","PCM2006_e1_1",3,427,0,"young","new",3,2167,"Include"
"PCM2006_e1","PCM2006_e1_1",3,428,1,"young","L1",5,1546,"Include"
"PCM2006_e1","PCM2006_e1_1",3,429,0,"young","new",2,2872,"Include"
"PCM2006_e1","PCM2006_e1_1",3,430,1,"young","L1",6,1384,"Include"
"PCM2006_e1","PCM2006_e1_1",3,431,1,"young","L2",6,1020,"Include"
"PCM2006_e1","PCM2006_e1_1",3,432,1,"young","L2",1,2127,"Include"
"PCM2006_e1","PCM2006_e1_1",3,433,0,"young","new",1,2049,"Include"
"PCM2006_e1","PCM2006_e1_1",3,434,1,"young","L2",2,5247,"Include"
"PCM2006_e1","PCM2006_e1_1",3,435,1,"young","L2",5,2886,"Include"
"PCM2006_e1","PCM2006_e1_1",3,436,1,"young","L1",3,2003,"Include"
"PCM2006_e1","PCM2006_e1_1",3,437,1,"young","L1",5,1908,"Include"
"PCM2006_e1","PCM2006_e1_1",3,438,1,"young","L1",6,1266,"Include"
"PCM2006_e1","PCM2006_e1_1",3,439,0,"young","new",1,1284,"Include"
"PCM2006_e1","PCM2006_e1_1",3,440,0,"young","new",1,1688,"Include"
"PCM2006_e1","PCM2006_e1_1",3,441,1,"young","L1",6,2291,"Include"
"PCM2006_e1","PCM2006_e1_1",3,442,1,"young","L2",1,7607,"Include"
"PCM2006_e1","PCM2006_e1_1",3,443,1,"young","L1",5,1087,"Include"
"PCM2006_e1","PCM2006_e1_1",3,444,1,"young","L1",6,1107,"Include"
"PCM2006_e1","PCM2006_e1_1",3,445,0,"young","new",4,1210,"Include"
"PCM2006_e1","PCM2006_e1_1",3,446,1,"young","L2",2,3103,"Include"
"PCM2006_e1","PCM2006_e1_1",3,447,1,"young","L1",4,2033,"Include"
"PCM2006_e1","PCM2006_e1_1",3,448,1,"young","L2",5,1370,"Include"
"PCM2006_e1","PCM2006_e1_1",3,449,1,"young","L2",4,5521,"Include"
"PCM2006_e1","PCM2006_e1_1",3,450,0,"young","new",2,1648,"Include"
"PCM2006_e1","PCM2006_e1_1",3,451,0,"young","new",1,1637,"Include"
"PCM2006_e1","PCM2006_e1_1",3,452,0,"young","new",4,3605,"Include"
"PCM2006_e1","PCM2006_e1_1",3,453,1,"young","L1",6,1143,"Include"
"PCM2006_e1","PCM2006_e1_1",3,454,1,"young","L1",6,1150,"Include"
"PCM2006_e1","PCM2006_e1_1",3,455,1,"young","L2",6,1282,"Include"
"PCM2006_e1","PCM2006_e1_1",3,456,0,"young","new",1,1329,"Include"
"PCM2006_e1","PCM2006_e1_1",3,457,1,"young","L2",6,1179,"Include"
"PCM2006_e1","PCM2006_e1_1",3,458,1,"young","L1",5,3423,"Include"
"PCM2006_e1","PCM2006_e1_1",3,459,0,"young","new",2,7450,"Include"
"PCM2006_e1","PCM2006_e1_1",3,460,0,"young","new",1,1033,"Include"
"PCM2006_e1","PCM2006_e1_1",3,461,1,"young","L1",6,930,"Include"
"PCM2006_e1","PCM2006_e1_1",3,462,1,"young","L1",5,1795,"Include"
"PCM2006_e1","PCM2006_e1_1",3,463,1,"young","L2",6,894,"Include"
"PCM2006_e1","PCM2006_e1_1",3,464,0,"young","new",2,1418,"Include"
"PCM2006_e1","PCM2006_e1_1",3,465,1,"young","L2",6,1270,"Include"
"PCM2006_e1","PCM2006_e1_1",3,466,1,"young","L1",6,855,"Include"
"PCM2006_e1","PCM2006_e1_1",3,467,1,"young","L2",6,795,"Include"
"PCM2006_e1","PCM2006_e1_1",3,468,0,"young","new",2,1693,"Include"
"PCM2006_e1","PCM2006_e1_1",3,469,1,"young","L2",4,2945,"Include"
"PCM2006_e1","PCM2006_e1_1",3,470,1,"young","L2",5,1089,"Include"
"PCM2006_e1","PCM2006_e1_1",3,471,1,"young","L1",6,1172,"Include"
"PCM2006_e1","PCM2006_e1_1",3,472,0,"young","new",1,1156,"Include"
"PCM2006_e1","PCM2006_e1_1",3,473,0,"young","new",1,1456,"Include"
"PCM2006_e1","PCM2006_e1_1",3,474,1,"young","L1",6,2108,"Include"
"PCM2006_e1","PCM2006_e1_1",3,475,1,"young","L2",1,1507,"Include"
"PCM2006_e1","PCM2006_e1_1",3,476,1,"young","L2",6,978,"Include"
"PCM2006_e1","PCM2006_e1_1",3,477,1,"young","L2",4,1745,"Include"
"PCM2006_e1","PCM2006_e1_1",3,478,1,"young","L1",3,1497,"Include"
"PCM2006_e1","PCM2006_e1_1",3,479,1,"young","L2",5,1241,"Include"
"PCM2006_e1","PCM2006_e1_1",3,480,0,"young","new",2,2520,"Include"
"PCM2006_e1","PCM2006_e1_1",3,481,1,"young","L2",6,1460,"Include"
"PCM2006_e1","PCM2006_e1_1",3,482,0,"young","new",1,1424,"Include"
"PCM2006_e1","PCM2006_e1_1",3,483,0,"young","new",2,5354,"Include"
"PCM2006_e1","PCM2006_e1_1",3,484,1,"young","L1",5,1289,"Include"
"PCM2006_e1","PCM2006_e1_1",3,485,1,"young","L2",3,5571,"Include"
"PCM2006_e1","PCM2006_e1_1",3,486,0,"young","new",1,1926,"Include"
"PCM2006_e1","PCM2006_e1_1",3,487,1,"young","L2",6,1440,"Include"
"PCM2006_e1","PCM2006_e1_1",3,488,1,"young","L2",5,1336,"Include"
"PCM2006_e1","PCM2006_e1_1",3,489,1,"young","L1",4,2168,"Include"
"PCM2006_e1","PCM2006_e1_1",3,490,0,"young","new",2,2135,"Include"
"PCM2006_e1","PCM2006_e1_1",3,491,1,"young","L1",6,1121,"Include"
"PCM2006_e1","PCM2006_e1_1",3,492,0,"young","new",2,3533,"Include"
"PCM2006_e1","PCM2006_e1_1",3,493,1,"young","L1",6,4663,"Include"
"PCM2006_e1","PCM2006_e1_1",3,494,1,"young","L1",1,1914,"Include"
"PCM2006_e1","PCM2006_e1_1",3,495,0,"young","new",1,1753,"Include"
"PCM2006_e1","PCM2006_e1_1",4,571,1,"young","L1",5,1960,"Include"
"PCM2006_e1","PCM2006_e1_1",4,572,1,"young","L1",6,1259,"Include"
"PCM2006_e1","PCM2006_e1_1",4,573,1,"young","L1",6,957,"Include"
"PCM2006_e1","PCM2006_e1_1",4,574,0,"young","new",1,2360,"Include"
"PCM2006_e1","PCM2006_e1_1",4,575,1,"young","L2",4,1698,"Include"
"PCM2006_e1","PCM2006_e1_1",4,576,1,"young","L1",3,2284,"Include"
"PCM2006_e1","PCM2006_e1_1",4,577,1,"young","L1",5,1744,"Include"
"PCM2006_e1","PCM2006_e1_1",4,578,0,"young","new",5,2007,"Include"
"PCM2006_e1","PCM2006_e1_1",4,579,1,"young","L1",1,2744,"Include"
"PCM2006_e1","PCM2006_e1_1",4,580,1,"young","L2",4,4463,"Include"
"PCM2006_e1","PCM2006_e1_1",4,581,1,"young","L1",5,1257,"Include"
"PCM2006_e1","PCM2006_e1_1",4,582,1,"young","L2",6,1301,"Include"
"PCM2006_e1","PCM2006_e1_1",4,583,0,"young","new",2,1310,"Include"
"PCM2006_e1","PCM2006_e1_1",4,584,1,"young","L1",6,2100,"Include"
"PCM2006_e1","PCM2006_e1_1",4,585,0,"young","new",4,2303,"Include"
"PCM2006_e1","PCM2006_e1_1",4,586,0,"young","new",2,1824,"Include"
"PCM2006_e1","PCM2006_e1_1",4,587,1,"young","L2",6,1139,"Include"
"PCM2006_e1","PCM2006_e1_1",4,588,1,"young","L1",2,5065,"Include"
"PCM2006_e1","PCM2006_e1_1",4,589,0,"young","new",1,2212,"Include"
"PCM2006_e1","PCM2006_e1_1",4,590,1,"young","L1",6,2635,"Include"
"PCM2006_e1","PCM2006_e1_1",4,591,0,"young","new",3,3619,"Include"
"PCM2006_e1","PCM2006_e1_1",4,592,1,"young","L2",4,3911,"Include"
"PCM2006_e1","PCM2006_e1_1",4,593,1,"young","L2",5,1766,"Include"
"PCM2006_e1","PCM2006_e1_1",4,594,1,"young","L1",2,1265,"Include"
"PCM2006_e1","PCM2006_e1_1",4,595,1,"young","L2",6,1674,"Include"
"PCM2006_e1","PCM2006_e1_1",4,596,0,"young","new",1,1193,"Include"
"PCM2006_e1","PCM2006_e1_1",4,597,0,"young","new",1,1787,"Include"
"PCM2006_e1","PCM2006_e1_1",4,598,1,"young","L2",4,3143,"Include"
"PCM2006_e1","PCM2006_e1_1",4,599,1,"young","L1",5,4024,"Include"
"PCM2006_e1","PCM2006_e1_1",4,600,0,"young","new",1,1356,"Include"
"PCM2006_e1","PCM2006_e1_1",4,601,1,"young","L2",2,3272,"Include"
"PCM2006_e1","PCM2006_e1_1",4,602,1,"young","L2",5,1488,"Include"
"PCM2006_e1","PCM2006_e1_1",4,603,1,"young","L2",6,948,"Include"
"PCM2006_e1","PCM2006_e1_1",4,604,1,"young","L1",6,929,"Include"
"PCM2006_e1","PCM2006_e1_1",4,605,1,"young","L1",6,754,"Include"
"PCM2006_e1","PCM2006_e1_1",4,606,1,"young","L2",2,3118,"Include"
"PCM2006_e1","PCM2006_e1_1",4,607,1,"young","L2",5,1419,"Include"
"PCM2006_e1","PCM2006_e1_1",4,608,1,"young","L1",3,3337,"Include"
"PCM2006_e1","PCM2006_e1_1",4,609,0,"young","new",2,1392,"Include"
"PCM2006_e1","PCM2006_e1_1",4,610,0,"young","new",1,1403,"Include"
"PCM2006_e1","PCM2006_e1_1",4,611,0,"young","new",4,1955,"Include"
"PCM2006_e1","PCM2006_e1_1",4,612,1,"young","L1",5,1784,"Include"
"PCM2006_e1","PCM2006_e1_1",4,613,0,"young","new",3,1917,"Include"
"PCM2006_e1","PCM2006_e1_1",4,614,1,"young","L1",6,1177,"Include"
"PCM2006_e1","PCM2006_e1_1",4,615,1,"young","L2",5,4136,"Include"
"PCM2006_e1","PCM2006_e1_1",4,616,1,"young","L1",4,1153,"Include"
"PCM2006_e1","PCM2006_e1_1",4,617,1,"young","L2",6,894,"Include"
"PCM2006_e1","PCM2006_e1_1",4,618,0,"young","new",2,2153,"Include"
"PCM2006_e1","PCM2006_e1_1",4,619,0,"young","new",1,1199,"Include"
"PCM2006_e1","PCM2006_e1_1",4,620,1,"young","L1",4,6472,"Include"
"PCM2006_e1","PCM2006_e1_1",4,621,0,"young","new",3,1041,"Include"
"PCM2006_e1","PCM2006_e1_1",4,622,1,"young","L2",3,4718,"Include"
"PCM2006_e1","PCM2006_e1_1",4,623,0,"young","new",3,2085,"Include"
"PCM2006_e1","PCM2006_e1_1",4,624,1,"young","L1",5,2920,"Include"
"PCM2006_e1","PCM2006_e1_1",4,625,0,"young","new",5,4989,"Include"
"PCM2006_e1","PCM2006_e1_1",4,626,0,"young","new",1,1362,"Include"
"PCM2006_e1","PCM2006_e1_1",4,627,1,"young","L2",2,2267,"Include"
"PCM2006_e1","PCM2006_e1_1",4,628,1,"young","L1",5,2437,"Include"
"PCM2006_e1","PCM2006_e1_1",4,629,1,"young","L2",4,1526,"Include"
"PCM2006_e1","PCM2006_e1_1",4,630,1,"young","L1",2,2168,"Include"
"PCM2006_e1","PCM2006_e1_1",4,631,1,"young","L2",6,6750,"Include"
"PCM2006_e1","PCM2006_e1_1",4,632,1,"young","L2",1,2823,"Include"
"PCM2006_e1","PCM2006_e1_1",4,633,0,"young","new",1,907,"Include"
"PCM2006_e1","PCM2006_e1_1",4,634,1,"young","L1",2,1744,"Include"
"PCM2006_e1","PCM2006_e1_1",4,635,0,"young","new",1,1400,"Include"
"PCM2006_e1","PCM2006_e1_1",4,636,0,"young","new",1,929,"Include"
"PCM2006_e1","PCM2006_e1_1",4,637,0,"young","new",1,1009,"Include"
"PCM2006_e1","PCM2006_e1_1",4,638,1,"young","L1",6,1289,"Include"
"PCM2006_e1","PCM2006_e1_1",4,639,1,"young","L1",6,1014,"Include"
"PCM2006_e1","PCM2006_e1_1",4,640,0,"young","new",1,2730,"Include"
"PCM2006_e1","PCM2006_e1_1",4,641,0,"young","new",2,3972,"Include"
"PCM2006_e1","PCM2006_e1_1",4,642,1,"young","L2",5,1494,"Include"
"PCM2006_e1","PCM2006_e1_1",4,643,1,"young","L1",6,866,"Include"
"PCM2006_e1","PCM2006_e1_1",4,644,1,"young","L2",4,2434,"Include"
"PCM2006_e1","PCM2006_e1_1",4,645,1,"young","L2",1,2266,"Include"
"PCM2006_e1","PCM2006_e1_1",4,646,1,"young","L2",4,1532,"Include"
"PCM2006_e1","PCM2006_e1_1",4,647,1,"young","L1",6,7677,"Include"
"PCM2006_e1","PCM2006_e1_1",4,648,0,"young","new",4,1295,"Include"
"PCM2006_e1","PCM2006_e1_1",4,649,0,"young","new",3,6855,"Include"
"PCM2006_e1","PCM2006_e1_1",4,650,1,"young","L2",4,1342,"Include"
"PCM2006_e1","PCM2006_e1_1",4,651,0,"young","new",1,1261,"Include"
"PCM2006_e1","PCM2006_e1_1",4,652,1,"young","L2",5,2064,"Include"
"PCM2006_e1","PCM2006_e1_1",4,653,1,"young","L1",6,2161,"Include"
"PCM2006_e1","PCM2006_e1_1",4,654,1,"young","L1",6,1524,"Include"
"PCM2006_e1","PCM2006_e1_1",4,655,1,"young","L2",2,2152,"Include"
"PCM2006_e1","PCM2006_e1_1",4,656,0,"young","new",1,1205,"Include"
"PCM2006_e1","PCM2006_e1_1",4,657,1,"young","L2",1,1077,"Include"
"PCM2006_e1","PCM2006_e1_1",4,658,1,"young","L2",2,1299,"Include"
"PCM2006_e1","PCM2006_e1_1",4,659,1,"young","L2",5,1556,"Include"
"PCM2006_e1","PCM2006_e1_1",4,660,1,"young","L1",6,2704,"Include"
"PCM2006_e1","PCM2006_e1_2",1,76,0,"young","new",4,27548,"Include"
"PCM2006_e1","PCM2006_e1_2",1,77,1,"young","L1",6,4647,"Include"
"PCM2006_e1","PCM2006_e1_2",1,78,1,"young","L1",4,15340,"Include"
"PCM2006_e1","PCM2006_e1_2",1,79,1,"young","L2",6,2394,"Include"
"PCM2006_e1","PCM2006_e1_2",1,80,1,"young","L2",6,1653,"Include"
"PCM2006_e1","PCM2006_e1_2",1,81,1,"young","L2",6,1528,"Include"
"PCM2006_e1","PCM2006_e1_2",1,82,0,"young","new",3,15359,"Include"
"PCM2006_e1","PCM2006_e1_2",1,83,1,"young","L1",6,2464,"Include"
"PCM2006_e1","PCM2006_e1_2",1,84,1,"young","L2",5,15766,"Include"
"PCM2006_e1","PCM2006_e1_2",1,85,1,"young","L1",5,8542,"Include"
"PCM2006_e1","PCM2006_e1_2",1,86,0,"young","new",2,7198,"Include"
"PCM2006_e1","PCM2006_e1_2",1,87,1,"young","L1",4,5776,"Include"
"PCM2006_e1","PCM2006_e1_2",1,88,1,"young","L2",6,1881,"Include"
"PCM2006_e1","PCM2006_e1_2",1,89,1,"young","L1",6,1263,"Include"
"PCM2006_e1","PCM2006_e1_2",1,90,1,"young","L1",6,2680,"Include"
"PCM2006_e1","PCM2006_e1_2",1,91,1,"young","L2",5,8662,"Include"
"PCM2006_e1","PCM2006_e1_2",1,92,1,"young","L2",6,1803,"Include"
"PCM2006_e1","PCM2006_e1_2",1,93,0,"young","new",2,4834,"Include"
"PCM2006_e1","PCM2006_e1_2",1,94,1,"young","L2",6,4021,"Include"
"PCM2006_e1","PCM2006_e1_2",1,95,1,"young","L1",6,1248,"Include"
"PCM2006_e1","PCM2006_e1_2",1,96,0,"young","new",2,2583,"Include"
"PCM2006_e1","PCM2006_e1_2",1,97,1,"young","L2",6,7051,"Include"
"PCM2006_e1","PCM2006_e1_2",1,98,1,"young","L1",6,3938,"Include"
"PCM2006_e1","PCM2006_e1_2",1,99,1,"young","L1",4,4746,"Include"
"PCM2006_e1","PCM2006_e1_2",1,100,1,"young","L1",5,6647,"Include"
"PCM2006_e1","PCM2006_e1_2",1,101,0,"young","new",4,6376,"Include"
"PCM2006_e1","PCM2006_e1_2",1,102,1,"young","L2",6,1352,"Include"
"PCM2006_e1","PCM2006_e1_2",1,103,1,"young","L1",5,3228,"Include"
"PCM2006_e1","PCM2006_e1_2",1,104,1,"young","L1",2,4120,"Include"
"PCM2006_e1","PCM2006_e1_2",1,105,0,"young","new",2,4333,"Include"
"PCM2006_e1","PCM2006_e1_2",1,106,1,"young","L2",6,1289,"Include"
"PCM2006_e1","PCM2006_e1_2",1,107,0,"young","new",2,2532,"Include"
"PCM2006_e1","PCM2006_e1_2",1,108,1,"young","L1",4,5990,"Include"
"PCM2006_e1","PCM2006_e1_2",1,109,1,"young","L1",3,4875,"Include"
"PCM2006_e1","PCM2006_e1_2",1,110,0,"young","new",3,8553,"Include"
"PCM2006_e1","PCM2006_e1_2",1,111,1,"young","L2",4,3687,"Include"
"PCM2006_e1","PCM2006_e1_2",1,112,1,"young","L2",6,1445,"Include"
"PCM2006_e1","PCM2006_e1_2",1,113,0,"young","new",3,3882,"Include"
"PCM2006_e1","PCM2006_e1_2",1,114,1,"young","L2",6,1656,"Include"
"PCM2006_e1","PCM2006_e1_2",1,115,1,"young","L1",6,5739,"Include"
"PCM2006_e1","PCM2006_e1_2",1,116,0,"young","new",3,2652,"Include"
"PCM2006_e1","PCM2006_e1_2",1,117,0,"young","new",3,6736,"Include"
"PCM2006_e1","PCM2006_e1_2",1,118,1,"young","L2",5,3625,"Include"
"PCM2006_e1","PCM2006_e1_2",1,119,0,"young","new",2,6205,"Include"
"PCM2006_e1","PCM2006_e1_2",1,120,1,"young","L1",3,8990,"Include"
"PCM2006_e1","PCM2006_e1_2",1,121,0,"young","new",2,2869,"Include"
"PCM2006_e1","PCM2006_e1_2",1,122,0,"young","new",2,2439,"Include"
"PCM2006_e1","PCM2006_e1_2",1,123,1,"young","L1",5,1744,"Include"
"PCM2006_e1","PCM2006_e1_2",1,124,0,"young","new",2,2151,"Include"
"PCM2006_e1","PCM2006_e1_2",1,125,1,"young","L2",6,1284,"Include"
"PCM2006_e1","PCM2006_e1_2",1,126,0,"young","new",2,2408,"Include"
"PCM2006_e1","PCM2006_e1_2",1,127,0,"young","new",2,7367,"Include"
"PCM2006_e1","PCM2006_e1_2",1,128,1,"young","L1",3,3179,"Include"
"PCM2006_e1","PCM2006_e1_2",1,129,0,"young","new",3,2872,"Include"
"PCM2006_e1","PCM2006_e1_2",1,130,1,"young","L1",6,5423,"Include"
"PCM2006_e1","PCM2006_e1_2",1,131,0,"young","new",3,5787,"Include"
"PCM2006_e1","PCM2006_e1_2",1,132,1,"young","L1",6,1497,"Include"
"PCM2006_e1","PCM2006_e1_2",1,133,1,"young","L2",6,3562,"Include"
"PCM2006_e1","PCM2006_e1_2",1,134,0,"young","new",2,1893,"Include"
"PCM2006_e1","PCM2006_e1_2",1,135,1,"young","L1",5,4265,"Include"
"PCM2006_e1","PCM2006_e1_2",1,136,1,"young","L2",6,1483,"Include"
"PCM2006_e1","PCM2006_e1_2",1,137,1,"young","L2",3,2946,"Include"
"PCM2006_e1","PCM2006_e1_2",1,138,0,"young","new",2,5984,"Include"
"PCM2006_e1","PCM2006_e1_2",1,139,1,"young","L2",6,1648,"Include"
"PCM2006_e1","PCM2006_e1_2",1,140,1,"young","L2",6,1031,"Include"
"PCM2006_e1","PCM2006_e1_2",1,141,1,"young","L1",3,4209,"Include"
"PCM2006_e1","PCM2006_e1_2",1,142,1,"young","L2",6,2376,"Include"
"PCM2006_e1","PCM2006_e1_2",1,143,0,"young","new",3,2448,"Include"
"PCM2006_e1","PCM2006_e1_2",1,144,1,"young","L1",3,4566,"Include"
"PCM2006_e1","PCM2006_e1_2",1,145,1,"young","L2",3,4727,"Include"
"PCM2006_e1","PCM2006_e1_2",1,146,1,"young","L2",6,1658,"Include"
"PCM2006_e1","PCM2006_e1_2",1,147,0,"young","new",2,2662,"Include"
"PCM2006_e1","PCM2006_e1_2",1,148,1,"young","L2",2,4599,"Include"
"PCM2006_e1","PCM2006_e1_2",1,149,1,"young","L2",6,1944,"Include"
"PCM2006_e1","PCM2006_e1_2",1,150,0,"young","new",1,4783,"Include"
"PCM2006_e1","PCM2006_e1_2",1,151,1,"young","L1",4,7302,"Include"
"PCM2006_e1","PCM2006_e1_2",1,152,1,"young","L1",6,2087,"Include"
"PCM2006_e1","PCM2006_e1_2",1,153,0,"young","new",6,4635,"Include"
"PCM2006_e1","PCM2006_e1_2",1,154,1,"young","L1",6,1854,"Include"
"PCM2006_e1","PCM2006_e1_2",1,155,1,"young","L2",6,2729,"Include"
"PCM2006_e1","PCM2006_e1_2",1,156,0,"young","new",3,5075,"Include"
"PCM2006_e1","PCM2006_e1_2",1,157,0,"young","new",2,10082,"Include"
"PCM2006_e1","PCM2006_e1_2",1,158,1,"young","L2",1,3675,"Include"
"PCM2006_e1","PCM2006_e1_2",1,159,1,"young","L1",4,1826,"Include"
"PCM2006_e1","PCM2006_e1_2",1,160,0,"young","new",1,2310,"Include"
"PCM2006_e1","PCM2006_e1_2",1,161,0,"young","new",3,7764,"Include"
"PCM2006_e1","PCM2006_e1_2",1,162,1,"young","L2",4,2950,"Include"
"PCM2006_e1","PCM2006_e1_2",1,163,1,"young","L2",6,1492,"Include"
"PCM2006_e1","PCM2006_e1_2",1,164,1,"young","L1",6,961,"Include"
"PCM2006_e1","PCM2006_e1_2",1,165,1,"young","L1",6,826,"Include"
"PCM2006_e1","PCM2006_e1_2",2,241,1,"young","L1",6,4254,"Include"
"PCM2006_e1","PCM2006_e1_2",2,242,0,"young","new",2,8594,"Include"
"PCM2006_e1","PCM2006_e1_2",2,243,1,"young","L1",6,2560,"Include"
"PCM2006_e1","PCM2006_e1_2",2,244,0,"young","new",2,7642,"Include"
"PCM2006_e1","PCM2006_e1_2",2,245,1,"young","L2",6,1228,"Include"
"PCM2006_e1","PCM2006_e1_2",2,246,1,"young","L2",5,8590,"Include"
"PCM2006_e1","PCM2006_e1_2",2,247,1,"young","L1",6,2012,"Include"
"PCM2006_e1","PCM2006_e1_2",2,248,1,"young","L2",6,3370,"Include"
"PCM2006_e1","PCM2006_e1_2",2,249,1,"young","L1",6,1898,"Include"
"PCM2006_e1","PCM2006_e1_2",2,250,1,"young","L1",6,1972,"Include"
"PCM2006_e1","PCM2006_e1_2",2,251,1,"young","L1",6,1836,"Include"
"PCM2006_e1","PCM2006_e1_2",2,252,1,"young","L2",6,2469,"Include"
"PCM2006_e1","PCM2006_e1_2",2,253,0,"young","new",4,8140,"Include"
"PCM2006_e1","PCM2006_e1_2",2,254,1,"young","L2",6,2135,"Include"
"PCM2006_e1","PCM2006_e1_2",2,255,1,"young","L2",6,2319,"Include"
"PCM2006_e1","PCM2006_e1_2",2,256,1,"young","L2",6,1676,"Include"
"PCM2006_e1","PCM2006_e1_2",2,257,0,"young","new",2,3018,"Include"
"PCM2006_e1","PCM2006_e1_2",2,258,1,"young","L1",6,3000,"Include"
"PCM2006_e1","PCM2006_e1_2",2,259,1,"young","L1",6,1009,"Include"
"PCM2006_e1","PCM2006_e1_2",2,260,1,"young","L2",6,705,"Include"
"PCM2006_e1","PCM2006_e1_2",2,261,1,"young","L1",5,4255,"Include"
"PCM2006_e1","PCM2006_e1_2",2,262,1,"young","L1",6,2060,"Include"
"PCM2006_e1","PCM2006_e1_2",2,263,0,"young","new",2,4560,"Include"
"PCM2006_e1","PCM2006_e1_2",2,264,0,"young","new",4,7706,"Include"
"PCM2006_e1","PCM2006_e1_2",2,265,1,"young","L1",5,2020,"Include"
"PCM2006_e1","PCM2006_e1_2",2,266,0,"young","new",2,4576,"Include"
"PCM2006_e1","PCM2006_e1_2",2,267,0,"young","new",2,2585,"Include"
"PCM2006_e1","PCM2006_e1_2",2,268,1,"young","L2",6,1159,"Include"
"PCM2006_e1","PCM2006_e1_2",2,269,0,"young","new",4,4536,"Include"
"PCM2006_e1","PCM2006_e1_2",2,270,1,"young","L2",6,1529,"Include"
"PCM2006_e1","PCM2006_e1_2",2,271,1,"young","L2",6,2835,"Include"
"PCM2006_e1","PCM2006_e1_2",2,272,1,"young","L2",6,811,"Include"
"PCM2006_e1","PCM2006_e1_2",2,273,1,"young","L1",6,1481,"Include"
"PCM2006_e1","PCM2006_e1_2",2,274,0,"young","new",3,11086,"Include"
"PCM2006_e1","PCM2006_e1_2",2,275,1,"young","L1",4,6311,"Include"
"PCM2006_e1","PCM2006_e1_2",2,276,1,"young","L1",6,1056,"Include"
"PCM2006_e1","PCM2006_e1_2",2,277,0,"young","new",2,1676,"Include"
"PCM2006_e1","PCM2006_e1_2",2,278,1,"young","L2",4,16415,"Include"
"PCM2006_e1","PCM2006_e1_2",2,279,0,"young","new",1,3123,"Include"
"PCM2006_e1","PCM2006_e1_2",2,280,1,"young","L2",6,1273,"Include"
"PCM2006_e1","PCM2006_e1_2",2,281,1,"young","L1",6,1569,"Include"
"PCM2006_e1","PCM2006_e1_2",2,282,0,"young","new",2,10015,"Include"
"PCM2006_e1","PCM2006_e1_2",2,283,1,"young","L1",4,5279,"Include"
"PCM2006_e1","PCM2006_e1_2",2,284,1,"young","L1",6,1240,"Include"
"PCM2006_e1","PCM2006_e1_2",2,285,1,"young","L2",6,1080,"Include"
"PCM2006_e1","PCM2006_e1_2",2,286,0,"young","new",3,5437,"Include"
"PCM2006_e1","PCM2006_e1_2",2,287,0,"young","new",2,3760,"Include"
"PCM2006_e1","PCM2006_e1_2",2,288,1,"young","L2",6,1075,"Include"
"PCM2006_e1","PCM2006_e1_2",2,289,1,"young","L1",6,1146,"Include"
"PCM2006_e1","PCM2006_e1_2",2,290,0,"young","new",2,5824,"Include"
"PCM2006_e1","PCM2006_e1_2",2,291,1,"young","L1",6,1038,"Include"
"PCM2006_e1","PCM2006_e1_2",2,292,1,"young","L2",4,3942,"Include"
"PCM2006_e1","PCM2006_e1_2",2,293,1,"young","L2",6,2502,"Include"
"PCM2006_e1","PCM2006_e1_2",2,294,1,"young","L2",6,872,"Include"
"PCM2006_e1","PCM2006_e1_2",2,295,0,"young","new",2,2920,"Include"
"PCM2006_e1","PCM2006_e1_2",2,296,1,"young","L1",6,6148,"Include"
"PCM2006_e1","PCM2006_e1_2",2,297,1,"young","L1",3,6339,"Include"
"PCM2006_e1","PCM2006_e1_2",2,298,1,"young","L2",6,3381,"Include"
"PCM2006_e1","PCM2006_e1_2",2,299,0,"young","new",3,6739,"Include"
"PCM2006_e1","PCM2006_e1_2",2,300,1,"young","L1",6,1189,"Include"
"PCM2006_e1","PCM2006_e1_2",2,301,1,"young","L1",4,2943,"Include"
"PCM2006_e1","PCM2006_e1_2",2,302,0,"young","new",6,1303,"Include"
"PCM2006_e1","PCM2006_e1_2",2,303,1,"young","L2",6,3224,"Include"
"PCM2006_e1","PCM2006_e1_2",2,304,1,"young","L2",6,997,"Include"
"PCM2006_e1","PCM2006_e1_2",2,305,0,"young","new",2,2126,"Include"
"PCM2006_e1","PCM2006_e1_2",2,306,1,"young","L2",6,1713,"Include"
"PCM2006_e1","PCM2006_e1_2",2,307,1,"young","L2",5,4855,"Include"
"PCM2006_e1","PCM2006_e1_2",2,308,0,"young","new",4,5323,"Include"
"PCM2006_e1","PCM2006_e1_2",2,309,1,"young","L2",6,1200,"Include"
"PCM2006_e1","PCM2006_e1_2",2,310,1,"young","L1",6,1664,"Include"
"PCM2006_e1","PCM2006_e1_2",2,311,1,"young","L2",5,2128,"Include"
"PCM2006_e1","PCM2006_e1_2",2,312,0,"young","new",3,3834,"Include"
"PCM2006_e1","PCM2006_e1_2",2,313,1,"young","L1",4,3739,"Include"
"PCM2006_e1","PCM2006_e1_2",2,314,1,"young","L2",3,5436,"Include"
"PCM2006_e1","PCM2006_e1_2",2,315,1,"young","L1",6,1750,"Include"
"PCM2006_e1","PCM2006_e1_2",2,316,1,"young","L2",6,1531,"Include"
"PCM2006_e1","PCM2006_e1_2",2,317,0,"young","new",3,4165,"Include"
"PCM2006_e1","PCM2006_e1_2",2,318,0,"young","new",2,3560,"Include"
"PCM2006_e1","PCM2006_e1_2",2,319,1,"young","L1",6,1763,"Include"
"PCM2006_e1","PCM2006_e1_2",2,320,0,"young","new",6,1453,"Include"
"PCM2006_e1","PCM2006_e1_2",2,321,1,"young","L2",6,1121,"Include"
"PCM2006_e1","PCM2006_e1_2",2,322,0,"young","new",4,10028,"Include"
"PCM2006_e1","PCM2006_e1_2",2,323,1,"young","L1",5,1874,"Include"
"PCM2006_e1","PCM2006_e1_2",2,324,0,"young","new",5,1376,"Include"
"PCM2006_e1","PCM2006_e1_2",2,325,1,"young","L1",5,1216,"Include"
"PCM2006_e1","PCM2006_e1_2",2,326,0,"young","new",4,3628,"Include"
"PCM2006_e1","PCM2006_e1_2",2,327,1,"young","L2",5,6744,"Include"
"PCM2006_e1","PCM2006_e1_2",2,328,0,"young","new",3,6654,"Include"
"PCM2006_e1","PCM2006_e1_2",2,329,1,"young","L1",4,1965,"Include"
"PCM2006_e1","PCM2006_e1_2",2,330,0,"young","new",2,4199,"Include"
"PCM2006_e1","PCM2006_e1_2",3,406,1,"young","L2",6,4517,"Include"
"PCM2006_e1","PCM2006_e1_2",3,407,0,"young","new",3,8770,"Include"
"PCM2006_e1","PCM2006_e1_2",3,408,0,"young","new",2,3469,"Include"
"PCM2006_e1","PCM2006_e1_2",3,409,1,"young","L1",5,4679,"Include"
"PCM2006_e1","PCM2006_e1_2",3,410,1,"young","L1",6,1072,"Include"
"PCM2006_e1","PCM2006_e1_2",3,411,0,"young","new",3,6368,"Include"
"PCM2006_e1","PCM2006_e1_2",3,412,0,"young","new",2,3890,"Include"
"PCM2006_e1","PCM2006_e1_2",3,413,1,"young","L1",6,1806,"Include"
"PCM2006_e1","PCM2006_e1_2",3,414,1,"young","L2",6,1047,"Include"
"PCM2006_e1","PCM2006_e1_2",3,415,1,"young","L1",6,757,"Include"
"PCM2006_e1","PCM2006_e1_2",3,416,1,"young","L2",6,809,"Include"
"PCM2006_e1","PCM2006_e1_2",3,417,0,"young","new",4,2400,"Include"
"PCM2006_e1","PCM2006_e1_2",3,418,1,"young","L1",6,1160,"Include"
"PCM2006_e1","PCM2006_e1_2",3,419,1,"young","L2",6,811,"Include"
"PCM2006_e1","PCM2006_e1_2",3,420,1,"young","L2",6,720,"Include"
"PCM2006_e1","PCM2006_e1_2",3,421,1,"young","L1",6,1260,"Include"
"PCM2006_e1","PCM2006_e1_2",3,422,0,"young","new",3,4919,"Include"
"PCM2006_e1","PCM2006_e1_2",3,423,0,"young","new",2,3125,"Include"
"PCM2006_e1","PCM2006_e1_2",3,424,1,"young","L2",6,1360,"Include"
"PCM2006_e1","PCM2006_e1_2",3,425,1,"young","L2",6,737,"Include"
"PCM2006_e1","PCM2006_e1_2",3,426,1,"young","L1",6,1160,"Include"
"PCM2006_e1","PCM2006_e1_2",3,427,1,"young","L2",6,1227,"Include"
"PCM2006_e1","PCM2006_e1_2",3,428,0,"young","new",1,2765,"Include"
"PCM2006_e1","PCM2006_e1_2",3,429,1,"young","L2",6,1784,"Include"
"PCM2006_e1","PCM2006_e1_2",3,430,0,"young","new",3,3357,"Include"
"PCM2006_e1","PCM2006_e1_2",3,431,1,"young","L1",3,5592,"Include"
"PCM2006_e1","PCM2006_e1_2",3,432,1,"young","L1",4,6196,"Include"
"PCM2006_e1","PCM2006_e1_2",3,433,1,"young","L2",4,5041,"Include"
"PCM2006_e1","PCM2006_e1_2",3,434,1,"young","L1",5,2088,"Include"
"PCM2006_e1","PCM2006_e1_2",3,435,1,"young","L1",6,1821,"Include"
"PCM2006_e1","PCM2006_e1_2",3,436,0,"young","new",3,5104,"Include"
"PCM2006_e1","PCM2006_e1_2",3,437,0,"young","new",3,4640,"Include"
"PCM2006_e1","PCM2006_e1_2",3,438,0,"young","new",2,2631,"Include"
"PCM2006_e1","PCM2006_e1_2",3,439,1,"young","L2",6,937,"Include"
"PCM2006_e1","PCM2006_e1_2",3,440,1,"young","L2",6,848,"Include"
"PCM2006_e1","PCM2006_e1_2",3,441,0,"young","new",1,2701,"Include"
"PCM2006_e1","PCM2006_e1_2",3,442,1,"young","L1",6,2303,"Include"
"PCM2006_e1","PCM2006_e1_2",3,443,0,"young","new",3,2497,"Include"
"PCM2006_e1","PCM2006_e1_2",3,444,0,"young","new",3,6626,"Include"
"PCM2006_e1","PCM2006_e1_2",3,445,1,"young","L2",6,959,"Include"
"PCM2006_e1","PCM2006_e1_2",3,446,1,"young","L1",4,2914,"Include"
"PCM2006_e1","PCM2006_e1_2",3,447,0,"young","new",2,3297,"Include"
"PCM2006_e1","PCM2006_e1_2",3,448,1,"young","L1",6,2691,"Include"
"PCM2006_e1","PCM2006_e1_2",3,449,1,"young","L1",6,2071,"Include"
"PCM2006_e1","PCM2006_e1_2",3,450,1,"young","L2",3,2257,"Include"
"PCM2006_e1","PCM2006_e1_2",3,451,1,"young","L2",6,972,"Include"
"PCM2006_e1","PCM2006_e1_2",3,452,1,"young","L2",5,2140,"Include"
"PCM2006_e1","PCM2006_e1_2",3,453,0,"young","new",2,5282,"Include"
"PCM2006_e1","PCM2006_e1_2",3,454,0,"young","new",2,1977,"Include"
"PCM2006_e1","PCM2006_e1_2",3,455,1,"young","L1",6,1257,"Include"
"PCM2006_e1","PCM2006_e1_2",3,456,1,"young","L2",6,3004,"Include"
"PCM2006_e1","PCM2006_e1_2",3,457,1,"young","L1",6,1061,"Include"
"PCM2006_e1","PCM2006_e1_2",3,458,0,"young","new",3,3039,"Include"
"PCM2006_e1","PCM2006_e1_2",3,459,1,"young","L2",6,1281,"Include"
"PCM2006_e1","PCM2006_e1_2",3,460,1,"young","L2",6,1624,"Include"
"PCM2006_e1","PCM2006_e1_2",3,461,0,"young","new",4,3969,"Include"
"PCM2006_e1","PCM2006_e1_2",3,462,0,"young","new",1,2723,"Include"
"PCM2006_e1","PCM2006_e1_2",3,463,1,"young","L1",6,3735,"Include"
"PCM2006_e1","PCM2006_e1_2",3,464,1,"young","L2",5,1552,"Include"
"PCM2006_e1","PCM2006_e1_2",3,465,1,"young","L1",5,2340,"Include"
"PCM2006_e1","PCM2006_e1_2",3,466,0,"young","new",5,1572,"Include"
"PCM2006_e1","PCM2006_e1_2",3,467,1,"young","L1",5,1947,"Include"
"PCM2006_e1","PCM2006_e1_2",3,468,1,"young","L2",5,2193,"Include"
"PCM2006_e1","PCM2006_e1_2",3,469,1,"young","L1",6,3275,"Include"
"PCM2006_e1","PCM2006_e1_2",3,470,1,"young","L1",5,1803,"Include"
"PCM2006_e1","PCM2006_e1_2",3,471,0,"young","new",1,2771,"Include"
"PCM2006_e1","PCM2006_e1_2",3,472,1,"young","L2",5,3890,"Include"
"PCM2006_e1","PCM2006_e1_2",3,473,1,"young","L2",6,2304,"Include"
"PCM2006_e1","PCM2006_e1_2",3,474,0,"young","new",3,2991,"Include"
"PCM2006_e1","PCM2006_e1_2",3,475,1,"young","L1",6,1499,"Include"
"PCM2006_e1","PCM2006_e1_2",3,476,1,"young","L1",5,1835,"Include"
"PCM2006_e1","PCM2006_e1_2",3,477,1,"young","L1",5,1868,"Include"
"PCM2006_e1","PCM2006_e1_2",3,478,0,"young","new",3,3085,"Include"
"PCM2006_e1","PCM2006_e1_2",3,479,1,"young","L1",6,1098,"Include"
"PCM2006_e1","PCM2006_e1_2",3,480,1,"young","L2",6,803,"Include"
"PCM2006_e1","PCM2006_e1_2",3,481,1,"young","L1",6,1059,"Include"
"PCM2006_e1","PCM2006_e1_2",3,482,1,"young","L2",6,886,"Include"
"PCM2006_e1","PCM2006_e1_2",3,483,1,"young","L2",6,1722,"Include"
"PCM2006_e1","PCM2006_e1_2",3,484,0,"young","new",3,3758,"Include"
"PCM2006_e1","PCM2006_e1_2",3,485,1,"young","L1",5,3505,"Include"
"PCM2006_e1","PCM2006_e1_2",3,486,1,"young","L2",3,7512,"Include"
"PCM2006_e1","PCM2006_e1_2",3,487,1,"young","L1",5,1919,"Include"
"PCM2006_e1","PCM2006_e1_2",3,488,1,"young","L1",6,1748,"Include"
"PCM2006_e1","PCM2006_e1_2",3,489,0,"young","new",3,2545,"Include"
"PCM2006_e1","PCM2006_e1_2",3,490,1,"young","L2",6,1129,"Include"
"PCM2006_e1","PCM2006_e1_2",3,491,0,"young","new",2,2850,"Include"
"PCM2006_e1","PCM2006_e1_2",3,492,1,"young","L2",6,1313,"Include"
"PCM2006_e1","PCM2006_e1_2",3,493,0,"young","new",1,3207,"Include"
"PCM2006_e1","PCM2006_e1_2",3,494,0,"young","new",1,2383,"Include"
"PCM2006_e1","PCM2006_e1_2",3,495,1,"young","L2",6,1205,"Include"
"PCM2006_e1","PCM2006_e1_2",4,571,0,"young","new",3,6292,"Include"
"PCM2006_e1","PCM2006_e1_2",4,572,0,"young","new",2,3312,"Include"
"PCM2006_e1","PCM2006_e1_2",4,573,0,"young","new",3,2528,"Include"
"PCM2006_e1","PCM2006_e1_2",4,574,1,"young","L2",6,1243,"Include"
"PCM2006_e1","PCM2006_e1_2",4,575,1,"young","L1",6,2080,"Include"
"PCM2006_e1","PCM2006_e1_2",4,576,0,"young","new",3,4726,"Include"
"PCM2006_e1","PCM2006_e1_2",4,577,0,"young","new",3,3425,"Include"
"PCM2006_e1","PCM2006_e1_2",4,578,1,"young","L2",6,1157,"Include"
"PCM2006_e1","PCM2006_e1_2",4,579,0,"young","new",4,9638,"Include"
"PCM2006_e1","PCM2006_e1_2",4,580,1,"young","L1",6,2361,"Include"
"PCM2006_e1","PCM2006_e1_2",4,581,0,"young","new",3,3379,"Include"
"PCM2006_e1","PCM2006_e1_2",4,582,1,"young","L1",6,3721,"Include"
"PCM2006_e1","PCM2006_e1_2",4,583,1,"young","L2",5,1503,"Include"
"PCM2006_e1","PCM2006_e1_2",4,584,0,"young","new",2,4224,"Include"
"PCM2006_e1","PCM2006_e1_2",4,585,1,"young","L2",6,1044,"Include"
"PCM2006_e1","PCM2006_e1_2",4,586,1,"young","L2",6,1178,"Include"
"PCM2006_e1","PCM2006_e1_2",4,587,1,"young","L1",6,954,"Include"
"PCM2006_e1","PCM2006_e1_2",4,588,0,"young","new",3,2869,"Include"
"PCM2006_e1","PCM2006_e1_2",4,589,1,"young","L2",6,2671,"Include"
"PCM2006_e1","PCM2006_e1_2",4,590,0,"young","new",2,3257,"Include"
"PCM2006_e1","PCM2006_e1_2",4,591,1,"young","L2",6,829,"Include"
"PCM2006_e1","PCM2006_e1_2",4,592,1,"young","L1",4,3535,"Include"
"PCM2006_e1","PCM2006_e1_2",4,593,1,"young","L1",6,1128,"Include"
"PCM2006_e1","PCM2006_e1_2",4,594,0,"young","new",1,3113,"Include"
"PCM2006_e1","PCM2006_e1_2",4,595,1,"young","L1",3,5536,"Include"
"PCM2006_e1","PCM2006_e1_2",4,596,1,"young","L2",6,3585,"Include"
"PCM2006_e1","PCM2006_e1_2",4,597,1,"young","L2",6,736,"Include"
"PCM2006_e1","PCM2006_e1_2",4,598,1,"young","L1",6,954,"Include"
"PCM2006_e1","PCM2006_e1_2",4,599,0,"young","new",3,2509,"Include"
"PCM2006_e1","PCM2006_e1_2",4,600,1,"young","L2",6,949,"Include"
"PCM2006_e1","PCM2006_e1_2",4,601,1,"young","L1",3,4777,"Include"
"PCM2006_e1","PCM2006_e1_2",4,602,1,"young","L1",5,1647,"Include"
"PCM2006_e1","PCM2006_e1_2",4,603,1,"young","L1",6,1094,"Include"
"PCM2006_e1","PCM2006_e1_2",4,604,0,"young","new",3,3817,"Include"
"PCM2006_e1","PCM2006_e1_2",4,605,0,"young","new",2,2440,"Include"
"PCM2006_e1","PCM2006_e1_2",4,606,1,"young","L1",6,1849,"Include"
"PCM2006_e1","PCM2006_e1_2",4,607,1,"young","L1",3,3462,"Include"
"PCM2006_e1","PCM2006_e1_2",4,608,0,"young","new",3,3041,"Include"
"PCM2006_e1","PCM2006_e1_2",4,609,1,"young","L2",6,1431,"Include"
"PCM2006_e1","PCM2006_e1_2",4,610,1,"young","L2",6,744,"Include"
"PCM2006_e1","PCM2006_e1_2",4,611,1,"young","L2",6,823,"Include"
"PCM2006_e1","PCM2006_e1_2",4,612,0,"young","new",4,3249,"Include"
"PCM2006_e1","PCM2006_e1_2",4,613,1,"young","L2",5,1232,"Include"
"PCM2006_e1","PCM2006_e1_2",4,614,0,"young","new",2,2352,"Include"
"PCM2006_e1","PCM2006_e1_2",4,615,1,"young","L1",6,1293,"Include"
"PCM2006_e1","PCM2006_e1_2",4,616,0,"young","new",3,2897,"Include"
"PCM2006_e1","PCM2006_e1_2",4,617,1,"young","L1",3,2219,"Include"
"PCM2006_e1","PCM2006_e1_2",4,618,1,"young","L2",6,817,"Include"
"PCM2006_e1","PCM2006_e1_2",4,619,1,"young","L2",6,1838,"Include"
"PCM2006_e1","PCM2006_e1_2",4,620,0,"young","new",2,3934,"Include"
"PCM2006_e1","PCM2006_e1_2",4,621,1,"young","L2",5,1647,"Include"
"PCM2006_e1","PCM2006_e1_2",4,622,1,"young","L1",6,1589,"Include"
"PCM2006_e1","PCM2006_e1_2",4,623,1,"young","L2",6,984,"Include"
"PCM2006_e1","PCM2006_e1_2",4,624,0,"young","new",1,1941,"Include"
"PCM2006_e1","PCM2006_e1_2",4,625,1,"young","L2",6,1276,"Include"
"PCM2006_e1","PCM2006_e1_2",4,626,1,"young","L2",5,1370,"Include"
"PCM2006_e1","PCM2006_e1_2",4,627,1,"young","L1",6,962,"Include"
"PCM2006_e1","PCM2006_e1_2",4,628,0,"young","new",4,2195,"Include"
"PCM2006_e1","PCM2006_e1_2",4,629,1,"young","L1",4,6678,"Include"
"PCM2006_e1","PCM2006_e1_2",4,630,0,"young","new",3,2335,"Include"
"PCM2006_e1","PCM2006_e1_2",4,631,1,"young","L1",6,1489,"Include"
"PCM2006_e1","PCM2006_e1_2",4,632,1,"young","L1",6,1029,"Include"
"PCM2006_e1","PCM2006_e1_2",4,633,1,"young","L2",3,3400,"Include"
"PCM2006_e1","PCM2006_e1_2",4,634,0,"young","new",2,2144,"Include"
"PCM2006_e1","PCM2006_e1_2",4,635,1,"young","L2",4,2808,"Include"
"PCM2006_e1","PCM2006_e1_2",4,636,1,"young","L2",5,3016,"Include"
"PCM2006_e1","PCM2006_e1_2",4,637,1,"young","L2",5,2822,"Include"
"PCM2006_e1","PCM2006_e1_2",4,638,0,"young","new",2,1898,"Include"
"PCM2006_e1","PCM2006_e1_2",4,639,0,"young","new",2,3147,"Include"
"PCM2006_e1","PCM2006_e1_2",4,640,1,"young","L2",6,1129,"Include"
"PCM2006_e1","PCM2006_e1_2",4,641,1,"young","L2",3,3994,"Include"
"PCM2006_e1","PCM2006_e1_2",4,642,1,"young","L1",5,1999,"Include"
"PCM2006_e1","PCM2006_e1_2",4,643,0,"young","new",1,6766,"Include"
"PCM2006_e1","PCM2006_e1_2",4,644,1,"young","L1",6,1049,"Include"
"PCM2006_e1","PCM2006_e1_2",4,645,1,"young","L1",6,1039,"Include"
"PCM2006_e1","PCM2006_e1_2",4,646,1,"young","L1",6,1390,"Include"
"PCM2006_e1","PCM2006_e1_2",4,647,0,"young","new",2,3057,"Include"
"PCM2006_e1","PCM2006_e1_2",4,648,1,"young","L2",5,1366,"Include"
"PCM2006_e1","PCM2006_e1_2",4,649,1,"young","L2",6,2072,"Include"
"PCM2006_e1","PCM2006_e1_2",4,650,1,"young","L1",5,2768,"Include"
"PCM2006_e1","PCM2006_e1_2",4,651,1,"young","L2",6,1377,"Include"
"PCM2006_e1","PCM2006_e1_2",4,652,1,"young","L1",5,1097,"Include"
"PCM2006_e1","PCM2006_e1_2",4,653,0,"young","new",4,1793,"Include"
"PCM2006_e1","PCM2006_e1_2",4,654,0,"young","new",4,4259,"Include"
"PCM2006_e1","PCM2006_e1_2",4,655,1,"young","L1",4,4465,"Include"
"PCM2006_e1","PCM2006_e1_2",4,656,1,"young","L2",5,1195,"Include"
"PCM2006_e1","PCM2006_e1_2",4,657,1,"young","L1",5,806,"Include"
"PCM2006_e1","PCM2006_e1_2",4,658,1,"young","L1",5,902,"Include"
"PCM2006_e1","PCM2006_e1_2",4,659,1,"young","L1",5,1254,"Include"
"PCM2006_e1","PCM2006_e1_2",4,660,0,"young","new",2,1106,"Include"
"PCM2006_e1","PCM2006_e1_3",1,76,1,"young","L2",6,3675,"Include"
"PCM2006_e1","PCM2006_e1_3",1,77,0,"young","new",2,3978,"Include"
"PCM2006_e1","PCM2006_e1_3",1,78,0,"young","new",2,3504,"Include"
"PCM2006_e1","PCM2006_e1_3",1,79,1,"young","L1",5,4872,"Include"
"PCM2006_e1","PCM2006_e1_3",1,80,1,"young","L1",2,1921,"Include"
"PCM2006_e1","PCM2006_e1_3",1,81,1,"young","L1",6,1500,"Include"
"PCM2006_e1","PCM2006_e1_3",1,82,1,"young","L2",3,3757,"Include"
"PCM2006_e1","PCM2006_e1_3",1,83,0,"young","new",3,3337,"Include"
"PCM2006_e1","PCM2006_e1_3",1,84,1,"young","L1",3,1353,"Include"
"PCM2006_e1","PCM2006_e1_3",1,85,0,"young","new",2,3150,"Include"
"PCM2006_e1","PCM2006_e1_3",1,86,1,"young","L2",5,1835,"Include"
"PCM2006_e1","PCM2006_e1_3",1,87,0,"young","new",3,1788,"Include"
"PCM2006_e1","PCM2006_e1_3",1,88,1,"young","L1",4,3249,"Include"
"PCM2006_e1","PCM2006_e1_3",1,89,0,"young","new",1,1600,"Include"
"PCM2006_e1","PCM2006_e1_3",1,90,0,"young","new",2,3096,"Include"
"PCM2006_e1","PCM2006_e1_3",1,91,1,"young","L1",6,1330,"Include"
"PCM2006_e1","PCM2006_e1_3",1,92,1,"young","L1",6,867,"Include"
"PCM2006_e1","PCM2006_e1_3",1,93,1,"young","L2",2,2132,"Include"
"PCM2006_e1","PCM2006_e1_3",1,94,1,"young","L1",3,1663,"Include"
"PCM2006_e1","PCM2006_e1_3",1,95,0,"young","new",2,4247,"Include"
"PCM2006_e1","PCM2006_e1_3",1,96,1,"young","L2",4,2310,"Include"
"PCM2006_e1","PCM2006_e1_3",1,97,1,"young","L1",6,1654,"Include"
"PCM2006_e1","PCM2006_e1_3",1,98,0,"young","new",2,1689,"Include"
"PCM2006_e1","PCM2006_e1_3",1,99,0,"young","new",1,1069,"Include"
"PCM2006_e1","PCM2006_e1_3",1,100,0,"young","new",1,982,"Include"
"PCM2006_e1","PCM2006_e1_3",1,101,1,"young","L2",6,1370,"Include"
"PCM2006_e1","PCM2006_e1_3",1,102,1,"young","L1",6,1362,"Include"
"PCM2006_e1","PCM2006_e1_3",1,103,0,"young","new",2,1436,"Include"
"PCM2006_e1","PCM2006_e1_3",1,104,0,"young","new",3,5116,"Include"
"PCM2006_e1","PCM2006_e1_3",1,105,1,"young","L2",5,1530,"Include"
"PCM2006_e1","PCM2006_e1_3",1,106,1,"young","L1",6,820,"Include"
"PCM2006_e1","PCM2006_e1_3",1,107,1,"young","L2",2,1178,"Include"
"PCM2006_e1","PCM2006_e1_3",1,108,0,"young","new",1,1016,"Include"
"PCM2006_e1","PCM2006_e1_3",1,109,0,"young","new",2,926,"Include"
"PCM2006_e1","PCM2006_e1_3",1,110,1,"young","L2",3,1216,"Include"
"PCM2006_e1","PCM2006_e1_3",1,111,1,"young","L1",3,1189,"Include"
"PCM2006_e1","PCM2006_e1_3",1,112,1,"young","L1",2,1095,"Include"
"PCM2006_e1","PCM2006_e1_3",1,113,1,"young","L2",5,1393,"Include"
"PCM2006_e1","PCM2006_e1_3",1,114,1,"young","L1",6,2675,"Include"
"PCM2006_e1","PCM2006_e1_3",1,115,0,"young","new",2,2738,"Include"
"PCM2006_e1","PCM2006_e1_3",1,116,1,"young","L2",3,4202,"Include"
"PCM2006_e1","PCM2006_e1_3",1,117,1,"young","L2",5,1115,"Include"
"PCM2006_e1","PCM2006_e1_3",1,118,1,"young","L1",4,1895,"Include"
"PCM2006_e1","PCM2006_e1_3",1,119,1,"young","L2",2,2176,"Include"
"PCM2006_e1","PCM2006_e1_3",1,120,0,"young","new",1,1592,"Include"
"PCM2006_e1","PCM2006_e1_3",1,121,1,"young","L2",3,1931,"Include"
"PCM2006_e1","PCM2006_e1_3",1,122,1,"young","L2",6,1197,"Include"
"PCM2006_e1","PCM2006_e1_3",1,123,0,"young","new",2,5399,"Include"
"PCM2006_e1","PCM2006_e1_3",1,124,1,"young","L2",6,1553,"Include"
"PCM2006_e1","PCM2006_e1_3",1,125,1,"young","L1",6,694,"Include"
"PCM2006_e1","PCM2006_e1_3",1,126,1,"young","L2",2,1441,"Include"
"PCM2006_e1","PCM2006_e1_3",1,127,1,"young","L2",6,1568,"Include"
"PCM2006_e1","PCM2006_e1_3",1,128,0,"young","new",2,2785,"Include"
"PCM2006_e1","PCM2006_e1_3",1,129,1,"young","L2",6,1415,"Include"
"PCM2006_e1","PCM2006_e1_3",1,130,0,"young","new",2,2700,"Include"
"PCM2006_e1","PCM2006_e1_3",1,131,1,"young","L2",5,4022,"Include"
"PCM2006_e1","PCM2006_e1_3",1,132,0,"young","new",3,979,"Include"
"PCM2006_e1","PCM2006_e1_3",1,133,1,"young","L1",5,1304,"Include"
"PCM2006_e1","PCM2006_e1_3",1,134,1,"young","L2",2,1624,"Include"
"PCM2006_e1","PCM2006_e1_3",1,135,0,"young","new",3,1252,"Include"
"PCM2006_e1","PCM2006_e1_3",1,136,1,"young","L1",6,889,"Include"
"PCM2006_e1","PCM2006_e1_3",1,137,1,"young","L1",6,741,"Include"
"PCM2006_e1","PCM2006_e1_3",1,138,1,"young","L2",6,836,"Include"
"PCM2006_e1","PCM2006_e1_3",1,139,1,"young","L1",4,1796,"Include"
"PCM2006_e1","PCM2006_e1_3",1,140,1,"young","L1",5,2062,"Include"
"PCM2006_e1","PCM2006_e1_3",1,141,0,"young","new",3,1584,"Include"
"PCM2006_e1","PCM2006_e1_3",1,142,1,"young","L1",5,1614,"Include"
"PCM2006_e1","PCM2006_e1_3",1,143,1,"young","L2",4,2035,"Include"
"PCM2006_e1","PCM2006_e1_3",1,144,0,"young","new",3,2419,"Include"
"PCM2006_e1","PCM2006_e1_3",1,145,1,"young","L1",3,1249,"Include"
"PCM2006_e1","PCM2006_e1_3",1,146,1,"young","L1",4,1911,"Include"
"PCM2006_e1","PCM2006_e1_3",1,147,1,"young","L2",4,2926,"Include"
"PCM2006_e1","PCM2006_e1_3",1,148,1,"young","L1",6,1537,"Include"
"PCM2006_e1","PCM2006_e1_3",1,149,1,"young","L1",2,1903,"Include"
"PCM2006_e1","PCM2006_e1_3",1,150,1,"young","L2",6,857,"Include"
"PCM2006_e1","PCM2006_e1_3",1,151,0,"young","new",3,1388,"Include"
"PCM2006_e1","PCM2006_e1_3",1,152,0,"young","new",3,1089,"Include"
"PCM2006_e1","PCM2006_e1_3",1,153,1,"young","L2",6,749,"Include"
"PCM2006_e1","PCM2006_e1_3",1,154,0,"young","new",1,1282,"Include"
"PCM2006_e1","PCM2006_e1_3",1,155,1,"young","L1",6,1095,"Include"
"PCM2006_e1","PCM2006_e1_3",1,156,1,"young","L2",5,2032,"Include"
"PCM2006_e1","PCM2006_e1_3",1,157,1,"young","L2",3,1178,"Include"
"PCM2006_e1","PCM2006_e1_3",1,158,1,"young","L1",2,4425,"Include"
"PCM2006_e1","PCM2006_e1_3",1,159,0,"young","new",3,3925,"Include"
"PCM2006_e1","PCM2006_e1_3",1,160,1,"young","L2",6,848,"Include"
"PCM2006_e1","PCM2006_e1_3",1,161,1,"young","L2",6,1269,"Include"
"PCM2006_e1","PCM2006_e1_3",1,162,1,"young","L1",6,1063,"Include"
"PCM2006_e1","PCM2006_e1_3",1,163,1,"young","L1",6,1679,"Include"
"PCM2006_e1","PCM2006_e1_3",1,164,0,"young","new",3,2269,"Include"
"PCM2006_e1","PCM2006_e1_3",1,165,0,"young","new",3,999,"Include"
"PCM2006_e1","PCM2006_e1_3",2,241,0,"young","new",5,3049,"Include"
"PCM2006_e1","PCM2006_e1_3",2,242,1,"young","L2",6,816,"Include"
"PCM2006_e1","PCM2006_e1_3",2,243,0,"young","new",2,2269,"Include"
"PCM2006_e1","PCM2006_e1_3",2,244,1,"young","L2",2,895,"Include"
"PCM2006_e1","PCM2006_e1_3",2,245,1,"young","L1",5,1511,"Include"
"PCM2006_e1","PCM2006_e1_3",2,246,1,"young","L1",6,1190,"Include"
"PCM2006_e1","PCM2006_e1_3",2,247,0,"young","new",3,1744,"Include"
"PCM2006_e1","PCM2006_e1_3",2,248,1,"young","L1",6,960,"Include"
"PCM2006_e1","PCM2006_e1_3",2,249,0,"young","new",4,1722,"Include"
"PCM2006_e1","PCM2006_e1_3",2,250,0,"young","new",4,990,"Include"
"PCM2006_e1","PCM2006_e1_3",2,251,0,"young","new",3,1304,"Include"
"PCM2006_e1","PCM2006_e1_3",2,252,1,"young","L1",6,3486,"Include"
"PCM2006_e1","PCM2006_e1_3",2,253,1,"young","L2",6,756,"Include"
"PCM2006_e1","PCM2006_e1_3",2,254,1,"young","L1",6,754,"Include"
"PCM2006_e1","PCM2006_e1_3",2,255,1,"young","L1",6,636,"Include"
"PCM2006_e1","PCM2006_e1_3",2,256,1,"young","L1",3,1732,"Include"
"PCM2006_e1","PCM2006_e1_3",2,257,1,"young","L2",6,1175,"Include"
"PCM2006_e1","PCM2006_e1_3",2,258,0,"young","new",3,1566,"Include"
"PCM2006_e1","PCM2006_e1_3",2,259,0,"young","new",1,984,"Include"
"PCM2006_e1","PCM2006_e1_3",2,260,1,"young","L1",6,3109,"Include"
"PCM2006_e1","PCM2006_e1_3",2,261,0,"young","new",3,2444,"Include"
"PCM2006_e1","PCM2006_e1_3",2,262,0,"young","new",4,1610,"Include"
"PCM2006_e1","PCM2006_e1_3",2,263,1,"young","L2",6,760,"Include"
"PCM2006_e1","PCM2006_e1_3",2,264,1,"young","L2",3,1058,"Include"
"PCM2006_e1","PCM2006_e1_3",2,265,0,"young","new",2,1022,"Include"
"PCM2006_e1","PCM2006_e1_3",2,266,1,"young","L2",6,777,"Include"
"PCM2006_e1","PCM2006_e1_3",2,267,1,"young","L2",6,687,"Include"
"PCM2006_e1","PCM2006_e1_3",2,268,1,"young","L1",2,1515,"Include"
"PCM2006_e1","PCM2006_e1_3",2,269,1,"young","L2",2,4647,"Include"
"PCM2006_e1","PCM2006_e1_3",2,270,1,"young","L1",6,815,"Include"
"PCM2006_e1","PCM2006_e1_3",2,271,1,"young","L1",6,1955,"Include"
"PCM2006_e1","PCM2006_e1_3",2,272,1,"young","L1",6,809,"Include"
"PCM2006_e1","PCM2006_e1_3",2,273,0,"young","new",2,2144,"Include"
"PCM2006_e1","PCM2006_e1_3",2,274,1,"young","L2",6,2232,"Include"
"PCM2006_e1","PCM2006_e1_3",2,275,0,"young","new",2,2280,"Include"
"PCM2006_e1","PCM2006_e1_3",2,276,0,"young","new",2,1943,"Include"
"PCM2006_e1","PCM2006_e1_3",2,277,1,"young","L2",6,855,"Include"
"PCM2006_e1","PCM2006_e1_3",2,278,1,"young","L1",6,1026,"Include"
"PCM2006_e1","PCM2006_e1_3",2,279,1,"young","L2",6,709,"Include"
"PCM2006_e1","PCM2006_e1_3",2,280,1,"young","L1",6,675,"Include"
"PCM2006_e1","PCM2006_e1_3",2,281,0,"young","new",4,1457,"Include"
"PCM2006_e1","PCM2006_e1_3",2,282,1,"young","L2",3,988,"Include"
"PCM2006_e1","PCM2006_e1_3",2,283,0,"young","new",2,1777,"Include"
"PCM2006_e1","PCM2006_e1_3",2,284,0,"young","new",2,1186,"Include"
"PCM2006_e1","PCM2006_e1_3",2,285,1,"young","L1",6,2934,"Include"
"PCM2006_e1","PCM2006_e1_3",2,286,1,"young","L2",2,2584,"Include"
"PCM2006_e1","PCM2006_e1_3",2,287,1,"young","L2",2,1390,"Include"
"PCM2006_e1","PCM2006_e1_3",2,288,1,"young","L1",6,1073,"Include"
"PCM2006_e1","PCM2006_e1_3",2,289,0,"young","new",3,1505,"Include"
"PCM2006_e1","PCM2006_e1_3",2,290,1,"young","L2",6,1144,"Include"
"PCM2006_e1","PCM2006_e1_3",2,291,0,"young","new",1,1047,"Include"
"PCM2006_e1","PCM2006_e1_3",2,292,1,"young","L1",6,1004,"Include"
"PCM2006_e1","PCM2006_e1_3",2,293,1,"young","L1",5,1685,"Include"
"PCM2006_e1","PCM2006_e1_3",2,294,1,"young","L1",6,897,"Include"
"PCM2006_e1","PCM2006_e1_3",2,295,1,"young","L2",2,1233,"Include"
"PCM2006_e1","PCM2006_e1_3",2,296,0,"young","new",3,1362,"Include"
"PCM2006_e1","PCM2006_e1_3",2,297,0,"young","new",3,1164,"Include"
"PCM2006_e1","PCM2006_e1_3",2,298,1,"young","L1",3,982,"Include"
"PCM2006_e1","PCM2006_e1_3",2,299,1,"young","L2",3,2027,"Include"
"PCM2006_e1","PCM2006_e1_3",2,300,0,"young","new",2,1383,"Include"
"PCM2006_e1","PCM2006_e1_3",2,301,0,"young","new",2,1331,"Include"
"PCM2006_e1","PCM2006_e1_3",2,302,1,"young","L2",3,1269,"Include"
"PCM2006_e1","PCM2006_e1_3",2,303,1,"young","L1",3,1630,"Include"
"PCM2006_e1","PCM2006_e1_3",2,304,1,"young","L1",6,769,"Include"
"PCM2006_e1","PCM2006_e1_3",2,305,1,"young","L2",6,696,"Include"
"PCM2006_e1","PCM2006_e1_3",2,306,1,"young","L1",3,1849,"Include"
"PCM2006_e1","PCM2006_e1_3",2,307,1,"young","L1",5,959,"Include"
"PCM2006_e1","PCM2006_e1_3",2,308,1,"young","L2",3,1905,"Include"
"PCM2006_e1","PCM2006_e1_3",2,309,1,"young","L1",2,1615,"Include"
"PCM2006_e1","PCM2006_e1_3",2,310,0,"young","new",2,989,"Include"
"PCM2006_e1","PCM2006_e1_3",2,311,1,"young","L1",6,1192,"Include"
"PCM2006_e1","PCM2006_e1_3",2,312,1,"young","L2",4,2194,"Include"
"PCM2006_e1","PCM2006_e1_3",2,313,0,"young","new",2,1597,"Include"
"PCM2006_e1","PCM2006_e1_3",2,314,1,"young","L1",6,808,"Include"
"PCM2006_e1","PCM2006_e1_3",2,315,0,"young","new",1,1015,"Include"
"PCM2006_e1","PCM2006_e1_3",2,316,1,"young","L1",6,805,"Include"
"PCM2006_e1","PCM2006_e1_3",2,317,1,"young","L2",5,1365,"Include"
"PCM2006_e1","PCM2006_e1_3",2,318,1,"young","L2",6,895,"Include"
"PCM2006_e1","PCM2006_e1_3",2,319,0,"young","new",3,1104,"Include"
"PCM2006_e1","PCM2006_e1_3",2,320,1,"young","L2",6,1241,"Include"
"PCM2006_e1","PCM2006_e1_3",2,321,1,"young","L1",6,618,"Include"
"PCM2006_e1","PCM2006_e1_3",2,322,1,"young","L2",2,2374,"Include"
"PCM2006_e1","PCM2006_e1_3",2,323,0,"young","new",2,1023,"Include"
"PCM2006_e1","PCM2006_e1_3",2,324,1,"young","L2",6,3521,"Include"
"PCM2006_e1","PCM2006_e1_3",2,325,0,"young","new",2,919,"Include"
"PCM2006_e1","PCM2006_e1_3",2,326,1,"young","L2",2,1466,"Include"
"PCM2006_e1","PCM2006_e1_3",2,327,1,"young","L1",3,1115,"Include"
"PCM2006_e1","PCM2006_e1_3",2,328,1,"young","L2",4,1248,"Include"
"PCM2006_e1","PCM2006_e1_3",2,329,0,"young","new",4,1957,"Include"
"PCM2006_e1","PCM2006_e1_3",2,330,1,"young","L2",6,831,"Include"
"PCM2006_e1","PCM2006_e1_3",3,406,1,"young","L1",3,1984,"Include"
"PCM2006_e1","PCM2006_e1_3",3,407,1,"young","L2",5,1844,"Include"
"PCM2006_e1","PCM2006_e1_3",3,408,1,"young","L2",4,1347,"Include"
"PCM2006_e1","PCM2006_e1_3",3,409,0,"young","new",2,2671,"Include"
"PCM2006_e1","PCM2006_e1_3",3,410,0,"young","new",1,785,"Include"
"PCM2006_e1","PCM2006_e1_3",3,411,1,"young","L2",5,1406,"Include"
"PCM2006_e1","PCM2006_e1_3",3,412,1,"young","L2",5,2317,"Include"
"PCM2006_e1","PCM2006_e1_3",3,413,0,"young","new",1,1202,"Include"
"PCM2006_e1","PCM2006_e1_3",3,414,1,"young","L1",5,1210,"Include"
"PCM2006_e1","PCM2006_e1_3",3,415,0,"young","new",1,983,"Include"
"PCM2006_e1","PCM2006_e1_3",3,416,1,"young","L1",6,749,"Include"
"PCM2006_e1","PCM2006_e1_3",3,417,1,"young","L2",5,1033,"Include"
"PCM2006_e1","PCM2006_e1_3",3,418,0,"young","new",5,825,"Include"
"PCM2006_e1","PCM2006_e1_3",3,419,1,"young","L1",4,3236,"Include"
"PCM2006_e1","PCM2006_e1_3",3,420,1,"young","L1",3,2869,"Include"
"PCM2006_e1","PCM2006_e1_3",3,421,0,"young","new",3,1055,"Include"
"PCM2006_e1","PCM2006_e1_3",3,422,1,"young","L2",3,1401,"Include"
"PCM2006_e1","PCM2006_e1_3",3,423,1,"young","L2",6,1114,"Include"
"PCM2006_e1","PCM2006_e1_3",3,424,1,"young","L1",6,857,"Include"
"PCM2006_e1","PCM2006_e1_3",3,425,1,"young","L1",6,811,"Include"
"PCM2006_e1","PCM2006_e1_3",3,426,0,"young","new",3,1760,"Include"
"PCM2006_e1","PCM2006_e1_3",3,427,1,"young","L1",4,1083,"Include"
"PCM2006_e1","PCM2006_e1_3",3,428,1,"young","L2",6,778,"Include"
"PCM2006_e1","PCM2006_e1_3",3,429,1,"young","L1",6,952,"Include"
"PCM2006_e1","PCM2006_e1_3",3,430,1,"young","L2",6,797,"Include"
"PCM2006_e1","PCM2006_e1_3",3,431,0,"young","new",4,2175,"Include"
"PCM2006_e1","PCM2006_e1_3",3,432,0,"young","new",2,1463,"Include"
"PCM2006_e1","PCM2006_e1_3",3,433,1,"young","L1",6,768,"Include"
"PCM2006_e1","PCM2006_e1_3",3,434,0,"young","new",4,2551,"Include"
"PCM2006_e1","PCM2006_e1_3",3,435,0,"young","new",2,988,"Include"
"PCM2006_e1","PCM2006_e1_3",3,436,1,"young","L2",2,3464,"Include"
"PCM2006_e1","PCM2006_e1_3",3,437,1,"young","L2",3,1083,"Include"
"PCM2006_e1","PCM2006_e1_3",3,438,1,"young","L2",6,2528,"Include"
"PCM2006_e1","PCM2006_e1_3",3,439,1,"young","L1",6,611,"Include"
"PCM2006_e1","PCM2006_e1_3",3,440,1,"young","L1",6,593,"Include"
"PCM2006_e1","PCM2006_e1_3",3,441,1,"young","L2",6,1051,"Include"
"PCM2006_e1","PCM2006_e1_3",3,442,0,"young","new",3,1264,"Include"
"PCM2006_e1","PCM2006_e1_3",3,443,1,"young","L2",3,1017,"Include"
"PCM2006_e1","PCM2006_e1_3",3,444,1,"young","L2",6,903,"Include"
"PCM2006_e1","PCM2006_e1_3",3,445,1,"young","L1",6,824,"Include"
"PCM2006_e1","PCM2006_e1_3",3,446,0,"young","new",2,866,"Include"
"PCM2006_e1","PCM2006_e1_3",3,447,1,"young","L2",3,3115,"Include"
"PCM2006_e1","PCM2006_e1_3",3,448,0,"young","new",3,2544,"Include"
"PCM2006_e1","PCM2006_e1_3",3,449,0,"young","new",3,664,"Include"
"PCM2006_e1","PCM2006_e1_3",3,450,1,"young","L1",6,625,"Include"
"PCM2006_e1","PCM2006_e1_3",3,451,1,"young","L1",2,1538,"Include"
"PCM2006_e1","PCM2006_e1_3",3,452,1,"young","L1",5,1122,"Include"
"PCM2006_e1","PCM2006_e1_3",3,453,1,"young","L2",4,2533,"Include"
"PCM2006_e1","PCM2006_e1_3",3,454,1,"young","L2",3,1176,"Include"
"PCM2006_e1","PCM2006_e1_3",3,455,0,"young","new",3,3447,"Include"
"PCM2006_e1","PCM2006_e1_3",3,456,1,"young","L1",6,1190,"Include"
"PCM2006_e1","PCM2006_e1_3",3,457,0,"young","new",4,1928,"Include"
"PCM2006_e1","PCM2006_e1_3",3,458,1,"young","L2",4,1019,"Include"
"PCM2006_e1","PCM2006_e1_3",3,459,1,"young","L1",6,784,"Include"
"PCM2006_e1","PCM2006_e1_3",3,460,1,"young","L1",3,2660,"Include"
"PCM2006_e1","PCM2006_e1_3",3,461,1,"young","L2",4,1801,"Include"
"PCM2006_e1","PCM2006_e1_3",3,462,1,"young","L2",3,4256,"Include"
"PCM2006_e1","PCM2006_e1_3",3,463,0,"young","new",4,1701,"Include"
"PCM2006_e1","PCM2006_e1_3",3,464,1,"young","L1",5,855,"Include"
"PCM2006_e1","PCM2006_e1_3",3,465,0,"young","new",3,1306,"Include"
"PCM2006_e1","PCM2006_e1_3",3,466,1,"young","L2",6,1097,"Include"
"PCM2006_e1","PCM2006_e1_3",3,467,0,"young","new",3,1578,"Include"
"PCM2006_e1","PCM2006_e1_3",3,468,1,"young","L1",6,1407,"Include"
"PCM2006_e1","PCM2006_e1_3",3,469,0,"young","new",2,1695,"Include"
"PCM2006_e1","PCM2006_e1_3",3,470,0,"young","new",3,1768,"Include"
"PCM2006_e1","PCM2006_e1_3",3,471,1,"young","L2",6,704,"Include"
"PCM2006_e1","PCM2006_e1_3",3,472,1,"young","L1",6,857,"Include"
"PCM2006_e1","PCM2006_e1_3",3,473,1,"young","L1",6,764,"Include"
"PCM2006_e1","PCM2006_e1_3",3,474,1,"young","L2",6,806,"Include"
"PCM2006_e1","PCM2006_e1_3",3,475,0,"young","new",3,862,"Include"
"PCM2006_e1","PCM2006_e1_3",3,476,0,"young","new",1,2073,"Include"
"PCM2006_e1","PCM2006_e1_3",3,477,0,"young","new",2,1040,"Include"
"PCM2006_e1","PCM2006_e1_3",3,478,1,"young","L2",5,984,"Include"
"PCM2006_e1","PCM2006_e1_3",3,479,0,"young","new",3,1188,"Include"
"PCM2006_e1","PCM2006_e1_3",3,480,1,"young","L1",3,943,"Include"
"PCM2006_e1","PCM2006_e1_3",3,481,0,"young","new",3,1454,"Include"
"PCM2006_e1","PCM2006_e1_3",3,482,1,"young","L1",5,1425,"Include"
"PCM2006_e1","PCM2006_e1_3",3,483,1,"young","L1",4,2204,"Include"
"PCM2006_e1","PCM2006_e1_3",3,484,1,"young","L2",5,2148,"Include"
"PCM2006_e1","PCM2006_e1_3",3,485,0,"young","new",3,1418,"Include"
"PCM2006_e1","PCM2006_e1_3",3,486,1,"young","L1",6,1127,"Include"
"PCM2006_e1","PCM2006_e1_3",3,487,0,"young","new",3,1912,"Include"
"PCM2006_e1","PCM2006_e1_3",3,488,0,"young","new",2,1448,"Include"
"PCM2006_e1","PCM2006_e1_3",3,489,1,"young","L2",3,1237,"Include"
"PCM2006_e1","PCM2006_e1_3",3,490,1,"young","L1",6,4766,"Include"
"PCM2006_e1","PCM2006_e1_3",3,491,1,"young","L2",6,711,"Include"
"PCM2006_e1","PCM2006_e1_3",3,492,1,"young","L1",2,862,"Include"
"PCM2006_e1","PCM2006_e1_3",3,493,1,"young","L2",2,1209,"Include"
"PCM2006_e1","PCM2006_e1_3",3,494,1,"young","L2",2,4536,"Include"
"PCM2006_e1","PCM2006_e1_3",3,495,1,"young","L1",6,1081,"Include"
"PCM2006_e1","PCM2006_e1_3",4,571,1,"young","L2",6,1835,"Include"
"PCM2006_e1","PCM2006_e1_3",4,572,1,"young","L2",4,1340,"Include"
"PCM2006_e1","PCM2006_e1_3",4,573,1,"young","L2",6,843,"Include"
"PCM2006_e1","PCM2006_e1_3",4,574,1,"young","L1",6,712,"Include"
"PCM2006_e1","PCM2006_e1_3",4,575,0,"young","new",2,1335,"Include"
"PCM2006_e1","PCM2006_e1_3",4,576,1,"young","L2",6,1008,"Include"
"PCM2006_e1","PCM2006_e1_3",4,577,1,"young","L2",6,864,"Include"
"PCM2006_e1","PCM2006_e1_3",4,578,1,"young","L1",6,1185,"Include"
"PCM2006_e1","PCM2006_e1_3",4,579,1,"young","L2",6,1301,"Include"
"PCM2006_e1","PCM2006_e1_3",4,580,0,"young","new",2,1703,"Include"
"PCM2006_e1","PCM2006_e1_3",4,581,1,"young","L2",6,785,"Include"
"PCM2006_e1","PCM2006_e1_3",4,582,0,"young","new",1,685,"Include"
"PCM2006_e1","PCM2006_e1_3",4,583,1,"young","L1",6,929,"Include"
"PCM2006_e1","PCM2006_e1_3",4,584,1,"young","L2",5,1474,"Include"
"PCM2006_e1","PCM2006_e1_3",4,585,1,"young","L1",5,1809,"Include"
"PCM2006_e1","PCM2006_e1_3",4,586,1,"young","L1",4,2369,"Include"
"PCM2006_e1","PCM2006_e1_3",4,587,0,"young","new",3,1105,"Include"
"PCM2006_e1","PCM2006_e1_3",4,588,1,"young","L2",3,1455,"Include"
"PCM2006_e1","PCM2006_e1_3",4,589,1,"young","L1",2,923,"Include"
"PCM2006_e1","PCM2006_e1_3",4,590,1,"young","L2",6,983,"Include"
"PCM2006_e1","PCM2006_e1_3",4,591,1,"young","L1",6,788,"Include"
"PCM2006_e1","PCM2006_e1_3",4,592,0,"young","new",2,1984,"Include"
"PCM2006_e1","PCM2006_e1_3",4,593,0,"young","new",6,814,"Include"
"PCM2006_e1","PCM2006_e1_3",4,594,1,"young","L2",6,1915,"Include"
"PCM2006_e1","PCM2006_e1_3",4,595,0,"young","new",4,2440,"Include"
"PCM2006_e1","PCM2006_e1_3",4,596,1,"young","L1",6,1272,"Include"
"PCM2006_e1","PCM2006_e1_3",4,597,1,"young","L1",5,1521,"Include"
"PCM2006_e1","PCM2006_e1_3",4,598,0,"young","new",3,2741,"Include"
"PCM2006_e1","PCM2006_e1_3",4,599,1,"young","L2",6,949,"Include"
"PCM2006_e1","PCM2006_e1_3",4,600,1,"young","L1",4,1394,"Include"
"PCM2006_e1","PCM2006_e1_3",4,601,0,"young","new",2,2308,"Include"
"PCM2006_e1","PCM2006_e1_3",4,602,0,"young","new",6,2267,"Include"
"PCM2006_e1","PCM2006_e1_3",4,603,0,"young","new",2,3172,"Include"
"PCM2006_e1","PCM2006_e1_3",4,604,1,"young","L2",6,709,"Include"
"PCM2006_e1","PCM2006_e1_3",4,605,1,"young","L2",6,2307,"Include"
"PCM2006_e1","PCM2006_e1_3",4,606,0,"young","new",2,2298,"Include"
"PCM2006_e1","PCM2006_e1_3",4,607,0,"young","new",2,2076,"Include"
"PCM2006_e1","PCM2006_e1_3",4,608,1,"young","L2",6,723,"Include"
"PCM2006_e1","PCM2006_e1_3",4,609,1,"young","L1",6,1367,"Include"
"PCM2006_e1","PCM2006_e1_3",4,610,1,"young","L1",6,680,"Include"
"PCM2006_e1","PCM2006_e1_3",4,611,1,"young","L1",6,1895,"Include"
"PCM2006_e1","PCM2006_e1_3",4,612,1,"young","L2",6,857,"Include"
"PCM2006_e1","PCM2006_e1_3",4,613,1,"young","L1",6,604,"Include"
"PCM2006_e1","PCM2006_e1_3",4,614,1,"young","L2",6,1451,"Include"
"PCM2006_e1","PCM2006_e1_3",4,615,0,"young","new",3,2161,"Include"
"PCM2006_e1","PCM2006_e1_3",4,616,1,"young","L2",6,763,"Include"
"PCM2006_e1","PCM2006_e1_3",4,617,0,"young","new",1,1373,"Include"
"PCM2006_e1","PCM2006_e1_3",4,618,1,"young","L1",4,1733,"Include"
"PCM2006_e1","PCM2006_e1_3",4,619,1,"young","L1",6,622,"Include"
"PCM2006_e1","PCM2006_e1_3",4,620,1,"young","L2",6,753,"Include"
"PCM2006_e1","PCM2006_e1_3",4,621,1,"young","L1",6,726,"Include"
"PCM2006_e1","PCM2006_e1_3",4,622,0,"young","new",4,1849,"Include"
"PCM2006_e1","PCM2006_e1_3",4,623,1,"young","L1",6,727,"Include"
"PCM2006_e1","PCM2006_e1_3",4,624,1,"young","L2",6,689,"Include"
"PCM2006_e1","PCM2006_e1_3",4,625,1,"young","L1",6,549,"Include"
"PCM2006_e1","PCM2006_e1_3",4,626,1,"young","L1",6,656,"Include"
"PCM2006_e1","PCM2006_e1_3",4,627,0,"young","new",1,2260,"Include"
"PCM2006_e1","PCM2006_e1_3",4,628,1,"young","L2",6,720,"Include"
"PCM2006_e1","PCM2006_e1_3",4,629,0,"young","new",4,1323,"Include"
"PCM2006_e1","PCM2006_e1_3",4,630,1,"young","L2",3,3551,"Include"
"PCM2006_e1","PCM2006_e1_3",4,631,0,"young","new",6,2157,"Include"
"PCM2006_e1","PCM2006_e1_3",4,632,0,"young","new",3,2448,"Include"
"PCM2006_e1","PCM2006_e1_3",4,633,1,"young","L1",2,1798,"Include"
"PCM2006_e1","PCM2006_e1_3",4,634,1,"young","L2",3,5416,"Include"
"PCM2006_e1","PCM2006_e1_3",4,635,1,"young","L1",6,872,"Include"
"PCM2006_e1","PCM2006_e1_3",4,636,1,"young","L1",2,1464,"Include"
"PCM2006_e1","PCM2006_e1_3",4,637,1,"young","L1",6,849,"Include"
"PCM2006_e1","PCM2006_e1_3",4,638,1,"young","L2",3,1815,"Include"
"PCM2006_e1","PCM2006_e1_3",4,639,1,"young","L2",6,844,"Include"
"PCM2006_e1","PCM2006_e1_3",4,640,1,"young","L1",6,874,"Include"
"PCM2006_e1","PCM2006_e1_3",4,641,1,"young","L1",3,1961,"Include"
"PCM2006_e1","PCM2006_e1_3",4,642,0,"young","new",3,1346,"Include"
"PCM2006_e1","PCM2006_e1_3",4,643,1,"young","L2",2,3063,"Include"
"PCM2006_e1","PCM2006_e1_3",4,644,0,"young","new",4,1745,"Include"
"PCM2006_e1","PCM2006_e1_3",4,645,0,"young","new",3,1328,"Include"
"PCM2006_e1","PCM2006_e1_3",4,646,0,"young","new",2,1482,"Include"
"PCM2006_e1","PCM2006_e1_3",4,647,1,"young","L2",6,752,"Include"
"PCM2006_e1","PCM2006_e1_3",4,648,1,"young","L1",4,2725,"Include"
"PCM2006_e1","PCM2006_e1_3",4,649,1,"young","L1",4,1098,"Include"
"PCM2006_e1","PCM2006_e1_3",4,650,0,"young","new",1,1098,"Include"
"PCM2006_e1","PCM2006_e1_3",4,651,1,"young","L1",6,2052,"Include"
"PCM2006_e1","PCM2006_e1_3",4,652,0,"young","new",2,1703,"Include"
"PCM2006_e1","PCM2006_e1_3",4,653,1,"young","L2",5,1353,"Include"
"PCM2006_e1","PCM2006_e1_3",4,654,1,"young","L2",2,2053,"Include"
"PCM2006_e1","PCM2006_e1_3",4,655,0,"young","new",3,1633,"Include"
"PCM2006_e1","PCM2006_e1_3",4,656,1,"young","L1",6,946,"Include"
"PCM2006_e1","PCM2006_e1_3",4,657,0,"young","new",1,1160,"Include"
"PCM2006_e1","PCM2006_e1_3",4,658,0,"young","new",1,1186,"Include"
"PCM2006_e1","PCM2006_e1_3",4,659,0,"young","new",2,1664,"Include"
"PCM2006_e1","PCM2006_e1_3",4,660,1,"young","L2",6,792,"Include"
"PCM2006_e1","PCM2006_e1_4",1,76,1,"young","L1",6,3749,"Include"
"PCM2006_e1","PCM2006_e1_4",1,77,1,"young","L2",5,2474,"Include"
"PCM2006_e1","PCM2006_e1_4",1,78,1,"young","L2",6,1498,"Include"
"PCM2006_e1","PCM2006_e1_4",1,79,0,"young","new",4,2714,"Include"
"PCM2006_e1","PCM2006_e1_4",1,80,0,"young","new",1,6311,"Include"
"PCM2006_e1","PCM2006_e1_4",1,81,0,"young","new",2,4392,"Include"
"PCM2006_e1","PCM2006_e1_4",1,82,1,"young","L1",3,2348,"Include"
"PCM2006_e1","PCM2006_e1_4",1,83,1,"young","L2",5,3585,"Include"
"PCM2006_e1","PCM2006_e1_4",1,84,0,"young","new",4,1783,"Include"
"PCM2006_e1","PCM2006_e1_4",1,85,1,"young","L2",4,1925,"Include"
"PCM2006_e1","PCM2006_e1_4",1,86,1,"young","L1",3,1977,"Include"
"PCM2006_e1","PCM2006_e1_4",1,87,1,"young","L2",3,1281,"Include"
"PCM2006_e1","PCM2006_e1_4",1,88,0,"young","new",3,2335,"Include"
"PCM2006_e1","PCM2006_e1_4",1,89,1,"young","L2",4,1385,"Include"
"PCM2006_e1","PCM2006_e1_4",1,90,1,"young","L2",4,1399,"Include"
"PCM2006_e1","PCM2006_e1_4",1,91,0,"young","new",3,857,"Include"
"PCM2006_e1","PCM2006_e1_4",1,92,0,"young","new",1,2492,"Include"
"PCM2006_e1","PCM2006_e1_4",1,93,1,"young","L1",5,1745,"Include"
"PCM2006_e1","PCM2006_e1_4",1,94,0,"young","new",5,3224,"Include"
"PCM2006_e1","PCM2006_e1_4",1,95,1,"young","L2",2,1891,"Include"
"PCM2006_e1","PCM2006_e1_4",1,96,1,"young","L1",2,3062,"Include"
"PCM2006_e1","PCM2006_e1_4",1,97,0,"young","new",4,3185,"Include"
"PCM2006_e1","PCM2006_e1_4",1,98,1,"young","L2",4,2310,"Include"
"PCM2006_e1","PCM2006_e1_4",1,99,1,"young","L2",5,3318,"Include"
"PCM2006_e1","PCM2006_e1_4",1,100,1,"young","L2",3,3483,"Include"
"PCM2006_e1","PCM2006_e1_4",1,101,1,"young","L1",3,2663,"Include"
"PCM2006_e1","PCM2006_e1_4",1,102,0,"young","new",2,1513,"Include"
"PCM2006_e1","PCM2006_e1_4",1,103,1,"young","L2",4,1240,"Include"
"PCM2006_e1","PCM2006_e1_4",1,104,1,"young","L2",2,1192,"Include"
"PCM2006_e1","PCM2006_e1_4",1,105,1,"young","L1",2,2347,"Include"
"PCM2006_e1","PCM2006_e1_4",1,106,0,"young","new",1,1192,"Include"
"PCM2006_e1","PCM2006_e1_4",1,107,1,"young","L1",3,1802,"Include"
"PCM2006_e1","PCM2006_e1_4",1,108,1,"young","L2",5,1179,"Include"
"PCM2006_e1","PCM2006_e1_4",1,109,1,"young","L2",1,1247,"Include"
"PCM2006_e1","PCM2006_e1_4",1,110,1,"young","L1",1,1293,"Include"
"PCM2006_e1","PCM2006_e1_4",1,111,0,"young","new",1,801,"Include"
"PCM2006_e1","PCM2006_e1_4",1,112,0,"young","new",1,969,"Include"
"PCM2006_e1","PCM2006_e1_4",1,113,1,"young","L1",6,1488,"Include"
"PCM2006_e1","PCM2006_e1_4",1,114,0,"young","new",1,716,"Include"
"PCM2006_e1","PCM2006_e1_4",1,115,1,"young","L2",1,776,"Include"
"PCM2006_e1","PCM2006_e1_4",1,116,1,"young","L1",6,1959,"Include"
"PCM2006_e1","PCM2006_e1_4",1,117,1,"young","L1",2,2162,"Include"
"PCM2006_e1","PCM2006_e1_4",1,118,0,"young","new",2,1139,"Include"
"PCM2006_e1","PCM2006_e1_4",1,119,1,"young","L1",3,1795,"Include"
"PCM2006_e1","PCM2006_e1_4",1,120,1,"young","L2",5,1693,"Include"
"PCM2006_e1","PCM2006_e1_4",1,121,1,"young","L1",4,1527,"Include"
"PCM2006_e1","PCM2006_e1_4",1,122,1,"young","L1",3,2288,"Include"
"PCM2006_e1","PCM2006_e1_4",1,123,1,"young","L2",2,3501,"Include"
"PCM2006_e1","PCM2006_e1_4",1,124,1,"young","L1",1,1456,"Include"
"PCM2006_e1","PCM2006_e1_4",1,125,0,"young","new",1,730,"Include"
"PCM2006_e1","PCM2006_e1_4",1,126,1,"young","L1",5,1596,"Include"
"PCM2006_e1","PCM2006_e1_4",1,127,1,"young","L1",4,1446,"Include"
"PCM2006_e1","PCM2006_e1_4",1,128,1,"young","L2",5,2068,"Include"
"PCM2006_e1","PCM2006_e1_4",1,129,1,"young","L1",3,2869,"Include"
"PCM2006_e1","PCM2006_e1_4",1,130,1,"young","L2",3,3183,"Include"
"PCM2006_e1","PCM2006_e1_4",1,131,1,"young","L1",4,1813,"Include"
"PCM2006_e1","PCM2006_e1_4",1,132,1,"young","L2",3,891,"Include"
"PCM2006_e1","PCM2006_e1_4",1,133,0,"young","new",3,1502,"Include"
"PCM2006_e1","PCM2006_e1_4",1,134,1,"young","L1",3,1207,"Include"
"PCM2006_e1","PCM2006_e1_4",1,135,1,"young","L2",4,1319,"Include"
"PCM2006_e1","PCM2006_e1_4",1,136,0,"young","new",3,1372,"Include"
"PCM2006_e1","PCM2006_e1_4",1,137,0,"young","new",3,747,"Include"
"PCM2006_e1","PCM2006_e1_4",1,138,1,"young","L1",4,3063,"Include"
"PCM2006_e1","PCM2006_e1_4",1,139,0,"young","new",2,1209,"Include"
"PCM2006_e1","PCM2006_e1_4",1,140,0,"young","new",1,857,"Include"
"PCM2006_e1","PCM2006_e1_4",1,141,1,"young","L2",1,3091,"Include"
"PCM2006_e1","PCM2006_e1_4",1,142,0,"young","new",1,1601,"Include"
"PCM2006_e1","PCM2006_e1_4",1,143,1,"young","L1",5,1160,"Include"
"PCM2006_e1","PCM2006_e1_4",1,144,1,"young","L2",2,1602,"Include"
"PCM2006_e1","PCM2006_e1_4",1,145,0,"young","new",1,1275,"Include"
"PCM2006_e1","PCM2006_e1_4",1,146,0,"young","new",1,960,"Include"
"PCM2006_e1","PCM2006_e1_4",1,147,1,"young","L1",5,1171,"Include"
"PCM2006_e1","PCM2006_e1_4",1,148,0,"young","new",3,1418,"Include"
"PCM2006_e1","PCM2006_e1_4",1,149,0,"young","new",3,1863,"Include"
"PCM2006_e1","PCM2006_e1_4",1,150,1,"young","L1",4,1881,"Include"
"PCM2006_e1","PCM2006_e1_4",1,151,1,"young","L2",2,4807,"Include"
"PCM2006_e1","PCM2006_e1_4",1,152,1,"young","L2",5,1201,"Include"
"PCM2006_e1","PCM2006_e1_4",1,153,1,"young","L1",3,1568,"Include"
"PCM2006_e1","PCM2006_e1_4",1,154,1,"young","L2",3,864,"Include"
"PCM2006_e1","PCM2006_e1_4",1,155,0,"young","new",1,1289,"Include"
"PCM2006_e1","PCM2006_e1_4",1,156,1,"young","L1",2,1396,"Include"
"PCM2006_e1","PCM2006_e1_4",1,157,1,"young","L1",2,1439,"Include"
"PCM2006_e1","PCM2006_e1_4",1,158,0,"young","new",2,2415,"Include"
"PCM2006_e1","PCM2006_e1_4",1,159,1,"young","L2",3,1366,"Include"
"PCM2006_e1","PCM2006_e1_4",1,160,1,"young","L1",6,1424,"Include"
"PCM2006_e1","PCM2006_e1_4",1,161,1,"young","L1",5,1498,"Include"
"PCM2006_e1","PCM2006_e1_4",1,162,0,"young","new",3,1436,"Include"
"PCM2006_e1","PCM2006_e1_4",1,163,0,"young","new",1,1093,"Include"
"PCM2006_e1","PCM2006_e1_4",1,164,1,"young","L2",5,1352,"Include"
"PCM2006_e1","PCM2006_e1_4",1,165,1,"young","L2",2,829,"Include"
"PCM2006_e1","PCM2006_e1_4",2,241,1,"young","L2",5,1763,"Include"
"PCM2006_e1","PCM2006_e1_4",2,242,1,"young","L1",4,1222,"Include"
"PCM2006_e1","PCM2006_e1_4",2,243,1,"young","L2",6,928,"Include"
"PCM2006_e1","PCM2006_e1_4",2,244,1,"young","L1",6,1738,"Include"
"PCM2006_e1","PCM2006_e1_4",2,245,0,"young","new",1,1633,"Include"
"PCM2006_e1","PCM2006_e1_4",2,246,0,"young","new",2,1249,"Include"
"PCM2006_e1","PCM2006_e1_4",2,247,1,"young","L2",3,1207,"Include"
"PCM2006_e1","PCM2006_e1_4",2,248,0,"young","new",2,1528,"Include"
"PCM2006_e1","PCM2006_e1_4",2,249,1,"young","L2",4,1273,"Include"
"PCM2006_e1","PCM2006_e1_4",2,250,1,"young","L2",5,1998,"Include"
"PCM2006_e1","PCM2006_e1_4",2,251,1,"young","L2",5,935,"Include"
"PCM2006_e1","PCM2006_e1_4",2,252,0,"young","new",3,1209,"Include"
"PCM2006_e1","PCM2006_e1_4",2,253,1,"young","L1",5,969,"Include"
"PCM2006_e1","PCM2006_e1_4",2,254,0,"young","new",3,873,"Include"
"PCM2006_e1","PCM2006_e1_4",2,255,0,"young","new",2,1961,"Include"
"PCM2006_e1","PCM2006_e1_4",2,256,0,"young","new",1,1180,"Include"
"PCM2006_e1","PCM2006_e1_4",2,257,1,"young","L1",6,1024,"Include"
"PCM2006_e1","PCM2006_e1_4",2,258,1,"young","L2",4,1651,"Include"
"PCM2006_e1","PCM2006_e1_4",2,259,1,"young","L2",4,1513,"Include"
"PCM2006_e1","PCM2006_e1_4",2,260,0,"young","new",3,783,"Include"
"PCM2006_e1","PCM2006_e1_4",2,261,1,"young","L2",2,1581,"Include"
"PCM2006_e1","PCM2006_e1_4",2,262,1,"young","L2",6,1649,"Include"
"PCM2006_e1","PCM2006_e1_4",2,263,1,"young","L1",6,911,"Include"
"PCM2006_e1","PCM2006_e1_4",2,264,1,"young","L1",5,1846,"Include"
"PCM2006_e1","PCM2006_e1_4",2,265,1,"young","L2",6,1365,"Include"
"PCM2006_e1","PCM2006_e1_4",2,266,1,"young","L1",6,1798,"Include"
"PCM2006_e1","PCM2006_e1_4",2,267,1,"young","L1",6,865,"Include"
"PCM2006_e1","PCM2006_e1_4",2,268,0,"young","new",1,1649,"Include"
"PCM2006_e1","PCM2006_e1_4",2,269,1,"young","L1",3,2368,"Include"
"PCM2006_e1","PCM2006_e1_4",2,270,0,"young","new",4,1568,"Include"
"PCM2006_e1","PCM2006_e1_4",2,271,0,"young","new",3,1215,"Include"
"PCM2006_e1","PCM2006_e1_4",2,272,0,"young","new",2,2549,"Include"
"PCM2006_e1","PCM2006_e1_4",2,273,1,"young","L2",2,970,"Include"
"PCM2006_e1","PCM2006_e1_4",2,274,1,"young","L1",6,873,"Include"
"PCM2006_e1","PCM2006_e1_4",2,275,1,"young","L2",1,1128,"Include"
"PCM2006_e1","PCM2006_e1_4",2,276,1,"young","L2",4,1241,"Include"
"PCM2006_e1","PCM2006_e1_4",2,277,1,"young","L1",5,1609,"Include"
"PCM2006_e1","PCM2006_e1_4",2,278,0,"young","new",3,1338,"Include"
"PCM2006_e1","PCM2006_e1_4",2,279,1,"young","L1",6,800,"Include"
"PCM2006_e1","PCM2006_e1_4",2,280,0,"young","new",1,1104,"Include"
"PCM2006_e1","PCM2006_e1_4",2,281,1,"young","L2",2,1858,"Include"
"PCM2006_e1","PCM2006_e1_4",2,282,1,"young","L1",3,861,"Include"
"PCM2006_e1","PCM2006_e1_4",2,283,1,"young","L2",3,896,"Include"
"PCM2006_e1","PCM2006_e1_4",2,284,1,"young","L2",5,1681,"Include"
"PCM2006_e1","PCM2006_e1_4",2,285,0,"young","new",2,1151,"Include"
"PCM2006_e1","PCM2006_e1_4",2,286,1,"young","L1",6,1132,"Include"
"PCM2006_e1","PCM2006_e1_4",2,287,1,"young","L1",4,1382,"Include"
"PCM2006_e1","PCM2006_e1_4",2,288,0,"young","new",4,1634,"Include"
"PCM2006_e1","PCM2006_e1_4",2,289,1,"young","L2",4,3155,"Include"
"PCM2006_e1","PCM2006_e1_4",2,290,1,"young","L1",3,664,"Include"
"PCM2006_e1","PCM2006_e1_4",2,291,1,"young","L2",2,945,"Include"
"PCM2006_e1","PCM2006_e1_4",2,292,0,"young","new",1,744,"Include"
"PCM2006_e1","PCM2006_e1_4",2,293,0,"young","new",1,2070,"Include"
"PCM2006_e1","PCM2006_e1_4",2,294,0,"young","new",1,840,"Include"
"PCM2006_e1","PCM2006_e1_4",2,295,1,"young","L1",6,953,"Include"
"PCM2006_e1","PCM2006_e1_4",2,296,1,"young","L2",6,1165,"Include"
"PCM2006_e1","PCM2006_e1_4",2,297,1,"young","L2",2,999,"Include"
"PCM2006_e1","PCM2006_e1_4",2,298,0,"young","new",2,753,"Include"
"PCM2006_e1","PCM2006_e1_4",2,299,1,"young","L1",1,974,"Include"
"PCM2006_e1","PCM2006_e1_4",2,300,1,"young","L2",5,1476,"Include"
"PCM2006_e1","PCM2006_e1_4",2,301,1,"young","L2",3,2779,"Include"
"PCM2006_e1","PCM2006_e1_4",2,302,1,"young","L1",4,1249,"Include"
"PCM2006_e1","PCM2006_e1_4",2,303,0,"young","new",3,848,"Include"
"PCM2006_e1","PCM2006_e1_4",2,304,0,"young","new",1,973,"Include"
"PCM2006_e1","PCM2006_e1_4",2,305,1,"young","L1",6,1236,"Include"
"PCM2006_e1","PCM2006_e1_4",2,306,0,"young","new",2,1828,"Include"
"PCM2006_e1","PCM2006_e1_4",2,307,0,"young","new",1,751,"Include"
"PCM2006_e1","PCM2006_e1_4",2,308,1,"young","L1",6,1724,"Include"
"PCM2006_e1","PCM2006_e1_4",2,309,0,"young","new",1,1320,"Include"
"PCM2006_e1","PCM2006_e1_4",2,310,1,"young","L2",2,2235,"Include"
"PCM2006_e1","PCM2006_e1_4",2,311,0,"young","new",2,973,"Include"
"PCM2006_e1","PCM2006_e1_4",2,312,1,"young","L1",2,628,"Include"
"PCM2006_e1","PCM2006_e1_4",2,313,1,"young","L2",2,695,"Include"
"PCM2006_e1","PCM2006_e1_4",2,314,0,"young","new",1,1240,"Include"
"PCM2006_e1","PCM2006_e1_4",2,315,1,"young","L2",4,2192,"Include"
"PCM2006_e1","PCM2006_e1_4",2,316,0,"young","new",3,1818,"Include"
"PCM2006_e1","PCM2006_e1_4",2,317,1,"young","L1",2,713,"Include"
"PCM2006_e1","PCM2006_e1_4",2,318,1,"young","L1",2,1023,"Include"
"PCM2006_e1","PCM2006_e1_4",2,319,1,"young","L2",2,922,"Include"
"PCM2006_e1","PCM2006_e1_4",2,320,1,"young","L1",2,935,"Include"
"PCM2006_e1","PCM2006_e1_4",2,321,0,"young","new",2,727,"Include"
"PCM2006_e1","PCM2006_e1_4",2,322,1,"young","L1",5,2169,"Include"
"PCM2006_e1","PCM2006_e1_4",2,323,1,"young","L2",2,2016,"Include"
"PCM2006_e1","PCM2006_e1_4",2,324,1,"young","L1",3,2927,"Include"
"PCM2006_e1","PCM2006_e1_4",2,325,1,"young","L2",3,1057,"Include"
"PCM2006_e1","PCM2006_e1_4",2,326,1,"young","L1",2,1148,"Include"
"PCM2006_e1","PCM2006_e1_4",2,327,0,"young","new",1,1225,"Include"
"PCM2006_e1","PCM2006_e1_4",2,328,1,"young","L1",6,1483,"Include"
"PCM2006_e1","PCM2006_e1_4",2,329,1,"young","L2",2,975,"Include"
"PCM2006_e1","PCM2006_e1_4",2,330,1,"young","L1",4,1559,"Include"
"PCM2006_e1","PCM2006_e1_4",3,406,0,"young","new",4,1986,"Include"
"PCM2006_e1","PCM2006_e1_4",3,407,1,"young","L1",5,1144,"Include"
"PCM2006_e1","PCM2006_e1_4",3,408,1,"young","L1",4,895,"Include"
"PCM2006_e1","PCM2006_e1_4",3,409,1,"young","L2",6,1024,"Include"
"PCM2006_e1","PCM2006_e1_4",3,410,1,"young","L2",4,923,"Include"
"PCM2006_e1","PCM2006_e1_4",3,411,1,"young","L1",3,903,"Include"
"PCM2006_e1","PCM2006_e1_4",3,412,1,"young","L1",2,887,"Include"
"PCM2006_e1","PCM2006_e1_4",3,413,1,"young","L2",6,931,"Include"
"PCM2006_e1","PCM2006_e1_4",3,414,0,"young","new",3,1517,"Include"
"PCM2006_e1","PCM2006_e1_4",3,415,1,"young","L2",2,978,"Include"
"PCM2006_e1","PCM2006_e1_4",3,416,0,"young","new",1,944,"Include"
"PCM2006_e1","PCM2006_e1_4",3,417,1,"young","L1",6,1440,"Include"
"PCM2006_e1","PCM2006_e1_4",3,418,1,"young","L2",3,1336,"Include"
"PCM2006_e1","PCM2006_e1_4",3,419,0,"young","new",2,791,"Include"
"PCM2006_e1","PCM2006_e1_4",3,420,0,"young","new",1,873,"Include"
"PCM2006_e1","PCM2006_e1_4",3,421,1,"young","L2",1,1680,"Include"
"PCM2006_e1","PCM2006_e1_4",3,422,1,"young","L1",6,1878,"Include"
"PCM2006_e1","PCM2006_e1_4",3,423,1,"young","L1",4,1804,"Include"
"PCM2006_e1","PCM2006_e1_4",3,424,0,"young","new",3,1212,"Include"
"PCM2006_e1","PCM2006_e1_4",3,425,0,"young","new",2,1162,"Include"
"PCM2006_e1","PCM2006_e1_4",3,426,1,"young","L2",1,836,"Include"
"PCM2006_e1","PCM2006_e1_4",3,427,0,"young","new",1,741,"Include"
"PCM2006_e1","PCM2006_e1_4",3,428,1,"young","L1",6,1523,"Include"
"PCM2006_e1","PCM2006_e1_4",3,429,0,"young","new",3,1519,"Include"
"PCM2006_e1","PCM2006_e1_4",3,430,1,"young","L1",6,1595,"Include"
"PCM2006_e1","PCM2006_e1_4",3,431,1,"young","L2",5,2134,"Include"
"PCM2006_e1","PCM2006_e1_4",3,432,1,"young","L2",2,2176,"Include"
"PCM2006_e1","PCM2006_e1_4",3,433,0,"young","new",1,1152,"Include"
"PCM2006_e1","PCM2006_e1_4",3,434,1,"young","L2",3,2404,"Include"
"PCM2006_e1","PCM2006_e1_4",3,435,1,"young","L2",2,1069,"Include"
"PCM2006_e1","PCM2006_e1_4",3,436,1,"young","L1",2,1046,"Include"
"PCM2006_e1","PCM2006_e1_4",3,437,1,"young","L1",5,1316,"Include"
"PCM2006_e1","PCM2006_e1_4",3,438,1,"young","L1",4,1391,"Include"
"PCM2006_e1","PCM2006_e1_4",3,439,0,"young","new",1,1146,"Include"
"PCM2006_e1","PCM2006_e1_4",3,440,0,"young","new",3,1178,"Include"
"PCM2006_e1","PCM2006_e1_4",3,441,1,"young","L1",6,1296,"Include"
"PCM2006_e1","PCM2006_e1_4",3,442,1,"young","L2",2,1130,"Include"
"PCM2006_e1","PCM2006_e1_4",3,443,1,"young","L1",3,1324,"Include"
"PCM2006_e1","PCM2006_e1_4",3,444,1,"young","L1",2,1511,"Include"
"PCM2006_e1","PCM2006_e1_4",3,445,0,"young","new",5,1990,"Include"
"PCM2006_e1","PCM2006_e1_4",3,446,1,"young","L2",2,2393,"Include"
"PCM2006_e1","PCM2006_e1_4",3,447,1,"young","L1",3,1228,"Include"
"PCM2006_e1","PCM2006_e1_4",3,448,1,"young","L2",4,2254,"Include"
"PCM2006_e1","PCM2006_e1_4",3,449,1,"young","L2",2,995,"Include"
"PCM2006_e1","PCM2006_e1_4",3,450,0,"young","new",2,3196,"Include"
"PCM2006_e1","PCM2006_e1_4",3,451,0,"young","new",2,1008,"Include"
"PCM2006_e1","PCM2006_e1_4",3,452,0,"young","new",1,697,"Include"
"PCM2006_e1","PCM2006_e1_4",3,453,1,"young","L1",2,898,"Include"
"PCM2006_e1","PCM2006_e1_4",3,454,1,"young","L1",6,2114,"Include"
"PCM2006_e1","PCM2006_e1_4",3,455,1,"young","L2",3,1306,"Include"
"PCM2006_e1","PCM2006_e1_4",3,456,0,"young","new",4,977,"Include"
"PCM2006_e1","PCM2006_e1_4",3,457,1,"young","L2",5,1199,"Include"
"PCM2006_e1","PCM2006_e1_4",3,458,1,"young","L1",5,1456,"Include"
"PCM2006_e1","PCM2006_e1_4",3,459,0,"young","new",2,1083,"Include"
"PCM2006_e1","PCM2006_e1_4",3,460,0,"young","new",1,1089,"Include"
"PCM2006_e1","PCM2006_e1_4",3,461,1,"young","L1",3,2637,"Include"
"PCM2006_e1","PCM2006_e1_4",3,462,1,"young","L1",3,1429,"Include"
"PCM2006_e1","PCM2006_e1_4",3,463,1,"young","L2",5,1169,"Include"
"PCM2006_e1","PCM2006_e1_4",3,464,0,"young","new",2,1064,"Include"
"PCM2006_e1","PCM2006_e1_4",3,465,1,"young","L2",3,864,"Include"
"PCM2006_e1","PCM2006_e1_4",3,466,1,"young","L1",4,1081,"Include"
"PCM2006_e1","PCM2006_e1_4",3,467,1,"young","L2",2,1112,"Include"
"PCM2006_e1","PCM2006_e1_4",3,468,0,"young","new",2,1086,"Include"
"PCM2006_e1","PCM2006_e1_4",3,469,1,"young","L2",2,770,"Include"
"PCM2006_e1","PCM2006_e1_4",3,470,1,"young","L2",1,905,"Include"
"PCM2006_e1","PCM2006_e1_4",3,471,1,"young","L1",1,1000,"Include"
"PCM2006_e1","PCM2006_e1_4",3,472,0,"young","new",1,1039,"Include"
"PCM2006_e1","PCM2006_e1_4",3,473,0,"young","new",1,784,"Include"
"PCM2006_e1","PCM2006_e1_4",3,474,1,"young","L1",6,1565,"Include"
"PCM2006_e1","PCM2006_e1_4",3,475,1,"young","L2",6,942,"Include"
"PCM2006_e1","PCM2006_e1_4",3,476,1,"young","L2",6,773,"Include"
"PCM2006_e1","PCM2006_e1_4",3,477,1,"young","L2",6,829,"Include"
"PCM2006_e1","PCM2006_e1_4",3,478,1,"young","L1",4,2096,"Include"
"PCM2006_e1","PCM2006_e1_4",3,479,1,"young","L2",6,1113,"Include"
"PCM2006_e1","PCM2006_e1_4",3,480,0,"young","new",2,816,"Include"
"PCM2006_e1","PCM2006_e1_4",3,481,1,"young","L2",3,1525,"Include"
"PCM2006_e1","PCM2006_e1_4",3,482,0,"young","new",4,809,"Include"
"PCM2006_e1","PCM2006_e1_4",3,483,0,"young","new",2,1745,"Include"
"PCM2006_e1","PCM2006_e1_4",3,484,1,"young","L1",1,841,"Include"
"PCM2006_e1","PCM2006_e1_4",3,485,1,"young","L2",6,896,"Include"
"PCM2006_e1","PCM2006_e1_4",3,486,0,"young","new",4,1066,"Include"
"PCM2006_e1","PCM2006_e1_4",3,487,1,"young","L2",4,1403,"Include"
"PCM2006_e1","PCM2006_e1_4",3,488,1,"young","L2",3,1283,"Include"
"PCM2006_e1","PCM2006_e1_4",3,489,1,"young","L1",2,1009,"Include"
"PCM2006_e1","PCM2006_e1_4",3,490,0,"young","new",1,673,"Include"
"PCM2006_e1","PCM2006_e1_4",3,491,1,"young","L1",5,1017,"Include"
"PCM2006_e1","PCM2006_e1_4",3,492,0,"young","new",2,1118,"Include"
"PCM2006_e1","PCM2006_e1_4",3,493,1,"young","L1",1,762,"Include"
"PCM2006_e1","PCM2006_e1_4",3,494,1,"young","L1",6,1084,"Include"
"PCM2006_e1","PCM2006_e1_4",3,495,0,"young","new",1,1023,"Include"
"PCM2006_e1","PCM2006_e1_4",4,571,1,"young","L1",4,1805,"Include"
"PCM2006_e1","PCM2006_e1_4",4,572,1,"young","L1",3,1308,"Include"
"PCM2006_e1","PCM2006_e1_4",4,573,1,"young","L1",1,883,"Include"
"PCM2006_e1","PCM2006_e1_4",4,574,0,"young","new",2,679,"Include"
"PCM2006_e1","PCM2006_e1_4",4,575,1,"young","L2",3,942,"Include"
"PCM2006_e1","PCM2006_e1_4",4,576,1,"young","L1",5,1052,"Include"
"PCM2006_e1","PCM2006_e1_4",4,577,1,"young","L1",4,927,"Include"
"PCM2006_e1","PCM2006_e1_4",4,578,0,"young","new",3,649,"Include"
"PCM2006_e1","PCM2006_e1_4",4,579,1,"young","L1",6,1607,"Include"
"PCM2006_e1","PCM2006_e1_4",4,580,1,"young","L2",4,1678,"Include"
"PCM2006_e1","PCM2006_e1_4",4,581,1,"young","L1",3,741,"Include"
"PCM2006_e1","PCM2006_e1_4",4,582,1,"young","L2",2,763,"Include"
"PCM2006_e1","PCM2006_e1_4",4,583,0,"young","new",1,1197,"Include"
"PCM2006_e1","PCM2006_e1_4",4,584,1,"young","L1",5,1278,"Include"
"PCM2006_e1","PCM2006_e1_4",4,585,0,"young","new",1,1220,"Include"
"PCM2006_e1","PCM2006_e1_4",4,586,0,"young","new",3,961,"Include"
"PCM2006_e1","PCM2006_e1_4",4,587,1,"young","L2",3,891,"Include"
"PCM2006_e1","PCM2006_e1_4",4,588,1,"young","L1",3,1295,"Include"
"PCM2006_e1","PCM2006_e1_4",4,589,0,"young","new",3,1120,"Include"
"PCM2006_e1","PCM2006_e1_4",4,590,1,"young","L1",6,1188,"Include"
"PCM2006_e1","PCM2006_e1_4",4,591,0,"young","new",2,673,"Include"
"PCM2006_e1","PCM2006_e1_4",4,592,1,"young","L2",3,1662,"Include"
"PCM2006_e1","PCM2006_e1_4",4,593,1,"young","L2",3,864,"Include"
"PCM2006_e1","PCM2006_e1_4",4,594,1,"young","L1",6,1193,"Include"
"PCM2006_e1","PCM2006_e1_4",4,595,1,"young","L2",2,1954,"Include"
"PCM2006_e1","PCM2006_e1_4",4,596,0,"young","new",1,2096,"Include"
"PCM2006_e1","PCM2006_e1_4",4,597,0,"young","new",2,1161,"Include"
"PCM2006_e1","PCM2006_e1_4",4,598,1,"young","L2",2,1427,"Include"
"PCM2006_e1","PCM2006_e1_4",4,599,1,"young","L1",4,2071,"Include"
"PCM2006_e1","PCM2006_e1_4",4,600,0,"young","new",1,1031,"Include"
"PCM2006_e1","PCM2006_e1_4",4,601,1,"young","L2",3,1064,"Include"
"PCM2006_e1","PCM2006_e1_4",4,602,1,"young","L2",4,1193,"Include"
"PCM2006_e1","PCM2006_e1_4",4,603,1,"young","L2",2,1522,"Include"
"PCM2006_e1","PCM2006_e1_4",4,604,1,"young","L1",5,1119,"Include"
"PCM2006_e1","PCM2006_e1_4",4,605,1,"young","L1",5,2068,"Include"
"PCM2006_e1","PCM2006_e1_4",4,606,1,"young","L2",5,1172,"Include"
"PCM2006_e1","PCM2006_e1_4",4,607,1,"young","L2",6,1108,"Include"
"PCM2006_e1","PCM2006_e1_4",4,608,1,"young","L1",4,1307,"Include"
"PCM2006_e1","PCM2006_e1_4",4,609,0,"young","new",3,705,"Include"
"PCM2006_e1","PCM2006_e1_4",4,610,0,"young","new",2,744,"Include"
"PCM2006_e1","PCM2006_e1_4",4,611,0,"young","new",1,1159,"Include"
"PCM2006_e1","PCM2006_e1_4",4,612,1,"young","L1",2,832,"Include"
"PCM2006_e1","PCM2006_e1_4",4,613,0,"young","new",1,856,"Include"
"PCM2006_e1","PCM2006_e1_4",4,614,1,"young","L1",5,1116,"Include"
"PCM2006_e1","PCM2006_e1_4",4,615,1,"young","L2",4,1240,"Include"
"PCM2006_e1","PCM2006_e1_4",4,616,1,"young","L1",3,1160,"Include"
"PCM2006_e1","PCM2006_e1_4",4,617,1,"young","L2",2,1186,"Include"
"PCM2006_e1","PCM2006_e1_4",4,618,0,"young","new",2,784,"Include"
"PCM2006_e1","PCM2006_e1_4",4,619,0,"young","new",2,1060,"Include"
"PCM2006_e1","PCM2006_e1_4",4,620,1,"young","L1",3,1519,"Include"
"PCM2006_e1","PCM2006_e1_4",4,621,0,"young","new",4,796,"Include"
"PCM2006_e1","PCM2006_e1_4",4,622,1,"young","L2",3,1141,"Include"
"PCM2006_e1","PCM2006_e1_4",4,623,0,"young","new",2,925,"Include"
"PCM2006_e1","PCM2006_e1_4",4,624,1,"young","L1",2,1257,"Include"
"PCM2006_e1","PCM2006_e1_4",4,625,0,"young","new",1,997,"Include"
"PCM2006_e1","PCM2006_e1_4",4,626,0,"young","new",1,886,"Include"
"PCM2006_e1","PCM2006_e1_4",4,627,1,"young","L2",5,1298,"Include"
"PCM2006_e1","PCM2006_e1_4",4,628,1,"young","L1",6,884,"Include"
"PCM2006_e1","PCM2006_e1_4",4,629,1,"young","L2",4,1921,"Include"
"PCM2006_e1","PCM2006_e1_4",4,630,1,"young","L1",3,654,"Include"
"PCM2006_e1","PCM2006_e1_4",4,631,1,"young","L2",5,2448,"Include"
"PCM2006_e1","PCM2006_e1_4",4,632,1,"young","L2",4,895,"Include"
"PCM2006_e1","PCM2006_e1_4",4,633,0,"young","new",3,736,"Include"
"PCM2006_e1","PCM2006_e1_4",4,634,1,"young","L1",2,831,"Include"
"PCM2006_e1","PCM2006_e1_4",4,635,0,"young","new",2,1911,"Include"
"PCM2006_e1","PCM2006_e1_4",4,636,0,"young","new",2,2494,"Include"
"PCM2006_e1","PCM2006_e1_4",4,637,0,"young","new",4,2200,"Include"
"PCM2006_e1","PCM2006_e1_4",4,638,1,"young","L1",6,873,"Include"
"PCM2006_e1","PCM2006_e1_4",4,639,1,"young","L1",5,1129,"Include"
"PCM2006_e1","PCM2006_e1_4",4,640,0,"young","new",3,1154,"Include"
"PCM2006_e1","PCM2006_e1_4",4,641,0,"young","new",2,791,"Include"
"PCM2006_e1","PCM2006_e1_4",4,642,1,"young","L2",4,1634,"Include"
"PCM2006_e1","PCM2006_e1_4",4,643,1,"young","L1",6,842,"Include"
"PCM2006_e1","PCM2006_e1_4",4,644,1,"young","L2",6,599,"Include"
"PCM2006_e1","PCM2006_e1_4",4,645,1,"young","L2",2,975,"Include"
"PCM2006_e1","PCM2006_e1_4",4,646,1,"young","L2",1,1079,"Include"
"PCM2006_e1","PCM2006_e1_4",4,647,1,"young","L1",3,1685,"Include"
"PCM2006_e1","PCM2006_e1_4",4,648,0,"young","new",4,1433,"Include"
"PCM2006_e1","PCM2006_e1_4",4,649,0,"young","new",1,1034,"Include"
"PCM2006_e1","PCM2006_e1_4",4,650,1,"young","L2",6,905,"Include"
"PCM2006_e1","PCM2006_e1_4",4,651,0,"young","new",1,1168,"Include"
"PCM2006_e1","PCM2006_e1_4",4,652,1,"young","L2",2,1136,"Include"
"PCM2006_e1","PCM2006_e1_4",4,653,1,"young","L1",3,1225,"Include"
"PCM2006_e1","PCM2006_e1_4",4,654,1,"young","L1",6,1236,"Include"
"PCM2006_e1","PCM2006_e1_4",4,655,1,"young","L2",4,2068,"Include"
"PCM2006_e1","PCM2006_e1_4",4,656,0,"young","new",1,1005,"Include"
"PCM2006_e1","PCM2006_e1_4",4,657,1,"young","L2",1,1069,"Include"
"PCM2006_e1","PCM2006_e1_4",4,658,1,"young","L2",1,1398,"Include"
"PCM2006_e1","PCM2006_e1_4",4,659,1,"young","L2",2,1448,"Include"
"PCM2006_e1","PCM2006_e1_4",4,660,1,"young","L1",3,782,"Include"
"PCM2006_e1","PCM2006_e1_5",1,76,0,"young","new",1,15423,"Include"
"PCM2006_e1","PCM2006_e1_5",1,77,1,"young","L1",6,3848,"Include"
"PCM2006_e1","PCM2006_e1_5",1,78,1,"young","L1",6,1719,"Include"
"PCM2006_e1","PCM2006_e1_5",1,79,1,"young","L2",6,1004,"Include"
"PCM2006_e1","PCM2006_e1_5",1,80,1,"young","L2",6,1403,"Include"
"PCM2006_e1","PCM2006_e1_5",1,81,1,"young","L2",6,1276,"Include"
"PCM2006_e1","PCM2006_e1_5",1,82,0,"young","new",5,3105,"Include"
"PCM2006_e1","PCM2006_e1_5",1,83,1,"young","L1",6,1778,"Include"
"PCM2006_e1","PCM2006_e1_5",1,84,1,"young","L2",6,2297,"Include"
"PCM2006_e1","PCM2006_e1_5",1,85,1,"young","L1",6,1067,"Include"
"PCM2006_e1","PCM2006_e1_5",1,86,0,"young","new",1,1708,"Include"
"PCM2006_e1","PCM2006_e1_5",1,87,1,"young","L1",6,1402,"Include"
"PCM2006_e1","PCM2006_e1_5",1,88,1,"young","L2",6,971,"Include"
"PCM2006_e1","PCM2006_e1_5",1,89,1,"young","L1",6,794,"Include"
"PCM2006_e1","PCM2006_e1_5",1,90,1,"young","L1",6,1348,"Include"
"PCM2006_e1","PCM2006_e1_5",1,91,1,"young","L2",6,793,"Include"
"PCM2006_e1","PCM2006_e1_5",1,92,1,"young","L2",4,2970,"Include"
"PCM2006_e1","PCM2006_e1_5",1,93,0,"young","new",2,1867,"Include"
"PCM2006_e1","PCM2006_e1_5",1,94,1,"young","L2",6,1965,"Include"
"PCM2006_e1","PCM2006_e1_5",1,95,1,"young","L1",6,1238,"Include"
"PCM2006_e1","PCM2006_e1_5",1,96,0,"young","new",3,3375,"Include"
"PCM2006_e1","PCM2006_e1_5",1,97,1,"young","L2",1,1623,"Include"
"PCM2006_e1","PCM2006_e1_5",1,98,1,"young","L1",1,1163,"Include"
"PCM2006_e1","PCM2006_e1_5",1,99,1,"young","L1",6,1365,"Include"
"PCM2006_e1","PCM2006_e1_5",1,100,1,"young","L1",6,919,"Include"
"PCM2006_e1","PCM2006_e1_5",1,101,0,"young","new",4,3514,"Include"
"PCM2006_e1","PCM2006_e1_5",1,102,1,"young","L2",6,1296,"Include"
"PCM2006_e1","PCM2006_e1_5",1,103,1,"young","L1",6,641,"Include"
"PCM2006_e1","PCM2006_e1_5",1,104,1,"young","L1",6,786,"Include"
"PCM2006_e1","PCM2006_e1_5",1,105,0,"young","new",1,1462,"Include"
"PCM2006_e1","PCM2006_e1_5",1,106,1,"young","L2",6,945,"Include"
"PCM2006_e1","PCM2006_e1_5",1,107,0,"young","new",3,1369,"Include"
"PCM2006_e1","PCM2006_e1_5",1,108,1,"young","L1",6,992,"Include"
"PCM2006_e1","PCM2006_e1_5",1,109,1,"young","L1",6,1202,"Include"
"PCM2006_e1","PCM2006_e1_5",1,110,0,"young","new",3,3169,"Include"
"PCM2006_e1","PCM2006_e1_5",1,111,1,"young","L2",6,1675,"Include"
"PCM2006_e1","PCM2006_e1_5",1,112,1,"young","L2",6,808,"Include"
"PCM2006_e1","PCM2006_e1_5",1,113,0,"young","new",2,1880,"Include"
"PCM2006_e1","PCM2006_e1_5",1,114,1,"young","L2",6,1679,"Include"
"PCM2006_e1","PCM2006_e1_5",1,115,1,"young","L1",6,798,"Include"
"PCM2006_e1","PCM2006_e1_5",1,116,0,"young","new",2,2040,"Include"
"PCM2006_e1","PCM2006_e1_5",1,117,0,"young","new",6,1193,"Include"
"PCM2006_e1","PCM2006_e1_5",1,118,1,"young","L2",5,10098,"Include"
"PCM2006_e1","PCM2006_e1_5",1,119,0,"young","new",2,1528,"Include"
"PCM2006_e1","PCM2006_e1_5",1,120,1,"young","L1",6,1106,"Include"
"PCM2006_e1","PCM2006_e1_5",1,121,0,"young","new",2,2417,"Include"
"PCM2006_e1","PCM2006_e1_5",1,122,0,"young","new",2,878,"Include"
"PCM2006_e1","PCM2006_e1_5",1,123,1,"young","L1",6,1469,"Include"
"PCM2006_e1","PCM2006_e1_5",1,124,0,"young","new",1,1174,"Include"
"PCM2006_e1","PCM2006_e1_5",1,125,1,"young","L2",6,1477,"Include"
"PCM2006_e1","PCM2006_e1_5",1,126,0,"young","new",2,1627,"Include"
"PCM2006_e1","PCM2006_e1_5",1,127,0,"young","new",1,2430,"Include"
"PCM2006_e1","PCM2006_e1_5",1,128,1,"young","L1",6,1319,"Include"
"PCM2006_e1","PCM2006_e1_5",1,129,0,"young","new",2,2331,"Include"
"PCM2006_e1","PCM2006_e1_5",1,130,1,"young","L1",6,1405,"Include"
"PCM2006_e1","PCM2006_e1_5",1,131,0,"young","new",2,3485,"Include"
"PCM2006_e1","PCM2006_e1_5",1,132,1,"young","L1",6,3090,"Include"
"PCM2006_e1","PCM2006_e1_5",1,133,1,"young","L2",3,3086,"Include"
"PCM2006_e1","PCM2006_e1_5",1,134,0,"young","new",4,1483,"Include"
"PCM2006_e1","PCM2006_e1_5",1,135,1,"young","L1",6,1769,"Include"
"PCM2006_e1","PCM2006_e1_5",1,136,1,"young","L2",6,706,"Include"
"PCM2006_e1","PCM2006_e1_5",1,137,1,"young","L2",6,696,"Include"
"PCM2006_e1","PCM2006_e1_5",1,138,0,"young","new",2,2248,"Include"
"PCM2006_e1","PCM2006_e1_5",1,139,1,"young","L2",6,2862,"Include"
"PCM2006_e1","PCM2006_e1_5",1,140,1,"young","L2",6,1336,"Include"
"PCM2006_e1","PCM2006_e1_5",1,141,1,"young","L1",6,1224,"Include"
"PCM2006_e1","PCM2006_e1_5",1,142,1,"young","L2",6,698,"Include"
"PCM2006_e1","PCM2006_e1_5",1,143,0,"young","new",1,2731,"Include"
"PCM2006_e1","PCM2006_e1_5",1,144,1,"young","L1",6,2237,"Include"
"PCM2006_e1","PCM2006_e1_5",1,145,1,"young","L2",4,3518,"Include"
"PCM2006_e1","PCM2006_e1_5",1,146,1,"young","L2",6,1779,"Include"
