"exp","id","isold","condition1","rating","RT","excluding","trial"
"QGM2021_e1","QGM2021_e1_1",0,"BriefStudy",3,1567,"Include",1
"QGM2021_e1","QGM2021_e1_1",1,"BriefStudy",5,1550,"Include",2
"QGM2021_e1","QGM2021_e1_1",1,"BriefStudy",2,1250,"Include",3
"QGM2021_e1","QGM2021_e1_1",0,"BriefStudy",2,800,"Include",4
"QGM2021_e1","QGM2021_e1_1",0,"BriefStudy",5,1200,"Include",5
"QGM2021_e1","QGM2021_e1_1",0,"BriefStudy",3,1450,"Include",6
"QGM2021_e1","QGM2021_e1_1",1,"BriefStudy",5,1000,"Include",7
"QGM2021_e1","QGM2021_e1_1",0,"BriefStudy",2,650,"Include",8
"QGM2021_e1","QGM2021_e1_1",1,"BriefStudy",4,1600,"Include",9
"QGM2021_e1","QGM2021_e1_1",1,"BriefStudy",4,1100,"Include",10
"QGM2021_e1","QGM2021_e1_1",1,"BriefStudy",2,750,"Include",11
"QGM2021_e1","QGM2021_e1_1",0,"BriefStudy",2,850,"Include",12
"QGM2021_e1","QGM2021_e1_1",1,"BriefStudy",2,600,"Include",13
"QGM2021_e1","QGM2021_e1_1",1,"BriefStudy",3,867,"Include",14
"QGM2021_e1","QGM2021_e1_1",0,"BriefStudy",4,1700,"Include",15
"QGM2021_e1","QGM2021_e1_1",1,"BriefStudy",3,2450,"Include",16
"QGM2021_e1","QGM2021_e1_1",0,"BriefStudy",4,1450,"Include",17
"QGM2021_e1","QGM2021_e1_1",1,"BriefStudy",3,1900,"Include",18
"QGM2021_e1","QGM2021_e1_1",0,"BriefStudy",2,1150,"Include",19
"QGM2021_e1","QGM2021_e1_1",0,"BriefStudy",2,750,"Include",20
"QGM2021_e1","QGM2021_e1_1",0,"BriefStudy",3,1750,"Include",21
"QGM2021_e1","QGM2021_e1_1",1,"BriefStudy",2,1100,"Include",22
"QGM2021_e1","QGM2021_e1_1",0,"BriefStudy",3,1900,"Include",23
"QGM2021_e1","QGM2021_e1_1",1,"BriefStudy",5,2467,"Include",24
"QGM2021_e1","QGM2021_e1_1",0,"BriefStudy",5,1250,"Include",25
"QGM2021_e1","QGM2021_e1_1",1,"BriefStudy",2,900,"Include",26
"QGM2021_e1","QGM2021_e1_1",1,"BriefStudy",3,1100,"Include",27
"QGM2021_e1","QGM2021_e1_1",0,"BriefStudy",2,1450,"Include",28
"QGM2021_e1","QGM2021_e1_1",1,"BriefStudy",4,1050,"Include",29
"QGM2021_e1","QGM2021_e1_1",0,"BriefStudy",5,1350,"Include",30
"QGM2021_e1","QGM2021_e1_1",1,"BriefStudy",4,2900,"Include",31
"QGM2021_e1","QGM2021_e1_1",1,"BriefStudy",3,1334,"Include",32
"QGM2021_e1","QGM2021_e1_1",0,"BriefStudy",2,500,"Include",33
"QGM2021_e1","QGM2021_e1_1",0,"BriefStudy",2,600,"Include",34
"QGM2021_e1","QGM2021_e1_1",1,"BriefStudy",3,1800,"Include",35
"QGM2021_e1","QGM2021_e1_1",1,"BriefStudy",6,700,"Include",36
"QGM2021_e1","QGM2021_e1_1",0,"BriefStudy",2,2000,"Include",37
"QGM2021_e1","QGM2021_e1_1",1,"BriefStudy",3,1150,"Include",38
"QGM2021_e1","QGM2021_e1_1",0,"BriefStudy",3,600,"Include",39
"QGM2021_e1","QGM2021_e1_1",0,"BriefStudy",4,2150,"Include",40
"QGM2021_e1","QGM2021_e1_1",0,"BriefStudy",4,1250,"Include",41
"QGM2021_e1","QGM2021_e1_1",1,"BriefStudy",3,967,"Include",42
"QGM2021_e1","QGM2021_e1_1",1,"BriefStudy",2,550,"Include",43
"QGM2021_e1","QGM2021_e1_1",0,"BriefStudy",2,1067,"Include",44
"QGM2021_e1","QGM2021_e1_1",1,"BriefStudy",4,1550,"Include",45
"QGM2021_e1","QGM2021_e1_1",0,"BriefStudy",2,700,"Include",46
"QGM2021_e1","QGM2021_e1_1",1,"BriefStudy",4,1750,"Include",47
"QGM2021_e1","QGM2021_e1_1",0,"BriefStudy",3,1100,"Include",48
"QGM2021_e1","QGM2021_e1_1",1,"BriefStudy",3,2150,"Include",49
"QGM2021_e1","QGM2021_e1_1",0,"BriefStudy",2,800,"Include",50
"QGM2021_e1","QGM2021_e1_1",0,"BriefStudy",2,850,"Include",51
"QGM2021_e1","QGM2021_e1_1",1,"BriefStudy",3,1750,"Include",52
"QGM2021_e1","QGM2021_e1_1",0,"BriefStudy",2,1750,"Include",53
"QGM2021_e1","QGM2021_e1_1",1,"BriefStudy",4,1450,"Include",54
"QGM2021_e1","QGM2021_e1_1",0,"BriefStudy",1,1900,"Include",55
"QGM2021_e1","QGM2021_e1_1",1,"BriefStudy",4,2467,"Include",56
"QGM2021_e1","QGM2021_e1_1",1,"BriefStudy",3,1200,"Include",57
"QGM2021_e1","QGM2021_e1_1",0,"BriefStudy",2,750,"Include",58
"QGM2021_e1","QGM2021_e1_1",1,"BriefStudy",4,1617,"Include",59
"QGM2021_e1","QGM2021_e1_1",0,"BriefStudy",4,1000,"Include",60
"QGM2021_e1","QGM2021_e1_1",0,"BriefStudy",2,2117,"Include",61
"QGM2021_e1","QGM2021_e1_1",1,"BriefStudy",6,1350,"Include",62
"QGM2021_e1","QGM2021_e1_1",1,"BriefStudy",3,1300,"Include",63
"QGM2021_e1","QGM2021_e1_1",0,"BriefStudy",5,1217,"Include",64
"QGM2021_e1","QGM2021_e1_1",0,"BriefStudy",2,1200,"Include",65
"QGM2021_e1","QGM2021_e1_1",1,"BriefStudy",4,1050,"Include",66
"QGM2021_e1","QGM2021_e1_1",0,"BriefStudy",5,1050,"Include",67
"QGM2021_e1","QGM2021_e1_1",1,"BriefStudy",4,1000,"Include",68
"QGM2021_e1","QGM2021_e1_1",0,"BriefStudy",2,1250,"Include",69
"QGM2021_e1","QGM2021_e1_1",1,"BriefStudy",3,900,"Include",70
"QGM2021_e1","QGM2021_e1_1",0,"BriefStudy",4,1250,"Include",71
"QGM2021_e1","QGM2021_e1_1",0,"BriefStudy",5,1300,"Include",72
"QGM2021_e1","QGM2021_e1_1",0,"BriefStudy",3,750,"Include",73
"QGM2021_e1","QGM2021_e1_1",1,"BriefStudy",2,850,"Include",74
"QGM2021_e1","QGM2021_e1_1",0,"BriefStudy",2,1150,"Include",75
"QGM2021_e1","QGM2021_e1_1",1,"BriefStudy",3,1150,"Include",76
"QGM2021_e1","QGM2021_e1_1",1,"BriefStudy",3,1267,"Include",77
"QGM2021_e1","QGM2021_e1_1",1,"BriefStudy",5,1267,"Include",78
"QGM2021_e1","QGM2021_e1_1",0,"BriefStudy",3,850,"Include",79
"QGM2021_e1","QGM2021_e1_1",1,"BriefStudy",3,900,"Include",80
"QGM2021_e1","QGM2021_e1_1",0,"BriefStudy",3,700,"Include",81
"QGM2021_e1","QGM2021_e1_1",0,"BriefStudy",2,450,"Include",82
"QGM2021_e1","QGM2021_e1_1",1,"BriefStudy",3,1550,"Include",83
"QGM2021_e1","QGM2021_e1_1",0,"BriefStudy",4,1600,"Include",84
"QGM2021_e1","QGM2021_e1_1",1,"BriefStudy",2,750,"Include",85
"QGM2021_e1","QGM2021_e1_1",0,"BriefStudy",3,850,"Include",86
"QGM2021_e1","QGM2021_e1_1",0,"BriefStudy",3,1550,"Include",87
"QGM2021_e1","QGM2021_e1_1",1,"BriefStudy",4,950,"Include",88
"QGM2021_e1","QGM2021_e1_1",1,"BriefStudy",2,500,"Include",89
"QGM2021_e1","QGM2021_e1_1",1,"BriefStudy",3,1050,"Include",90
"QGM2021_e1","QGM2021_e1_1",0,"BriefStudy",4,1350,"Include",91
"QGM2021_e1","QGM2021_e1_1",1,"BriefStudy",4,1100,"Include",92
"QGM2021_e1","QGM2021_e1_1",1,"BriefStudy",5,800,"Include",93
"QGM2021_e1","QGM2021_e1_1",0,"BriefStudy",3,1000,"Include",94
"QGM2021_e1","QGM2021_e1_1",1,"BriefStudy",4,2650,"Include",95
"QGM2021_e1","QGM2021_e1_1",1,"BriefStudy",3,950,"Include",96
"QGM2021_e1","QGM2021_e1_1",0,"BriefStudy",5,1150,"Include",97
"QGM2021_e1","QGM2021_e1_1",0,"BriefStudy",3,1550,"Include",98
"QGM2021_e1","QGM2021_e1_1",0,"BriefStudy",6,1400,"Include",99
"QGM2021_e1","QGM2021_e1_1",1,"BriefStudy",4,2000,"Include",100
"QGM2021_e1","QGM2021_e1_1",1,"BriefStudy",3,733,"Include",101
"QGM2021_e1","QGM2021_e1_1",0,"BriefStudy",3,1050,"Include",102
"QGM2021_e1","QGM2021_e1_1",0,"BriefStudy",2,550,"Include",103
"QGM2021_e1","QGM2021_e1_1",1,"BriefStudy",2,1450,"Include",104
"QGM2021_e1","QGM2021_e1_1",1,"BriefStudy",4,2450,"Include",105
"QGM2021_e1","QGM2021_e1_1",1,"BriefStudy",4,1767,"Include",106
"QGM2021_e1","QGM2021_e1_1",0,"BriefStudy",5,2400,"Include",107
"QGM2021_e1","QGM2021_e1_1",0,"BriefStudy",3,450,"Include",108
"QGM2021_e1","QGM2021_e1_1",1,"BriefStudy",4,1300,"Include",109
"QGM2021_e1","QGM2021_e1_1",0,"BriefStudy",3,1100,"Include",110
"QGM2021_e1","QGM2021_e1_1",0,"BriefStudy",2,1150,"Include",111
"QGM2021_e1","QGM2021_e1_1",1,"BriefStudy",4,1250,"Include",112
"QGM2021_e1","QGM2021_e1_1",0,"BriefStudy",3,500,"Include",113
"QGM2021_e1","QGM2021_e1_1",1,"BriefStudy",5,1350,"Include",114
"QGM2021_e1","QGM2021_e1_1",0,"BriefStudy",5,1017,"Include",115
"QGM2021_e1","QGM2021_e1_1",0,"BriefStudy",2,900,"Include",116
"QGM2021_e1","QGM2021_e1_1",1,"BriefStudy",2,567,"Include",117
"QGM2021_e1","QGM2021_e1_1",1,"BriefStudy",3,1400,"Include",118
"QGM2021_e1","QGM2021_e1_1",1,"BriefStudy",3,550,"Include",119
"QGM2021_e1","QGM2021_e1_1",0,"BriefStudy",3,800,"Include",120
"QGM2021_e1","QGM2021_e1_1",1,"BriefStudy",3,2000,"Include",121
"QGM2021_e1","QGM2021_e1_1",0,"BriefStudy",2,2400,"Include",122
"QGM2021_e1","QGM2021_e1_1",1,"BriefStudy",6,2200,"Include",123
"QGM2021_e1","QGM2021_e1_1",1,"BriefStudy",6,1600,"Include",124
"QGM2021_e1","QGM2021_e1_1",0,"BriefStudy",2,1750,"Include",125
"QGM2021_e1","QGM2021_e1_1",0,"BriefStudy",2,1600,"Include",126
"QGM2021_e1","QGM2021_e1_1",1,"BriefStudy",4,2100,"Include",127
"QGM2021_e1","QGM2021_e1_1",1,"BriefStudy",5,1150,"Include",128
"QGM2021_e1","QGM2021_e1_1",0,"BriefStudy",3,4000,"Include",129
"QGM2021_e1","QGM2021_e1_1",0,"BriefStudy",3,2350,"Include",130
"QGM2021_e1","QGM2021_e1_1",0,"BriefStudy",5,1000,"Include",131
"QGM2021_e1","QGM2021_e1_1",1,"BriefStudy",5,2250,"Include",132
"QGM2021_e1","QGM2021_e1_1",1,"BriefStudy",2,800,"Include",133
"QGM2021_e1","QGM2021_e1_1",1,"BriefStudy",6,700,"Include",134
"QGM2021_e1","QGM2021_e1_1",0,"BriefStudy",2,1350,"Include",135
"QGM2021_e1","QGM2021_e1_1",0,"BriefStudy",3,1650,"Include",136
"QGM2021_e1","QGM2021_e1_1",0,"BriefStudy",4,1600,"Include",137
"QGM2021_e1","QGM2021_e1_1",1,"BriefStudy",5,850,"Include",138
"QGM2021_e1","QGM2021_e1_1",0,"BriefStudy",2,2917,"Include",139
"QGM2021_e1","QGM2021_e1_1",1,"BriefStudy",4,1600,"Include",140
"QGM2021_e1","QGM2021_e1_1",0,"BriefStudy",5,2450,"Include",141
"QGM2021_e1","QGM2021_e1_1",1,"BriefStudy",2,1400,"Include",142
"QGM2021_e1","QGM2021_e1_1",0,"BriefStudy",3,2100,"Include",143
"QGM2021_e1","QGM2021_e1_1",1,"BriefStudy",5,1800,"Include",144
"QGM2021_e1","QGM2021_e1_1",0,"BriefStudy",2,2700,"Include",145
"QGM2021_e1","QGM2021_e1_1",0,"BriefStudy",4,1900,"Include",146
"QGM2021_e1","QGM2021_e1_1",0,"BriefStudy",4,1800,"Include",147
"QGM2021_e1","QGM2021_e1_1",1,"BriefStudy",2,900,"Include",148
"QGM2021_e1","QGM2021_e1_1",1,"BriefStudy",6,1000,"Include",149
"QGM2021_e1","QGM2021_e1_1",1,"BriefStudy",3,2550,"Include",150
"QGM2021_e1","QGM2021_e1_1",0,"BriefStudy",3,1900,"Include",151
"QGM2021_e1","QGM2021_e1_1",0,"BriefStudy",2,550,"Include",152
"QGM2021_e1","QGM2021_e1_1",1,"BriefStudy",3,950,"Include",153
"QGM2021_e1","QGM2021_e1_1",0,"BriefStudy",1,3750,"Include",154
"QGM2021_e1","QGM2021_e1_1",0,"BriefStudy",3,650,"Include",155
"QGM2021_e1","QGM2021_e1_1",1,"BriefStudy",4,2000,"Include",156
"QGM2021_e1","QGM2021_e1_1",1,"BriefStudy",6,700,"Include",157
"QGM2021_e1","QGM2021_e1_1",1,"BriefStudy",4,1467,"Include",158
"QGM2021_e1","QGM2021_e1_1",0,"BriefStudy",2,700,"Include",159
"QGM2021_e1","QGM2021_e1_1",1,"BriefStudy",5,900,"Include",160
"QGM2021_e1","QGM2021_e1_1",1,"BriefStudy",6,950,"Include",161
"QGM2021_e1","QGM2021_e1_1",1,"BriefStudy",6,700,"Include",162
"QGM2021_e1","QGM2021_e1_1",0,"BriefStudy",3,1050,"Include",163
"QGM2021_e1","QGM2021_e1_1",1,"BriefStudy",2,600,"Include",164
"QGM2021_e1","QGM2021_e1_1",0,"BriefStudy",4,1050,"Include",165
"QGM2021_e1","QGM2021_e1_1",0,"BriefStudy",3,1650,"Include",166
"QGM2021_e1","QGM2021_e1_1",1,"BriefStudy",3,700,"Include",167
"QGM2021_e1","QGM2021_e1_1",0,"BriefStudy",4,1200,"Include",168
"QGM2021_e1","QGM2021_e1_1",0,"BriefStudy",2,1400,"Include",169
"QGM2021_e1","QGM2021_e1_1",1,"BriefStudy",5,1050,"Include",170
"QGM2021_e1","QGM2021_e1_1",1,"BriefStudy",2,1900,"Include",171
"QGM2021_e1","QGM2021_e1_1",0,"BriefStudy",3,1700,"Include",172
"QGM2021_e1","QGM2021_e1_1",1,"BriefStudy",2,800,"Include",173
"QGM2021_e1","QGM2021_e1_1",0,"BriefStudy",4,1100,"Include",174
"QGM2021_e1","QGM2021_e1_1",1,"BriefStudy",6,700,"Include",175
"QGM2021_e1","QGM2021_e1_1",0,"BriefStudy",4,1050,"Include",176
"QGM2021_e1","QGM2021_e1_1",0,"BriefStudy",2,800,"Include",177
"QGM2021_e1","QGM2021_e1_1",1,"BriefStudy",5,950,"Include",178
"QGM2021_e1","QGM2021_e1_1",1,"BriefStudy",3,1150,"Include",179
"QGM2021_e1","QGM2021_e1_1",0,"BriefStudy",4,1950,"Include",180
"QGM2021_e1","QGM2021_e1_1",1,"BriefStudy",6,800,"Include",181
"QGM2021_e1","QGM2021_e1_1",0,"BriefStudy",3,1000,"Include",182
"QGM2021_e1","QGM2021_e1_1",0,"BriefStudy",3,1100,"Include",183
"QGM2021_e1","QGM2021_e1_1",1,"BriefStudy",5,1100,"Include",184
"QGM2021_e1","QGM2021_e1_1",1,"BriefStudy",3,800,"Include",185
"QGM2021_e1","QGM2021_e1_1",0,"BriefStudy",4,1500,"Include",186
"QGM2021_e1","QGM2021_e1_1",1,"BriefStudy",3,1250,"Include",187
"QGM2021_e1","QGM2021_e1_1",0,"BriefStudy",2,550,"Include",188
"QGM2021_e1","QGM2021_e1_1",0,"BriefStudy",3,600,"Include",189
"QGM2021_e1","QGM2021_e1_1",1,"BriefStudy",3,1750,"Include",190
"QGM2021_e1","QGM2021_e1_1",0,"BriefStudy",3,1350,"Include",191
"QGM2021_e1","QGM2021_e1_1",1,"BriefStudy",2,1100,"Include",192
"QGM2021_e1","QGM2021_e1_1",0,"BriefStudy",4,1900,"Include",193
"QGM2021_e1","QGM2021_e1_1",1,"BriefStudy",3,850,"Include",194
"QGM2021_e1","QGM2021_e1_1",1,"BriefStudy",5,800,"Include",195
"QGM2021_e1","QGM2021_e1_1",0,"BriefStudy",3,1500,"Include",196
"QGM2021_e1","QGM2021_e1_1",0,"BriefStudy",3,1500,"Include",197
"QGM2021_e1","QGM2021_e1_1",0,"BriefStudy",5,700,"Include",198
"QGM2021_e1","QGM2021_e1_1",1,"BriefStudy",6,500,"Include",199
"QGM2021_e1","QGM2021_e1_1",1,"BriefStudy",3,650,"Include",200
"QGM2021_e1","QGM2021_e1_1",1,"BriefStudy",4,1700,"Include",201
"QGM2021_e1","QGM2021_e1_1",0,"BriefStudy",4,1000,"Include",202
"QGM2021_e1","QGM2021_e1_1",1,"BriefStudy",6,800,"Include",203
"QGM2021_e1","QGM2021_e1_1",1,"BriefStudy",6,750,"Include",204
"QGM2021_e1","QGM2021_e1_1",0,"BriefStudy",3,1300,"Include",205
"QGM2021_e1","QGM2021_e1_1",1,"BriefStudy",4,1350,"Include",206
"QGM2021_e1","QGM2021_e1_1",1,"BriefStudy",5,900,"Include",207
"QGM2021_e1","QGM2021_e1_1",0,"BriefStudy",3,1400,"Include",208
"QGM2021_e1","QGM2021_e1_1",0,"BriefStudy",2,1000,"Include",209
"QGM2021_e1","QGM2021_e1_1",0,"BriefStudy",2,1200,"Include",210
"QGM2021_e1","QGM2021_e1_1",1,"BriefStudy",4,1300,"Include",211
"QGM2021_e1","QGM2021_e1_1",0,"BriefStudy",3,1250,"Include",212
"QGM2021_e1","QGM2021_e1_1",1,"BriefStudy",5,450,"Include",213
"QGM2021_e1","QGM2021_e1_1",0,"BriefStudy",4,1300,"Include",214
"QGM2021_e1","QGM2021_e1_1",0,"BriefStudy",4,950,"Include",215
"QGM2021_e1","QGM2021_e1_1",1,"BriefStudy",4,950,"Include",216
"QGM2021_e1","QGM2021_e1_1",1,"BriefStudy",6,450,"Include",217
"QGM2021_e1","QGM2021_e1_1",0,"BriefStudy",3,750,"Include",218
"QGM2021_e1","QGM2021_e1_1",1,"BriefStudy",3,2050,"Include",219
"QGM2021_e1","QGM2021_e1_1",0,"BriefStudy",3,1400,"Include",220
"QGM2021_e1","QGM2021_e1_1",0,"BriefStudy",2,950,"Include",221
"QGM2021_e1","QGM2021_e1_1",0,"BriefStudy",4,800,"Include",222
"QGM2021_e1","QGM2021_e1_1",1,"BriefStudy",2,1100,"Include",223
"QGM2021_e1","QGM2021_e1_1",0,"BriefStudy",4,950,"Include",224
"QGM2021_e1","QGM2021_e1_1",1,"BriefStudy",6,450,"Include",225
"QGM2021_e1","QGM2021_e1_1",1,"BriefStudy",5,800,"Include",226
"QGM2021_e1","QGM2021_e1_1",0,"BriefStudy",4,750,"Include",227
"QGM2021_e1","QGM2021_e1_1",0,"BriefStudy",3,2100,"Include",228
"QGM2021_e1","QGM2021_e1_1",1,"BriefStudy",3,800,"Include",229
"QGM2021_e1","QGM2021_e1_1",1,"BriefStudy",4,1217,"Include",230
"QGM2021_e1","QGM2021_e1_1",0,"BriefStudy",2,800,"Include",231
"QGM2021_e1","QGM2021_e1_1",0,"BriefStudy",3,1817,"Include",232
"QGM2021_e1","QGM2021_e1_1",0,"BriefStudy",3,1250,"Include",233
"QGM2021_e1","QGM2021_e1_1",1,"BriefStudy",6,650,"Include",234
"QGM2021_e1","QGM2021_e1_1",1,"BriefStudy",5,700,"Include",235
"QGM2021_e1","QGM2021_e1_1",0,"BriefStudy",5,950,"Include",236
"QGM2021_e1","QGM2021_e1_1",1,"BriefStudy",4,600,"Include",237
"QGM2021_e1","QGM2021_e1_1",0,"BriefStudy",3,550,"Include",238
"QGM2021_e1","QGM2021_e1_1",1,"BriefStudy",2,500,"Include",239
"QGM2021_e1","QGM2021_e1_1",1,"BriefStudy",3,1350,"Include",240
"QGM2021_e1","QGM2021_e1_1",1,"BriefStudy",5,4617,"Include",241
"QGM2021_e1","QGM2021_e1_1",1,"BriefStudy",6,1000,"Include",242
"QGM2021_e1","QGM2021_e1_1",1,"BriefStudy",5,1600,"Include",243
"QGM2021_e1","QGM2021_e1_1",0,"BriefStudy",3,1200,"Include",244
"QGM2021_e1","QGM2021_e1_1",0,"BriefStudy",3,1500,"Include",245
"QGM2021_e1","QGM2021_e1_1",0,"BriefStudy",4,2250,"Include",246
"QGM2021_e1","QGM2021_e1_1",1,"BriefStudy",5,1717,"Include",247
"QGM2021_e1","QGM2021_e1_1",1,"BriefStudy",6,950,"Include",248
"QGM2021_e1","QGM2021_e1_1",0,"BriefStudy",3,850,"Include",249
"QGM2021_e1","QGM2021_e1_1",0,"BriefStudy",4,1150,"Include",250
"QGM2021_e1","QGM2021_e1_1",1,"BriefStudy",2,1050,"Include",251
"QGM2021_e1","QGM2021_e1_1",0,"BriefStudy",2,1617,"Include",252
"QGM2021_e1","QGM2021_e1_1",0,"BriefStudy",4,2100,"Include",253
"QGM2021_e1","QGM2021_e1_1",1,"BriefStudy",6,600,"Include",254
"QGM2021_e1","QGM2021_e1_1",1,"BriefStudy",4,1500,"Include",255
"QGM2021_e1","QGM2021_e1_1",1,"BriefStudy",6,350,"Include",256
"QGM2021_e1","QGM2021_e1_1",0,"BriefStudy",4,1350,"Include",257
"QGM2021_e1","QGM2021_e1_1",1,"BriefStudy",6,400,"Include",258
"QGM2021_e1","QGM2021_e1_1",0,"BriefStudy",2,1400,"Include",259
"QGM2021_e1","QGM2021_e1_1",0,"BriefStudy",3,850,"Include",260
"QGM2021_e1","QGM2021_e1_1",1,"BriefStudy",6,1017,"Include",261
"QGM2021_e1","QGM2021_e1_1",1,"BriefStudy",6,1350,"Include",262
"QGM2021_e1","QGM2021_e1_1",1,"BriefStudy",3,1467,"Include",263
"QGM2021_e1","QGM2021_e1_1",0,"BriefStudy",3,1950,"Include",264
"QGM2021_e1","QGM2021_e1_1",0,"BriefStudy",2,650,"Include",265
"QGM2021_e1","QGM2021_e1_1",0,"BriefStudy",2,950,"Include",266
"QGM2021_e1","QGM2021_e1_1",1,"BriefStudy",5,1500,"Include",267
"QGM2021_e1","QGM2021_e1_1",0,"BriefStudy",2,817,"Include",268
"QGM2021_e1","QGM2021_e1_1",0,"BriefStudy",3,1000,"Include",269
"QGM2021_e1","QGM2021_e1_1",1,"BriefStudy",2,817,"Include",270
"QGM2021_e1","QGM2021_e1_1",1,"BriefStudy",4,750,"Include",271
"QGM2021_e1","QGM2021_e1_1",1,"BriefStudy",5,967,"Include",272
"QGM2021_e1","QGM2021_e1_1",0,"BriefStudy",4,1450,"Include",273
"QGM2021_e1","QGM2021_e1_1",1,"BriefStudy",6,450,"Include",274
"QGM2021_e1","QGM2021_e1_1",0,"BriefStudy",2,1650,"Include",275
"QGM2021_e1","QGM2021_e1_1",0,"BriefStudy",1,1750,"Include",276
"QGM2021_e1","QGM2021_e1_1",0,"BriefStudy",5,2367,"Include",277
"QGM2021_e1","QGM2021_e1_1",1,"BriefStudy",6,450,"Include",278
"QGM2021_e1","QGM2021_e1_1",1,"BriefStudy",6,617,"Include",279
"QGM2021_e1","QGM2021_e1_1",0,"BriefStudy",2,1000,"Include",280
"QGM2021_e1","QGM2021_e1_1",0,"BriefStudy",2,850,"Include",281
"QGM2021_e1","QGM2021_e1_1",1,"BriefStudy",6,300,"Include",282
"QGM2021_e1","QGM2021_e1_1",1,"BriefStudy",5,1217,"Include",283
"QGM2021_e1","QGM2021_e1_1",1,"BriefStudy",6,400,"Include",284
"QGM2021_e1","QGM2021_e1_1",0,"BriefStudy",2,1367,"Include",285
"QGM2021_e1","QGM2021_e1_1",0,"BriefStudy",4,1550,"Include",286
"QGM2021_e1","QGM2021_e1_1",1,"BriefStudy",6,400,"Include",287
"QGM2021_e1","QGM2021_e1_1",0,"BriefStudy",2,900,"Include",288
"QGM2021_e1","QGM2021_e1_1",0,"BriefStudy",1,2150,"Include",289
"QGM2021_e1","QGM2021_e1_1",1,"BriefStudy",3,1150,"Include",290
"QGM2021_e1","QGM2021_e1_1",1,"BriefStudy",6,950,"Include",291
"QGM2021_e1","QGM2021_e1_1",0,"BriefStudy",2,967,"Include",292
"QGM2021_e1","QGM2021_e1_1",1,"BriefStudy",6,350,"Include",293
"QGM2021_e1","QGM2021_e1_1",1,"BriefStudy",3,1100,"Include",294
"QGM2021_e1","QGM2021_e1_1",0,"BriefStudy",3,1250,"Include",295
"QGM2021_e1","QGM2021_e1_1",0,"BriefStudy",3,1750,"Include",296
"QGM2021_e1","QGM2021_e1_1",1,"BriefStudy",5,967,"Include",297
"QGM2021_e1","QGM2021_e1_1",1,"BriefStudy",4,2350,"Include",298
"QGM2021_e1","QGM2021_e1_1",0,"BriefStudy",3,1050,"Include",299
"QGM2021_e1","QGM2021_e1_1",0,"BriefStudy",4,1100,"Include",300
"QGM2021_e1","QGM2021_e1_1",1,"BriefStudy",6,350,"Include",301
"QGM2021_e1","QGM2021_e1_1",1,"BriefStudy",4,1050,"Include",302
"QGM2021_e1","QGM2021_e1_1",1,"BriefStudy",6,450,"Include",303
"QGM2021_e1","QGM2021_e1_1",0,"BriefStudy",2,550,"Include",304
"QGM2021_e1","QGM2021_e1_1",1,"BriefStudy",5,1000,"Include",305
"QGM2021_e1","QGM2021_e1_1",0,"BriefStudy",4,800,"Include",306
"QGM2021_e1","QGM2021_e1_1",0,"BriefStudy",3,1150,"Include",307
"QGM2021_e1","QGM2021_e1_1",0,"BriefStudy",4,1250,"Include",308
"QGM2021_e1","QGM2021_e1_1",1,"BriefStudy",6,400,"Include",309
"QGM2021_e1","QGM2021_e1_1",0,"BriefStudy",5,950,"Include",310
"QGM2021_e1","QGM2021_e1_1",1,"BriefStudy",6,350,"Include",311
"QGM2021_e1","QGM2021_e1_1",1,"BriefStudy",6,350,"Include",312
"QGM2021_e1","QGM2021_e1_1",0,"BriefStudy",1,800,"Include",313
"QGM2021_e1","QGM2021_e1_1",0,"BriefStudy",3,1450,"Include",314
"QGM2021_e1","QGM2021_e1_1",0,"BriefStudy",1,600,"Include",315
"QGM2021_e1","QGM2021_e1_1",1,"BriefStudy",3,1200,"Include",316
"QGM2021_e1","QGM2021_e1_1",1,"BriefStudy",6,350,"Include",317
"QGM2021_e1","QGM2021_e1_1",0,"BriefStudy",2,1150,"Include",318
"QGM2021_e1","QGM2021_e1_1",0,"BriefStudy",1,800,"Include",319
"QGM2021_e1","QGM2021_e1_1",1,"BriefStudy",4,1400,"Include",320
"QGM2021_e1","QGM2021_e1_1",1,"BriefStudy",4,1250,"Include",321
"QGM2021_e1","QGM2021_e1_1",0,"BriefStudy",2,550,"Include",322
"QGM2021_e1","QGM2021_e1_1",1,"BriefStudy",6,750,"Include",323
"QGM2021_e1","QGM2021_e1_1",1,"BriefStudy",5,1550,"Include",324
"QGM2021_e1","QGM2021_e1_1",1,"BriefStudy",6,350,"Include",325
"QGM2021_e1","QGM2021_e1_1",0,"BriefStudy",2,650,"Include",326
"QGM2021_e1","QGM2021_e1_1",1,"BriefStudy",3,950,"Include",327
"QGM2021_e1","QGM2021_e1_1",0,"BriefStudy",1,850,"Include",328
"QGM2021_e1","QGM2021_e1_1",0,"BriefStudy",3,950,"Include",329
"QGM2021_e1","QGM2021_e1_1",0,"BriefStudy",4,1100,"Include",330
"QGM2021_e1","QGM2021_e1_1",1,"BriefStudy",5,800,"Include",331
"QGM2021_e1","QGM2021_e1_1",0,"BriefStudy",2,950,"Include",332
"QGM2021_e1","QGM2021_e1_1",1,"BriefStudy",6,250,"Include",333
"QGM2021_e1","QGM2021_e1_1",0,"BriefStudy",4,1050,"Include",334
"QGM2021_e1","QGM2021_e1_1",0,"BriefStudy",3,850,"Include",335
"QGM2021_e1","QGM2021_e1_1",1,"BriefStudy",6,400,"Include",336
"QGM2021_e1","QGM2021_e1_1",0,"BriefStudy",5,650,"Include",337
"QGM2021_e1","QGM2021_e1_1",0,"BriefStudy",1,750,"Include",338
"QGM2021_e1","QGM2021_e1_1",1,"BriefStudy",4,1700,"Include",339
"QGM2021_e1","QGM2021_e1_1",1,"BriefStudy",6,350,"Include",340
"QGM2021_e1","QGM2021_e1_1",1,"BriefStudy",6,500,"Include",341
"QGM2021_e1","QGM2021_e1_1",0,"BriefStudy",3,750,"Include",342
"QGM2021_e1","QGM2021_e1_1",1,"BriefStudy",6,300,"Include",343
"QGM2021_e1","QGM2021_e1_1",0,"BriefStudy",3,650,"Include",344
"QGM2021_e1","QGM2021_e1_1",1,"BriefStudy",6,250,"Include",345
"QGM2021_e1","QGM2021_e1_1",1,"BriefStudy",5,750,"Include",346
"QGM2021_e1","QGM2021_e1_1",1,"BriefStudy",1,650,"Include",347
"QGM2021_e1","QGM2021_e1_1",0,"BriefStudy",2,1050,"Include",348
"QGM2021_e1","QGM2021_e1_1",0,"BriefStudy",3,750,"Include",349
"QGM2021_e1","QGM2021_e1_1",0,"BriefStudy",3,1150,"Include",350
"QGM2021_e1","QGM2021_e1_1",1,"BriefStudy",6,350,"Include",351
"QGM2021_e1","QGM2021_e1_1",0,"BriefStudy",4,1517,"Include",352
"QGM2021_e1","QGM2021_e1_1",0,"BriefStudy",3,800,"Include",353
"QGM2021_e1","QGM2021_e1_1",1,"BriefStudy",4,2050,"Include",354
"QGM2021_e1","QGM2021_e1_1",0,"BriefStudy",2,950,"Include",355
"QGM2021_e1","QGM2021_e1_1",0,"BriefStudy",2,700,"Include",356
"QGM2021_e1","QGM2021_e1_1",1,"BriefStudy",2,750,"Include",357
"QGM2021_e1","QGM2021_e1_1",1,"BriefStudy",6,750,"Include",358
"QGM2021_e1","QGM2021_e1_1",0,"BriefStudy",3,1100,"Include",359
"QGM2021_e1","QGM2021_e1_1",1,"BriefStudy",6,700,"Include",360
"QGM2021_e1","QGM2021_e1_2",1,"BriefStudy",3,27001,"Include",1
"QGM2021_e1","QGM2021_e1_2",1,"BriefStudy",5,4567,"Include",2
"QGM2021_e1","QGM2021_e1_2",1,"BriefStudy",5,2517,"Include",3
"QGM2021_e1","QGM2021_e1_2",0,"BriefStudy",6,3067,"Include",4
"QGM2021_e1","QGM2021_e1_2",0,"BriefStudy",3,5700,"Include",5
"QGM2021_e1","QGM2021_e1_2",0,"BriefStudy",6,1700,"Include",6
"QGM2021_e1","QGM2021_e1_2",1,"BriefStudy",5,2867,"Include",7
"QGM2021_e1","QGM2021_e1_2",1,"BriefStudy",6,2700,"Include",8
"QGM2021_e1","QGM2021_e1_2",0,"BriefStudy",5,5317,"Include",9
"QGM2021_e1","QGM2021_e1_2",0,"BriefStudy",4,2400,"Include",10
"QGM2021_e1","QGM2021_e1_2",1,"BriefStudy",5,2367,"Include",11
"QGM2021_e1","QGM2021_e1_2",0,"BriefStudy",2,2700,"Include",12
"QGM2021_e1","QGM2021_e1_2",0,"BriefStudy",3,2250,"Include",13
"QGM2021_e1","QGM2021_e1_2",1,"BriefStudy",3,1000,"Include",14
"QGM2021_e1","QGM2021_e1_2",1,"BriefStudy",6,1600,"Include",15
"QGM2021_e1","QGM2021_e1_2",1,"BriefStudy",5,2850,"Include",16
"QGM2021_e1","QGM2021_e1_2",0,"BriefStudy",5,3400,"Include",17
"QGM2021_e1","QGM2021_e1_2",1,"BriefStudy",3,2850,"Include",18
"QGM2021_e1","QGM2021_e1_2",0,"BriefStudy",2,2950,"Include",19
"QGM2021_e1","QGM2021_e1_2",0,"BriefStudy",3,2967,"Include",20
"QGM2021_e1","QGM2021_e1_2",1,"BriefStudy",6,900,"Include",21
"QGM2021_e1","QGM2021_e1_2",1,"BriefStudy",6,650,"Include",22
"QGM2021_e1","QGM2021_e1_2",1,"BriefStudy",4,2200,"Include",23
"QGM2021_e1","QGM2021_e1_2",0,"BriefStudy",3,2650,"Include",24
"QGM2021_e1","QGM2021_e1_2",0,"BriefStudy",3,2600,"Include",25
"QGM2021_e1","QGM2021_e1_2",0,"BriefStudy",3,4267,"Include",26
"QGM2021_e1","QGM2021_e1_2",1,"BriefStudy",3,1150,"Include",27
"QGM2021_e1","QGM2021_e1_2",0,"BriefStudy",4,4250,"Include",28
"QGM2021_e1","QGM2021_e1_2",0,"BriefStudy",5,2050,"Include",29
"QGM2021_e1","QGM2021_e1_2",1,"BriefStudy",3,1450,"Include",30
"QGM2021_e1","QGM2021_e1_2",1,"BriefStudy",5,1400,"Include",31
"QGM2021_e1","QGM2021_e1_2",1,"BriefStudy",4,1200,"Include",32
"QGM2021_e1","QGM2021_e1_2",0,"BriefStudy",6,3200,"Include",33
"QGM2021_e1","QGM2021_e1_2",1,"BriefStudy",3,1500,"Include",34
"QGM2021_e1","QGM2021_e1_2",0,"BriefStudy",6,2400,"Include",35
"QGM2021_e1","QGM2021_e1_2",0,"BriefStudy",4,3300,"Include",36
"QGM2021_e1","QGM2021_e1_2",0,"BriefStudy",2,1350,"Include",37
"QGM2021_e1","QGM2021_e1_2",1,"BriefStudy",2,1250,"Include",38
"QGM2021_e1","QGM2021_e1_2",1,"BriefStudy",6,1100,"Include",39
"QGM2021_e1","QGM2021_e1_2",0,"BriefStudy",3,2450,"Include",40
"QGM2021_e1","QGM2021_e1_2",0,"BriefStudy",3,1967,"Include",41
"QGM2021_e1","QGM2021_e1_2",1,"BriefStudy",4,1700,"Include",42
"QGM2021_e1","QGM2021_e1_2",1,"BriefStudy",6,650,"Include",43
"QGM2021_e1","QGM2021_e1_2",1,"BriefStudy",6,900,"Include",44
"QGM2021_e1","QGM2021_e1_2",0,"BriefStudy",3,2450,"Include",45
"QGM2021_e1","QGM2021_e1_2",0,"BriefStudy",4,2800,"Include",46
"QGM2021_e1","QGM2021_e1_2",1,"BriefStudy",6,1850,"Include",47
"QGM2021_e1","QGM2021_e1_2",0,"BriefStudy",4,2050,"Include",48
"QGM2021_e1","QGM2021_e1_2",0,"BriefStudy",3,2700,"Include",49
"QGM2021_e1","QGM2021_e1_2",1,"BriefStudy",3,2300,"Include",50
"QGM2021_e1","QGM2021_e1_2",1,"BriefStudy",6,1050,"Include",51
"QGM2021_e1","QGM2021_e1_2",0,"BriefStudy",4,3267,"Include",52
"QGM2021_e1","QGM2021_e1_2",1,"BriefStudy",6,550,"Include",53
"QGM2021_e1","QGM2021_e1_2",1,"BriefStudy",2,2250,"Include",54
"QGM2021_e1","QGM2021_e1_2",0,"BriefStudy",4,2300,"Include",55
"QGM2021_e1","QGM2021_e1_2",0,"BriefStudy",3,1667,"Include",56
"QGM2021_e1","QGM2021_e1_2",1,"BriefStudy",3,900,"Include",57
"QGM2021_e1","QGM2021_e1_2",1,"BriefStudy",3,2400,"Include",58
"QGM2021_e1","QGM2021_e1_2",0,"BriefStudy",3,1967,"Include",59
"QGM2021_e1","QGM2021_e1_2",0,"BriefStudy",5,1850,"Include",60
"QGM2021_e1","QGM2021_e1_2",1,"BriefStudy",4,2950,"Include",61
"QGM2021_e1","QGM2021_e1_2",1,"BriefStudy",3,1750,"Include",62
"QGM2021_e1","QGM2021_e1_2",1,"BriefStudy",6,600,"Include",63
"QGM2021_e1","QGM2021_e1_2",0,"BriefStudy",4,4550,"Include",64
"QGM2021_e1","QGM2021_e1_2",1,"BriefStudy",6,2000,"Include",65
"QGM2021_e1","QGM2021_e1_2",0,"BriefStudy",6,1250,"Include",66
"QGM2021_e1","QGM2021_e1_2",0,"BriefStudy",2,2683,"Include",67
"QGM2021_e1","QGM2021_e1_2",0,"BriefStudy",4,3167,"Include",68
"QGM2021_e1","QGM2021_e1_2",1,"BriefStudy",5,1700,"Include",69
"QGM2021_e1","QGM2021_e1_2",0,"BriefStudy",2,1000,"Include",70
"QGM2021_e1","QGM2021_e1_2",1,"BriefStudy",6,700,"Include",71
"QGM2021_e1","QGM2021_e1_2",1,"BriefStudy",5,2350,"Include",72
"QGM2021_e1","QGM2021_e1_2",0,"BriefStudy",3,3000,"Include",73
"QGM2021_e1","QGM2021_e1_2",0,"BriefStudy",2,1600,"Include",74
"QGM2021_e1","QGM2021_e1_2",0,"BriefStudy",2,1850,"Include",75
"QGM2021_e1","QGM2021_e1_2",1,"BriefStudy",4,2150,"Include",76
"QGM2021_e1","QGM2021_e1_2",1,"BriefStudy",3,2167,"Include",77
"QGM2021_e1","QGM2021_e1_2",0,"BriefStudy",3,950,"Include",78
"QGM2021_e1","QGM2021_e1_2",0,"BriefStudy",2,3150,"Include",79
"QGM2021_e1","QGM2021_e1_2",1,"BriefStudy",6,900,"Include",80
"QGM2021_e1","QGM2021_e1_2",1,"BriefStudy",3,2217,"Include",81
"QGM2021_e1","QGM2021_e1_2",0,"BriefStudy",4,1950,"Include",82
"QGM2021_e1","QGM2021_e1_2",1,"BriefStudy",3,1550,"Include",83
"QGM2021_e1","QGM2021_e1_2",1,"BriefStudy",6,1450,"Include",84
"QGM2021_e1","QGM2021_e1_2",1,"BriefStudy",6,500,"Include",85
"QGM2021_e1","QGM2021_e1_2",0,"BriefStudy",3,2600,"Include",86
"QGM2021_e1","QGM2021_e1_2",1,"BriefStudy",2,2700,"Include",87
"QGM2021_e1","QGM2021_e1_2",0,"BriefStudy",3,3067,"Include",88
"QGM2021_e1","QGM2021_e1_2",0,"BriefStudy",5,1917,"Include",89
"QGM2021_e1","QGM2021_e1_2",0,"BriefStudy",6,1400,"Include",90
"QGM2021_e1","QGM2021_e1_2",1,"BriefStudy",4,2450,"Include",91
"QGM2021_e1","QGM2021_e1_2",0,"BriefStudy",5,2350,"Include",92
"QGM2021_e1","QGM2021_e1_2",1,"BriefStudy",4,2967,"Include",93
"QGM2021_e1","QGM2021_e1_2",0,"BriefStudy",3,1850,"Include",94
"QGM2021_e1","QGM2021_e1_2",0,"BriefStudy",6,800,"Include",95
"QGM2021_e1","QGM2021_e1_2",1,"BriefStudy",6,650,"Include",96
"QGM2021_e1","QGM2021_e1_2",0,"BriefStudy",3,1100,"Include",97
"QGM2021_e1","QGM2021_e1_2",0,"BriefStudy",3,2417,"Include",98
"QGM2021_e1","QGM2021_e1_2",1,"BriefStudy",2,1050,"Include",99
"QGM2021_e1","QGM2021_e1_2",1,"BriefStudy",5,2250,"Include",100
"QGM2021_e1","QGM2021_e1_2",1,"BriefStudy",6,1217,"Include",101
"QGM2021_e1","QGM2021_e1_2",0,"BriefStudy",4,2000,"Include",102
"QGM2021_e1","QGM2021_e1_2",1,"BriefStudy",6,1250,"Include",103
"QGM2021_e1","QGM2021_e1_2",0,"BriefStudy",3,2067,"Include",104
"QGM2021_e1","QGM2021_e1_2",1,"BriefStudy",5,2250,"Include",105
"QGM2021_e1","QGM2021_e1_2",1,"BriefStudy",6,750,"Include",106
"QGM2021_e1","QGM2021_e1_2",1,"BriefStudy",5,1967,"Include",107
"QGM2021_e1","QGM2021_e1_2",0,"BriefStudy",1,800,"Include",108
"QGM2021_e1","QGM2021_e1_2",0,"BriefStudy",5,2800,"Include",109
"QGM2021_e1","QGM2021_e1_2",0,"BriefStudy",4,2250,"Include",110
"QGM2021_e1","QGM2021_e1_2",1,"BriefStudy",6,500,"Include",111
"QGM2021_e1","QGM2021_e1_2",0,"BriefStudy",4,2350,"Include",112
"QGM2021_e1","QGM2021_e1_2",0,"BriefStudy",5,2367,"Include",113
"QGM2021_e1","QGM2021_e1_2",1,"BriefStudy",1,1950,"Include",114
"QGM2021_e1","QGM2021_e1_2",0,"BriefStudy",2,1150,"Include",115
"QGM2021_e1","QGM2021_e1_2",0,"BriefStudy",4,1650,"Include",116
"QGM2021_e1","QGM2021_e1_2",1,"BriefStudy",3,1900,"Include",117
"QGM2021_e1","QGM2021_e1_2",1,"BriefStudy",2,1200,"Include",118
"QGM2021_e1","QGM2021_e1_2",0,"BriefStudy",5,1850,"Include",119
"QGM2021_e1","QGM2021_e1_2",1,"BriefStudy",5,1100,"Include",120
"QGM2021_e1","QGM2021_e1_2",1,"BriefStudy",6,1167,"Include",121
"QGM2021_e1","QGM2021_e1_2",0,"BriefStudy",3,2000,"Include",122
"QGM2021_e1","QGM2021_e1_2",1,"BriefStudy",4,2367,"Include",123
"QGM2021_e1","QGM2021_e1_2",1,"BriefStudy",6,1167,"Include",124
"QGM2021_e1","QGM2021_e1_2",0,"BriefStudy",3,2150,"Include",125
"QGM2021_e1","QGM2021_e1_2",0,"BriefStudy",2,2750,"Include",126
"QGM2021_e1","QGM2021_e1_2",1,"BriefStudy",5,1450,"Include",127
"QGM2021_e1","QGM2021_e1_2",1,"BriefStudy",6,500,"Include",128
"QGM2021_e1","QGM2021_e1_2",0,"BriefStudy",4,2200,"Include",129
"QGM2021_e1","QGM2021_e1_2",0,"BriefStudy",4,2667,"Include",130
"QGM2021_e1","QGM2021_e1_2",0,"BriefStudy",4,2550,"Include",131
"QGM2021_e1","QGM2021_e1_2",1,"BriefStudy",6,700,"Include",132
"QGM2021_e1","QGM2021_e1_2",1,"BriefStudy",5,1950,"Include",133
"QGM2021_e1","QGM2021_e1_2",1,"BriefStudy",6,500,"Include",134
"QGM2021_e1","QGM2021_e1_2",0,"BriefStudy",2,1500,"Include",135
"QGM2021_e1","QGM2021_e1_2",0,"BriefStudy",2,900,"Include",136
"QGM2021_e1","QGM2021_e1_2",0,"BriefStudy",3,1050,"Include",137
"QGM2021_e1","QGM2021_e1_2",1,"BriefStudy",4,1550,"Include",138
"QGM2021_e1","QGM2021_e1_2",0,"BriefStudy",3,2050,"Include",139
"QGM2021_e1","QGM2021_e1_2",1,"BriefStudy",6,1000,"Include",140
"QGM2021_e1","QGM2021_e1_2",0,"BriefStudy",3,1900,"Include",141
"QGM2021_e1","QGM2021_e1_2",1,"BriefStudy",5,1167,"Include",142
"QGM2021_e1","QGM2021_e1_2",0,"BriefStudy",2,1400,"Include",143
"QGM2021_e1","QGM2021_e1_2",1,"BriefStudy",6,600,"Include",144
"QGM2021_e1","QGM2021_e1_2",0,"BriefStudy",1,1200,"Include",145
"QGM2021_e1","QGM2021_e1_2",0,"BriefStudy",2,1150,"Include",146
"QGM2021_e1","QGM2021_e1_2",0,"BriefStudy",3,1967,"Include",147
"QGM2021_e1","QGM2021_e1_2",1,"BriefStudy",6,1950,"Include",148
"QGM2021_e1","QGM2021_e1_2",1,"BriefStudy",3,1250,"Include",149
"QGM2021_e1","QGM2021_e1_2",1,"BriefStudy",3,1350,"Include",150
"QGM2021_e1","QGM2021_e1_2",0,"BriefStudy",2,1600,"Include",151
"QGM2021_e1","QGM2021_e1_2",0,"BriefStudy",3,2600,"Include",152
"QGM2021_e1","QGM2021_e1_2",1,"BriefStudy",4,2017,"Include",153
"QGM2021_e1","QGM2021_e1_2",0,"BriefStudy",4,1000,"Include",154
"QGM2021_e1","QGM2021_e1_2",0,"BriefStudy",3,1617,"Include",155
"QGM2021_e1","QGM2021_e1_2",1,"BriefStudy",5,1250,"Include",156
"QGM2021_e1","QGM2021_e1_2",1,"BriefStudy",6,550,"Include",157
"QGM2021_e1","QGM2021_e1_2",1,"BriefStudy",6,400,"Include",158
"QGM2021_e1","QGM2021_e1_2",0,"BriefStudy",3,1250,"Include",159
"QGM2021_e1","QGM2021_e1_2",1,"BriefStudy",6,350,"Include",160
"QGM2021_e1","QGM2021_e1_2",1,"BriefStudy",4,1350,"Include",161
"QGM2021_e1","QGM2021_e1_2",1,"BriefStudy",6,450,"Include",162
"QGM2021_e1","QGM2021_e1_2",0,"BriefStudy",3,1050,"Include",163
"QGM2021_e1","QGM2021_e1_2",1,"BriefStudy",5,1200,"Include",164
"QGM2021_e1","QGM2021_e1_2",0,"BriefStudy",4,1350,"Include",165
"QGM2021_e1","QGM2021_e1_2",0,"BriefStudy",2,2300,"Include",166
"QGM2021_e1","QGM2021_e1_2",1,"BriefStudy",3,1167,"Include",167
"QGM2021_e1","QGM2021_e1_2",0,"BriefStudy",3,800,"Include",168
"QGM2021_e1","QGM2021_e1_2",0,"BriefStudy",3,850,"Include",169
"QGM2021_e1","QGM2021_e1_2",1,"BriefStudy",5,1600,"Include",170
"QGM2021_e1","QGM2021_e1_2",1,"BriefStudy",4,2200,"Include",171
"QGM2021_e1","QGM2021_e1_2",0,"BriefStudy",3,1067,"Include",172
"QGM2021_e1","QGM2021_e1_2",1,"BriefStudy",5,1750,"Include",173
"QGM2021_e1","QGM2021_e1_2",0,"BriefStudy",4,1600,"Include",174
"QGM2021_e1","QGM2021_e1_2",1,"BriefStudy",3,1300,"Include",175
"QGM2021_e1","QGM2021_e1_2",0,"BriefStudy",4,1400,"Include",176
"QGM2021_e1","QGM2021_e1_2",0,"BriefStudy",2,1867,"Include",177
"QGM2021_e1","QGM2021_e1_2",1,"BriefStudy",6,600,"Include",178
"QGM2021_e1","QGM2021_e1_2",1,"BriefStudy",6,800,"Include",179
"QGM2021_e1","QGM2021_e1_2",0,"BriefStudy",2,1300,"Include",180
"QGM2021_e1","QGM2021_e1_2",1,"BriefStudy",6,600,"Include",181
"QGM2021_e1","QGM2021_e1_2",0,"BriefStudy",5,2000,"Include",182
"QGM2021_e1","QGM2021_e1_2",0,"BriefStudy",2,1250,"Include",183
"QGM2021_e1","QGM2021_e1_2",1,"BriefStudy",6,350,"Include",184
"QGM2021_e1","QGM2021_e1_2",1,"BriefStudy",6,350,"Include",185
"QGM2021_e1","QGM2021_e1_2",0,"BriefStudy",4,2350,"Include",186
"QGM2021_e1","QGM2021_e1_2",1,"BriefStudy",4,1300,"Include",187
"QGM2021_e1","QGM2021_e1_2",0,"BriefStudy",3,2100,"Include",188
"QGM2021_e1","QGM2021_e1_2",0,"BriefStudy",3,2767,"Include",189
"QGM2021_e1","QGM2021_e1_2",1,"BriefStudy",5,1050,"Include",190
"QGM2021_e1","QGM2021_e1_2",0,"BriefStudy",4,2800,"Include",191
"QGM2021_e1","QGM2021_e1_2",1,"BriefStudy",5,1200,"Include",192
"QGM2021_e1","QGM2021_e1_2",0,"BriefStudy",3,1200,"Include",193
"QGM2021_e1","QGM2021_e1_2",1,"BriefStudy",6,500,"Include",194
"QGM2021_e1","QGM2021_e1_2",1,"BriefStudy",6,600,"Include",195
"QGM2021_e1","QGM2021_e1_2",0,"BriefStudy",3,1650,"Include",196
"QGM2021_e1","QGM2021_e1_2",0,"BriefStudy",4,1350,"Include",197
"QGM2021_e1","QGM2021_e1_2",0,"BriefStudy",2,2150,"Include",198
"QGM2021_e1","QGM2021_e1_2",1,"BriefStudy",6,400,"Include",199
"QGM2021_e1","QGM2021_e1_2",1,"BriefStudy",5,1000,"Include",200
"QGM2021_e1","QGM2021_e1_2",1,"BriefStudy",6,600,"Include",201
"QGM2021_e1","QGM2021_e1_2",0,"BriefStudy",3,1567,"Include",202
"QGM2021_e1","QGM2021_e1_2",1,"BriefStudy",2,900,"Include",203
"QGM2021_e1","QGM2021_e1_2",1,"BriefStudy",3,700,"Include",204
"QGM2021_e1","QGM2021_e1_2",0,"BriefStudy",3,700,"Include",205
"QGM2021_e1","QGM2021_e1_2",1,"BriefStudy",5,900,"Include",206
"QGM2021_e1","QGM2021_e1_2",1,"BriefStudy",6,550,"Include",207
"QGM2021_e1","QGM2021_e1_2",0,"BriefStudy",4,1850,"Include",208
"QGM2021_e1","QGM2021_e1_2",0,"BriefStudy",3,1000,"Include",209
"QGM2021_e1","QGM2021_e1_2",0,"BriefStudy",2,1350,"Include",210
"QGM2021_e1","QGM2021_e1_2",1,"BriefStudy",5,850,"Include",211
"QGM2021_e1","QGM2021_e1_2",0,"BriefStudy",3,1350,"Include",212
"QGM2021_e1","QGM2021_e1_2",1,"BriefStudy",6,400,"Include",213
"QGM2021_e1","QGM2021_e1_2",0,"BriefStudy",2,700,"Include",214
"QGM2021_e1","QGM2021_e1_2",0,"BriefStudy",3,700,"Include",215
"QGM2021_e1","QGM2021_e1_2",1,"BriefStudy",6,450,"Include",216
"QGM2021_e1","QGM2021_e1_2",1,"BriefStudy",6,550,"Include",217
"QGM2021_e1","QGM2021_e1_2",0,"BriefStudy",2,1400,"Include",218
"QGM2021_e1","QGM2021_e1_2",1,"BriefStudy",5,900,"Include",219
"QGM2021_e1","QGM2021_e1_2",0,"BriefStudy",4,3050,"Include",220
"QGM2021_e1","QGM2021_e1_2",0,"BriefStudy",2,1350,"Include",221
"QGM2021_e1","QGM2021_e1_2",0,"BriefStudy",2,2200,"Include",222
"QGM2021_e1","QGM2021_e1_2",1,"BriefStudy",5,1250,"Include",223
"QGM2021_e1","QGM2021_e1_2",0,"BriefStudy",4,750,"Include",224
"QGM2021_e1","QGM2021_e1_2",1,"BriefStudy",6,500,"Include",225
"QGM2021_e1","QGM2021_e1_2",1,"BriefStudy",6,550,"Include",226
"QGM2021_e1","QGM2021_e1_2",0,"BriefStudy",4,1400,"Include",227
"QGM2021_e1","QGM2021_e1_2",0,"BriefStudy",3,1100,"Include",228
"QGM2021_e1","QGM2021_e1_2",1,"BriefStudy",6,667,"Include",229
"QGM2021_e1","QGM2021_e1_2",1,"BriefStudy",5,1000,"Include",230
"QGM2021_e1","QGM2021_e1_2",0,"BriefStudy",3,1167,"Include",231
"QGM2021_e1","QGM2021_e1_2",0,"BriefStudy",2,1050,"Include",232
"QGM2021_e1","QGM2021_e1_2",0,"BriefStudy",3,700,"Include",233
"QGM2021_e1","QGM2021_e1_2",1,"BriefStudy",2,600,"Include",234
"QGM2021_e1","QGM2021_e1_2",1,"BriefStudy",6,650,"Include",235
"QGM2021_e1","QGM2021_e1_2",0,"BriefStudy",3,1100,"Include",236
"QGM2021_e1","QGM2021_e1_2",1,"BriefStudy",3,800,"Include",237
"QGM2021_e1","QGM2021_e1_2",0,"BriefStudy",3,550,"Include",238
"QGM2021_e1","QGM2021_e1_2",1,"BriefStudy",5,650,"Include",239
"QGM2021_e1","QGM2021_e1_2",1,"BriefStudy",6,400,"Include",240
"QGM2021_e1","QGM2021_e1_2",0,"BriefStudy",6,1100,"Include",241
"QGM2021_e1","QGM2021_e1_2",1,"BriefStudy",6,1300,"Include",242
"QGM2021_e1","QGM2021_e1_2",1,"BriefStudy",6,600,"Include",243
"QGM2021_e1","QGM2021_e1_2",0,"BriefStudy",5,1350,"Include",244
"QGM2021_e1","QGM2021_e1_2",0,"BriefStudy",3,1350,"Include",245
"QGM2021_e1","QGM2021_e1_2",0,"BriefStudy",4,1617,"Include",246
"QGM2021_e1","QGM2021_e1_2",1,"BriefStudy",6,750,"Include",247
"QGM2021_e1","QGM2021_e1_2",0,"BriefStudy",1,950,"Include",248
"QGM2021_e1","QGM2021_e1_2",1,"BriefStudy",4,1850,"Include",249
"QGM2021_e1","QGM2021_e1_2",1,"BriefStudy",3,1400,"Include",250
"QGM2021_e1","QGM2021_e1_2",1,"BriefStudy",6,800,"Include",251
"QGM2021_e1","QGM2021_e1_2",0,"BriefStudy",2,1450,"Include",252
"QGM2021_e1","QGM2021_e1_2",1,"BriefStudy",6,900,"Include",253
"QGM2021_e1","QGM2021_e1_2",1,"BriefStudy",6,700,"Include",254
"QGM2021_e1","QGM2021_e1_2",0,"BriefStudy",5,1417,"Include",255
"QGM2021_e1","QGM2021_e1_2",1,"BriefStudy",4,2667,"Include",256
"QGM2021_e1","QGM2021_e1_2",0,"BriefStudy",2,1467,"Include",257
"QGM2021_e1","QGM2021_e1_2",1,"BriefStudy",6,950,"Include",258
"QGM2021_e1","QGM2021_e1_2",0,"BriefStudy",2,1550,"Include",259
"QGM2021_e1","QGM2021_e1_2",0,"BriefStudy",3,900,"Include",260
"QGM2021_e1","QGM2021_e1_2",0,"BriefStudy",3,1517,"Include",261
"QGM2021_e1","QGM2021_e1_2",1,"BriefStudy",2,1850,"Include",262
"QGM2021_e1","QGM2021_e1_2",0,"BriefStudy",4,1750,"Include",263
"QGM2021_e1","QGM2021_e1_2",1,"BriefStudy",3,2567,"Include",264
"QGM2021_e1","QGM2021_e1_2",0,"BriefStudy",2,2250,"Include",265
"QGM2021_e1","QGM2021_e1_2",1,"BriefStudy",6,450,"Include",266
"QGM2021_e1","QGM2021_e1_2",1,"BriefStudy",5,1450,"Include",267
"QGM2021_e1","QGM2021_e1_2",0,"BriefStudy",2,1200,"Include",268
"QGM2021_e1","QGM2021_e1_2",1,"BriefStudy",4,2300,"Include",269
"QGM2021_e1","QGM2021_e1_2",0,"BriefStudy",4,1617,"Include",270
"QGM2021_e1","QGM2021_e1_2",1,"BriefStudy",6,450,"Include",271
"QGM2021_e1","QGM2021_e1_2",1,"BriefStudy",2,850,"Include",272
"QGM2021_e1","QGM2021_e1_2",0,"BriefStudy",1,800,"Include",273
"QGM2021_e1","QGM2021_e1_2",0,"BriefStudy",3,1017,"Include",274
"QGM2021_e1","QGM2021_e1_2",1,"BriefStudy",4,1400,"Include",275
"QGM2021_e1","QGM2021_e1_2",1,"BriefStudy",2,2700,"Include",276
"QGM2021_e1","QGM2021_e1_2",0,"BriefStudy",3,750,"Include",277
"QGM2021_e1","QGM2021_e1_2",1,"BriefStudy",4,1800,"Include",278
"QGM2021_e1","QGM2021_e1_2",0,"BriefStudy",3,1000,"Include",279
"QGM2021_e1","QGM2021_e1_2",0,"BriefStudy",6,550,"Include",280
"QGM2021_e1","QGM2021_e1_2",0,"BriefStudy",2,1550,"Include",281
"QGM2021_e1","QGM2021_e1_2",1,"BriefStudy",6,500,"Include",282
"QGM2021_e1","QGM2021_e1_2",1,"BriefStudy",6,600,"Include",283
"QGM2021_e1","QGM2021_e1_2",0,"BriefStudy",2,1500,"Include",284
"QGM2021_e1","QGM2021_e1_2",1,"BriefStudy",6,750,"Include",285
"QGM2021_e1","QGM2021_e1_2",0,"BriefStudy",3,1300,"Include",286
"QGM2021_e1","QGM2021_e1_2",1,"BriefStudy",4,2117,"Include",287
"QGM2021_e1","QGM2021_e1_2",0,"BriefStudy",1,1500,"Include",288
"QGM2021_e1","QGM2021_e1_2",1,"BriefStudy",4,1467,"Include",289
"QGM2021_e1","QGM2021_e1_2",0,"BriefStudy",4,2666,"Include",290
"QGM2021_e1","QGM2021_e1_2",0,"BriefStudy",3,4067,"Include",291
"QGM2021_e1","QGM2021_e1_2",1,"BriefStudy",5,1700,"Include",292
"QGM2021_e1","QGM2021_e1_2",0,"BriefStudy",3,2000,"Include",293
"QGM2021_e1","QGM2021_e1_2",1,"BriefStudy",2,950,"Include",294
"QGM2021_e1","QGM2021_e1_2",0,"BriefStudy",2,700,"Include",295
"QGM2021_e1","QGM2021_e1_2",1,"BriefStudy",4,1350,"Include",296
"QGM2021_e1","QGM2021_e1_2",1,"BriefStudy",5,2800,"Include",297
"QGM2021_e1","QGM2021_e1_2",0,"BriefStudy",3,2350,"Include",298
"QGM2021_e1","QGM2021_e1_2",1,"BriefStudy",6,700,"Include",299
"QGM2021_e1","QGM2021_e1_2",0,"BriefStudy",3,2150,"Include",300
"QGM2021_e1","QGM2021_e1_2",0,"BriefStudy",4,1500,"Include",301
"QGM2021_e1","QGM2021_e1_2",1,"BriefStudy",2,1000,"Include",302
"QGM2021_e1","QGM2021_e1_2",1,"BriefStudy",6,600,"Include",303
"QGM2021_e1","QGM2021_e1_2",0,"BriefStudy",3,1250,"Include",304
"QGM2021_e1","QGM2021_e1_2",0,"BriefStudy",1,1300,"Include",305
"QGM2021_e1","QGM2021_e1_2",1,"BriefStudy",6,467,"Include",306
"QGM2021_e1","QGM2021_e1_2",0,"BriefStudy",6,500,"Include",307
"QGM2021_e1","QGM2021_e1_2",1,"BriefStudy",6,667,"Include",308
"QGM2021_e1","QGM2021_e1_2",0,"BriefStudy",2,1400,"Include",309
"QGM2021_e1","QGM2021_e1_2",1,"BriefStudy",3,1500,"Include",310
"QGM2021_e1","QGM2021_e1_2",0,"BriefStudy",2,2000,"Include",311
"QGM2021_e1","QGM2021_e1_2",0,"BriefStudy",3,1700,"Include",312
"QGM2021_e1","QGM2021_e1_2",0,"BriefStudy",1,1017,"Include",313
"QGM2021_e1","QGM2021_e1_2",1,"BriefStudy",6,850,"Include",314
"QGM2021_e1","QGM2021_e1_2",0,"BriefStudy",3,2350,"Include",315
"QGM2021_e1","QGM2021_e1_2",1,"BriefStudy",6,600,"Include",316
"QGM2021_e1","QGM2021_e1_2",1,"BriefStudy",6,1600,"Include",317
"QGM2021_e1","QGM2021_e1_2",1,"BriefStudy",4,2067,"Include",318
"QGM2021_e1","QGM2021_e1_2",0,"BriefStudy",3,1150,"Include",319
"QGM2021_e1","QGM2021_e1_2",1,"BriefStudy",6,500,"Include",320
"QGM2021_e1","QGM2021_e1_2",0,"BriefStudy",3,950,"Include",321
"QGM2021_e1","QGM2021_e1_2",0,"BriefStudy",4,1000,"Include",322
"QGM2021_e1","QGM2021_e1_2",1,"BriefStudy",4,2717,"Include",323
"QGM2021_e1","QGM2021_e1_2",0,"BriefStudy",3,2017,"Include",324
"QGM2021_e1","QGM2021_e1_2",1,"BriefStudy",6,450,"Include",325
"QGM2021_e1","QGM2021_e1_2",0,"BriefStudy",2,967,"Include",326
"QGM2021_e1","QGM2021_e1_2",0,"BriefStudy",4,3100,"Include",327
"QGM2021_e1","QGM2021_e1_2",1,"BriefStudy",5,1200,"Include",328
"QGM2021_e1","QGM2021_e1_2",1,"BriefStudy",5,1267,"Include",329
"QGM2021_e1","QGM2021_e1_2",1,"BriefStudy",3,2650,"Include",330
"QGM2021_e1","QGM2021_e1_2",0,"BriefStudy",6,500,"Include",331
"QGM2021_e1","QGM2021_e1_2",1,"BriefStudy",6,400,"Include",332
"QGM2021_e1","QGM2021_e1_2",1,"BriefStudy",3,1250,"Include",333
"QGM2021_e1","QGM2021_e1_2",0,"BriefStudy",2,1300,"Include",334
"QGM2021_e1","QGM2021_e1_2",1,"BriefStudy",3,1900,"Include",335
"QGM2021_e1","QGM2021_e1_2",1,"BriefStudy",6,867,"Include",336
"QGM2021_e1","QGM2021_e1_2",0,"BriefStudy",3,950,"Include",337
"QGM2021_e1","QGM2021_e1_2",0,"BriefStudy",1,867,"Include",338
"QGM2021_e1","QGM2021_e1_2",0,"BriefStudy",3,2100,"Include",339
"QGM2021_e1","QGM2021_e1_2",1,"BriefStudy",6,600,"Include",340
"QGM2021_e1","QGM2021_e1_2",1,"BriefStudy",6,650,"Include",341
"QGM2021_e1","QGM2021_e1_2",0,"BriefStudy",3,2150,"Include",342
"QGM2021_e1","QGM2021_e1_2",0,"BriefStudy",1,967,"Include",343
"QGM2021_e1","QGM2021_e1_2",1,"BriefStudy",5,1750,"Include",344
"QGM2021_e1","QGM2021_e1_2",1,"BriefStudy",4,1600,"Include",345
"QGM2021_e1","QGM2021_e1_2",1,"BriefStudy",6,550,"Include",346
"QGM2021_e1","QGM2021_e1_2",0,"BriefStudy",3,1650,"Include",347
"QGM2021_e1","QGM2021_e1_2",0,"BriefStudy",1,1100,"Include",348
"QGM2021_e1","QGM2021_e1_2",1,"BriefStudy",6,450,"Include",349
"QGM2021_e1","QGM2021_e1_2",0,"BriefStudy",2,1050,"Include",350
"QGM2021_e1","QGM2021_e1_2",0,"BriefStudy",2,800,"Include",351
"QGM2021_e1","QGM2021_e1_2",1,"BriefStudy",5,1067,"Include",352
"QGM2021_e1","QGM2021_e1_2",0,"BriefStudy",2,750,"Include",353
"QGM2021_e1","QGM2021_e1_2",1,"BriefStudy",6,300,"Include",354
"QGM2021_e1","QGM2021_e1_2",0,"BriefStudy",3,800,"Include",355
"QGM2021_e1","QGM2021_e1_2",0,"BriefStudy",4,967,"Include",356
"QGM2021_e1","QGM2021_e1_2",1,"BriefStudy",4,2550,"Include",357
"QGM2021_e1","QGM2021_e1_2",1,"BriefStudy",5,850,"Include",358
"QGM2021_e1","QGM2021_e1_2",1,"BriefStudy",5,850,"Include",359
"QGM2021_e1","QGM2021_e1_2",0,"BriefStudy",4,1900,"Include",360
"QGM2021_e1","QGM2021_e1_3",1,"LongStudy",6,42334,"Include",1
"QGM2021_e1","QGM2021_e1_3",0,"LongStudy",5,7525,"Include",2
"QGM2021_e1","QGM2021_e1_3",0,"LongStudy",4,6908,"Include",3
"QGM2021_e1","QGM2021_e1_3",1,"LongStudy",6,1298,"Include",4
"QGM2021_e1","QGM2021_e1_3",0,"LongStudy",6,666,"Include",5
"QGM2021_e1","QGM2021_e1_3",0,"LongStudy",3,3995,"Include",6
"QGM2021_e1","QGM2021_e1_3",0,"LongStudy",4,1731,"Include",7
"QGM2021_e1","QGM2021_e1_3",1,"LongStudy",5,966,"Include",8
"QGM2021_e1","QGM2021_e1_3",1,"LongStudy",5,748,"Include",9
"QGM2021_e1","QGM2021_e1_3",1,"LongStudy",2,1731,"Include",10
"QGM2021_e1","QGM2021_e1_3",0,"LongStudy",3,1381,"Include",11
"QGM2021_e1","QGM2021_e1_3",1,"LongStudy",5,3213,"Include",12
"QGM2021_e1","QGM2021_e1_3",1,"LongStudy",5,999,"Include",13
"QGM2021_e1","QGM2021_e1_3",1,"LongStudy",5,932,"Include",14
"QGM2021_e1","QGM2021_e1_3",0,"LongStudy",6,666,"Include",15
"QGM2021_e1","QGM2021_e1_3",1,"LongStudy",5,666,"Include",16
"QGM2021_e1","QGM2021_e1_3",0,"LongStudy",6,633,"Include",17
"QGM2021_e1","QGM2021_e1_3",1,"LongStudy",2,3179,"Include",18
"QGM2021_e1","QGM2021_e1_3",0,"LongStudy",6,766,"Include",19
"QGM2021_e1","QGM2021_e1_3",0,"LongStudy",3,1265,"Include",20
"QGM2021_e1","QGM2021_e1_3",1,"LongStudy",5,832,"Include",21
"QGM2021_e1","QGM2021_e1_3",0,"LongStudy",4,1298,"Include",22
"QGM2021_e1","QGM2021_e1_3",1,"LongStudy",6,1265,"Include",23
"QGM2021_e1","QGM2021_e1_3",0,"LongStudy",5,2480,"Include",24
"QGM2021_e1","QGM2021_e1_3",0,"LongStudy",5,1298,"Include",25
"QGM2021_e1","QGM2021_e1_3",1,"LongStudy",5,566,"Include",26
"QGM2021_e1","QGM2021_e1_3",0,"LongStudy",2,1298,"Include",27
"QGM2021_e1","QGM2021_e1_3",1,"LongStudy",4,2797,"Include",28
"QGM2021_e1","QGM2021_e1_3",1,"LongStudy",1,899,"Include",29
"QGM2021_e1","QGM2021_e1_3",0,"LongStudy",4,1614,"Include",30
"QGM2021_e1","QGM2021_e1_3",0,"LongStudy",5,899,"Include",31
"QGM2021_e1","QGM2021_e1_3",0,"LongStudy",4,832,"Include",32
"QGM2021_e1","QGM2021_e1_3",1,"LongStudy",6,1598,"Include",33
"QGM2021_e1","QGM2021_e1_3",0,"LongStudy",6,633,"Include",34
"QGM2021_e1","QGM2021_e1_3",1,"LongStudy",6,1532,"Include",35
"QGM2021_e1","QGM2021_e1_3",0,"LongStudy",5,899,"Include",36
"QGM2021_e1","QGM2021_e1_3",1,"LongStudy",6,799,"Include",37
"QGM2021_e1","QGM2021_e1_3",1,"LongStudy",2,1065,"Include",38
"QGM2021_e1","QGM2021_e1_3",0,"LongStudy",3,816,"Include",39
"QGM2021_e1","QGM2021_e1_3",1,"LongStudy",3,999,"Include",40
"QGM2021_e1","QGM2021_e1_3",0,"LongStudy",3,866,"Include",41
"QGM2021_e1","QGM2021_e1_3",0,"LongStudy",6,699,"Include",42
"QGM2021_e1","QGM2021_e1_3",1,"LongStudy",6,899,"Include",43
"QGM2021_e1","QGM2021_e1_3",0,"LongStudy",1,2164,"Include",44
"QGM2021_e1","QGM2021_e1_3",1,"LongStudy",5,965,"Include",45
"QGM2021_e1","QGM2021_e1_3",1,"LongStudy",3,899,"Include",46
"QGM2021_e1","QGM2021_e1_3",1,"LongStudy",2,1431,"Include",47
"QGM2021_e1","QGM2021_e1_3",0,"LongStudy",3,2164,"Include",48
"QGM2021_e1","QGM2021_e1_3",0,"LongStudy",2,766,"Include",49
"QGM2021_e1","QGM2021_e1_3",1,"LongStudy",3,649,"Include",50
"QGM2021_e1","QGM2021_e1_3",1,"LongStudy",5,8157,"Include",51
"QGM2021_e1","QGM2021_e1_3",0,"LongStudy",2,1547,"Include",52
"QGM2021_e1","QGM2021_e1_3",0,"LongStudy",3,2564,"Include",53
"QGM2021_e1","QGM2021_e1_3",1,"LongStudy",5,966,"Include",54
"QGM2021_e1","QGM2021_e1_3",0,"LongStudy",6,866,"Include",55
"QGM2021_e1","QGM2021_e1_3",0,"LongStudy",4,1815,"Include",56
"QGM2021_e1","QGM2021_e1_3",1,"LongStudy",6,832,"Include",57
"QGM2021_e1","QGM2021_e1_3",1,"LongStudy",5,1132,"Include",58
"QGM2021_e1","QGM2021_e1_3",0,"LongStudy",5,699,"Include",59
"QGM2021_e1","QGM2021_e1_3",1,"LongStudy",4,3363,"Include",60
"QGM2021_e1","QGM2021_e1_3",0,"LongStudy",4,1414,"Include",61
"QGM2021_e1","QGM2021_e1_3",0,"LongStudy",5,799,"Include",62
"QGM2021_e1","QGM2021_e1_3",1,"LongStudy",5,1681,"Include",63
"QGM2021_e1","QGM2021_e1_3",0,"LongStudy",2,3329,"Include",64
"QGM2021_e1","QGM2021_e1_3",0,"LongStudy",3,1747,"Include",65
"QGM2021_e1","QGM2021_e1_3",1,"LongStudy",4,2314,"Include",66
"QGM2021_e1","QGM2021_e1_3",0,"LongStudy",5,732,"Include",67
"QGM2021_e1","QGM2021_e1_3",1,"LongStudy",5,2596,"Include",68
"QGM2021_e1","QGM2021_e1_3",1,"LongStudy",1,1281,"Include",69
"QGM2021_e1","QGM2021_e1_3",1,"LongStudy",6,900,"Include",70
"QGM2021_e1","QGM2021_e1_3",0,"LongStudy",3,1032,"Include",71
"QGM2021_e1","QGM2021_e1_3",0,"LongStudy",5,1765,"Include",72
"QGM2021_e1","QGM2021_e1_3",1,"LongStudy",5,1132,"Include",73
"QGM2021_e1","QGM2021_e1_3",0,"LongStudy",2,915,"Include",74
"QGM2021_e1","QGM2021_e1_3",1,"LongStudy",2,5061,"Include",75
"QGM2021_e1","QGM2021_e1_3",0,"LongStudy",1,1281,"Include",76
"QGM2021_e1","QGM2021_e1_3",1,"LongStudy",6,2197,"Include",77
"QGM2021_e1","QGM2021_e1_3",0,"LongStudy",6,799,"Include",78
"QGM2021_e1","QGM2021_e1_3",1,"LongStudy",1,782,"Include",79
"QGM2021_e1","QGM2021_e1_3",1,"LongStudy",2,966,"Include",80
"QGM2021_e1","QGM2021_e1_3",0,"LongStudy",5,1747,"Include",81
"QGM2021_e1","QGM2021_e1_3",0,"LongStudy",1,2763,"Include",82
"QGM2021_e1","QGM2021_e1_3",1,"LongStudy",5,866,"Include",83
"QGM2021_e1","QGM2021_e1_3",1,"LongStudy",6,832,"Include",84
"QGM2021_e1","QGM2021_e1_3",0,"LongStudy",6,1432,"Include",85
"QGM2021_e1","QGM2021_e1_3",1,"LongStudy",2,1798,"Include",86
"QGM2021_e1","QGM2021_e1_3",0,"LongStudy",1,1081,"Include",87
"QGM2021_e1","QGM2021_e1_3",1,"LongStudy",3,1532,"Include",88
"QGM2021_e1","QGM2021_e1_3",0,"LongStudy",4,699,"Include",89
"QGM2021_e1","QGM2021_e1_3",1,"LongStudy",4,732,"Include",90
"QGM2021_e1","QGM2021_e1_3",0,"LongStudy",4,549,"Include",91
"QGM2021_e1","QGM2021_e1_3",0,"LongStudy",4,566,"Include",92
"QGM2021_e1","QGM2021_e1_3",1,"LongStudy",2,1398,"Include",93
"QGM2021_e1","QGM2021_e1_3",0,"LongStudy",5,699,"Include",94
"QGM2021_e1","QGM2021_e1_3",0,"LongStudy",5,799,"Include",95
"QGM2021_e1","QGM2021_e1_3",1,"LongStudy",6,599,"Include",96
"QGM2021_e1","QGM2021_e1_3",0,"LongStudy",1,899,"Include",97
"QGM2021_e1","QGM2021_e1_3",1,"LongStudy",3,1365,"Include",98
"QGM2021_e1","QGM2021_e1_3",1,"LongStudy",5,1265,"Include",99
"QGM2021_e1","QGM2021_e1_3",1,"LongStudy",5,1065,"Include",100
"QGM2021_e1","QGM2021_e1_3",0,"LongStudy",5,515,"Include",101
"QGM2021_e1","QGM2021_e1_3",0,"LongStudy",6,666,"Include",102
"QGM2021_e1","QGM2021_e1_3",1,"LongStudy",5,1898,"Include",103
"QGM2021_e1","QGM2021_e1_3",0,"LongStudy",6,533,"Include",104
"QGM2021_e1","QGM2021_e1_3",1,"LongStudy",6,966,"Include",105
"QGM2021_e1","QGM2021_e1_3",1,"LongStudy",6,599,"Include",106
"QGM2021_e1","QGM2021_e1_3",0,"LongStudy",1,766,"Include",107
"QGM2021_e1","QGM2021_e1_3",1,"LongStudy",1,699,"Include",108
"QGM2021_e1","QGM2021_e1_3",1,"LongStudy",2,1000,"Include",109
"QGM2021_e1","QGM2021_e1_3",0,"LongStudy",3,981,"Include",110
"QGM2021_e1","QGM2021_e1_3",0,"LongStudy",4,899,"Include",111
"QGM2021_e1","QGM2021_e1_3",1,"LongStudy",5,782,"Include",112
"QGM2021_e1","QGM2021_e1_3",1,"LongStudy",6,999,"Include",113
"QGM2021_e1","QGM2021_e1_3",1,"LongStudy",5,915,"Include",114
"QGM2021_e1","QGM2021_e1_3",0,"LongStudy",5,2131,"Include",115
"QGM2021_e1","QGM2021_e1_3",1,"LongStudy",2,3063,"Include",116
"QGM2021_e1","QGM2021_e1_3",0,"LongStudy",5,499,"Include",117
"QGM2021_e1","QGM2021_e1_3",0,"LongStudy",6,1432,"Include",118
"QGM2021_e1","QGM2021_e1_3",1,"LongStudy",1,1299,"Include",119
"QGM2021_e1","QGM2021_e1_3",0,"LongStudy",6,748,"Include",120
"QGM2021_e1","QGM2021_e1_3",0,"LongStudy",4,4545,"Include",121
"QGM2021_e1","QGM2021_e1_3",1,"LongStudy",5,1132,"Include",122
"QGM2021_e1","QGM2021_e1_3",1,"LongStudy",4,2297,"Include",123
"QGM2021_e1","QGM2021_e1_3",0,"LongStudy",6,2197,"Include",124
"QGM2021_e1","QGM2021_e1_3",0,"LongStudy",6,1032,"Include",125
"QGM2021_e1","QGM2021_e1_3",0,"LongStudy",2,1830,"Include",126
"QGM2021_e1","QGM2021_e1_3",1,"LongStudy",6,2431,"Include",127
"QGM2021_e1","QGM2021_e1_3",0,"LongStudy",4,1298,"Include",128
"QGM2021_e1","QGM2021_e1_3",1,"LongStudy",4,1465,"Include",129
"QGM2021_e1","QGM2021_e1_3",1,"LongStudy",5,1564,"Include",130
"QGM2021_e1","QGM2021_e1_3",1,"LongStudy",4,1365,"Include",131
"QGM2021_e1","QGM2021_e1_3",0,"LongStudy",5,899,"Include",132
"QGM2021_e1","QGM2021_e1_3",1,"LongStudy",6,1565,"Include",133
"QGM2021_e1","QGM2021_e1_3",1,"LongStudy",5,1032,"Include",134
"QGM2021_e1","QGM2021_e1_3",0,"LongStudy",2,1864,"Include",135
"QGM2021_e1","QGM2021_e1_3",1,"LongStudy",1,732,"Include",136
"QGM2021_e1","QGM2021_e1_3",0,"LongStudy",4,732,"Include",137
"QGM2021_e1","QGM2021_e1_3",1,"LongStudy",3,1265,"Include",138
"QGM2021_e1","QGM2021_e1_3",0,"LongStudy",2,1165,"Include",139
"QGM2021_e1","QGM2021_e1_3",0,"LongStudy",3,1998,"Include",140
"QGM2021_e1","QGM2021_e1_3",0,"LongStudy",3,1033,"Include",141
"QGM2021_e1","QGM2021_e1_3",1,"LongStudy",4,1531,"Include",142
"QGM2021_e1","QGM2021_e1_3",0,"LongStudy",4,1631,"Include",143
"QGM2021_e1","QGM2021_e1_3",1,"LongStudy",6,966,"Include",144
"QGM2021_e1","QGM2021_e1_3",0,"LongStudy",4,1198,"Include",145
"QGM2021_e1","QGM2021_e1_3",1,"LongStudy",5,1266,"Include",146
"QGM2021_e1","QGM2021_e1_3",1,"LongStudy",2,1364,"Include",147
"QGM2021_e1","QGM2021_e1_3",0,"LongStudy",5,1032,"Include",148
"QGM2021_e1","QGM2021_e1_3",1,"LongStudy",2,766,"Include",149
"QGM2021_e1","QGM2021_e1_3",0,"LongStudy",3,1065,"Include",150
"QGM2021_e1","QGM2021_e1_3",1,"LongStudy",3,866,"Include",151
"QGM2021_e1","QGM2021_e1_3",1,"LongStudy",4,2031,"Include",152
"QGM2021_e1","QGM2021_e1_3",0,"LongStudy",5,1132,"Include",153
"QGM2021_e1","QGM2021_e1_3",0,"LongStudy",4,2130,"Include",154
"QGM2021_e1","QGM2021_e1_3",1,"LongStudy",1,1031,"Include",155
"QGM2021_e1","QGM2021_e1_3",1,"LongStudy",5,799,"Include",156
"QGM2021_e1","QGM2021_e1_3",0,"LongStudy",2,1864,"Include",157
"QGM2021_e1","QGM2021_e1_3",1,"LongStudy",3,800,"Include",158
"QGM2021_e1","QGM2021_e1_3",0,"LongStudy",3,1031,"Include",159
"QGM2021_e1","QGM2021_e1_3",0,"LongStudy",5,1998,"Include",160
"QGM2021_e1","QGM2021_e1_3",0,"LongStudy",5,999,"Include",161
"QGM2021_e1","QGM2021_e1_3",1,"LongStudy",5,1531,"Include",162
"QGM2021_e1","QGM2021_e1_3",1,"LongStudy",5,799,"Include",163
"QGM2021_e1","QGM2021_e1_3",0,"LongStudy",1,1298,"Include",164
"QGM2021_e1","QGM2021_e1_3",1,"LongStudy",5,1498,"Include",165
"QGM2021_e1","QGM2021_e1_3",0,"LongStudy",6,1498,"Include",166
"QGM2021_e1","QGM2021_e1_3",1,"LongStudy",6,898,"Include",167
"QGM2021_e1","QGM2021_e1_3",0,"LongStudy",3,3163,"Include",168
"QGM2021_e1","QGM2021_e1_3",1,"LongStudy",4,2431,"Include",169
"QGM2021_e1","QGM2021_e1_3",0,"LongStudy",6,1698,"Include",170
"QGM2021_e1","QGM2021_e1_3",0,"LongStudy",6,633,"Include",171
"QGM2021_e1","QGM2021_e1_3",1,"LongStudy",2,1199,"Include",172
"QGM2021_e1","QGM2021_e1_3",0,"LongStudy",4,932,"Include",173
"QGM2021_e1","QGM2021_e1_3",1,"LongStudy",2,1199,"Include",174
"QGM2021_e1","QGM2021_e1_3",0,"LongStudy",1,1465,"Include",175
"QGM2021_e1","QGM2021_e1_3",1,"LongStudy",4,2097,"Include",176
"QGM2021_e1","QGM2021_e1_3",1,"LongStudy",6,666,"Include",177
"QGM2021_e1","QGM2021_e1_3",0,"LongStudy",1,999,"Include",178
"QGM2021_e1","QGM2021_e1_3",1,"LongStudy",5,866,"Include",179
"QGM2021_e1","QGM2021_e1_3",0,"LongStudy",3,1199,"Include",180
"QGM2021_e1","QGM2021_e1_3",0,"LongStudy",4,999,"Include",181
"QGM2021_e1","QGM2021_e1_3",1,"LongStudy",2,799,"Include",182
"QGM2021_e1","QGM2021_e1_3",1,"LongStudy",6,799,"Include",183
"QGM2021_e1","QGM2021_e1_3",0,"LongStudy",4,899,"Include",184
"QGM2021_e1","QGM2021_e1_3",0,"LongStudy",5,1465,"Include",185
"QGM2021_e1","QGM2021_e1_3",1,"LongStudy",2,1232,"Include",186
"QGM2021_e1","QGM2021_e1_3",0,"LongStudy",2,1897,"Include",187
"QGM2021_e1","QGM2021_e1_3",1,"LongStudy",3,1731,"Include",188
"QGM2021_e1","QGM2021_e1_3",0,"LongStudy",4,1132,"Include",189
"QGM2021_e1","QGM2021_e1_3",1,"LongStudy",2,698,"Include",190
"QGM2021_e1","QGM2021_e1_3",0,"LongStudy",3,1265,"Include",191
"QGM2021_e1","QGM2021_e1_3",0,"LongStudy",2,3795,"Include",192
"QGM2021_e1","QGM2021_e1_3",0,"LongStudy",4,2197,"Include",193
"QGM2021_e1","QGM2021_e1_3",1,"LongStudy",3,1715,"Include",194
"QGM2021_e1","QGM2021_e1_3",0,"LongStudy",5,2098,"Include",195
"QGM2021_e1","QGM2021_e1_3",1,"LongStudy",2,733,"Include",196
"QGM2021_e1","QGM2021_e1_3",1,"LongStudy",5,1830,"Include",197
"QGM2021_e1","QGM2021_e1_3",1,"LongStudy",2,1199,"Include",198
"QGM2021_e1","QGM2021_e1_3",0,"LongStudy",5,1831,"Include",199
"QGM2021_e1","QGM2021_e1_3",1,"LongStudy",5,1132,"Include",200
"QGM2021_e1","QGM2021_e1_3",0,"LongStudy",5,3895,"Include",201
"QGM2021_e1","QGM2021_e1_3",0,"LongStudy",2,1099,"Include",202
"QGM2021_e1","QGM2021_e1_3",1,"LongStudy",5,1032,"Include",203
"QGM2021_e1","QGM2021_e1_3",0,"LongStudy",5,866,"Include",204
"QGM2021_e1","QGM2021_e1_3",1,"LongStudy",5,733,"Include",205
"QGM2021_e1","QGM2021_e1_3",0,"LongStudy",2,1081,"Include",206
"QGM2021_e1","QGM2021_e1_3",0,"LongStudy",6,633,"Include",207
"QGM2021_e1","QGM2021_e1_3",1,"LongStudy",2,965,"Include",208
"QGM2021_e1","QGM2021_e1_3",1,"LongStudy",3,899,"Include",209
"QGM2021_e1","QGM2021_e1_3",1,"LongStudy",6,782,"Include",210
"QGM2021_e1","QGM2021_e1_3",0,"LongStudy",4,1165,"Include",211
"QGM2021_e1","QGM2021_e1_3",1,"LongStudy",5,649,"Include",212
"QGM2021_e1","QGM2021_e1_3",1,"LongStudy",2,999,"Include",213
"QGM2021_e1","QGM2021_e1_3",0,"LongStudy",5,1131,"Include",214
"QGM2021_e1","QGM2021_e1_3",1,"LongStudy",5,666,"Include",215
"QGM2021_e1","QGM2021_e1_3",1,"LongStudy",5,3129,"Include",216
"QGM2021_e1","QGM2021_e1_3",0,"LongStudy",1,915,"Include",217
"QGM2021_e1","QGM2021_e1_3",0,"LongStudy",4,566,"Include",218
"QGM2021_e1","QGM2021_e1_3",0,"LongStudy",3,782,"Include",219
"QGM2021_e1","QGM2021_e1_3",1,"LongStudy",5,1132,"Include",220
"QGM2021_e1","QGM2021_e1_3",1,"LongStudy",5,432,"Include",221
"QGM2021_e1","QGM2021_e1_3",0,"LongStudy",6,633,"Include",222
"QGM2021_e1","QGM2021_e1_3",0,"LongStudy",3,1831,"Include",223
"QGM2021_e1","QGM2021_e1_3",1,"LongStudy",6,533,"Include",224
"QGM2021_e1","QGM2021_e1_3",1,"LongStudy",5,732,"Include",225
"QGM2021_e1","QGM2021_e1_3",1,"LongStudy",4,699,"Include",226
"QGM2021_e1","QGM2021_e1_3",0,"LongStudy",5,633,"Include",227
"QGM2021_e1","QGM2021_e1_3",0,"LongStudy",6,565,"Include",228
"QGM2021_e1","QGM2021_e1_3",1,"LongStudy",5,699,"Include",229
"QGM2021_e1","QGM2021_e1_3",0,"LongStudy",5,766,"Include",230
"QGM2021_e1","QGM2021_e1_3",0,"LongStudy",6,1498,"Include",231
"QGM2021_e1","QGM2021_e1_3",1,"LongStudy",6,615,"Include",232
"QGM2021_e1","QGM2021_e1_3",0,"LongStudy",5,699,"Include",233
"QGM2021_e1","QGM2021_e1_3",1,"LongStudy",4,2231,"Include",234
"QGM2021_e1","QGM2021_e1_3",0,"LongStudy",3,732,"Include",235
"QGM2021_e1","QGM2021_e1_3",0,"LongStudy",2,2347,"Include",236
"QGM2021_e1","QGM2021_e1_3",1,"LongStudy",4,698,"Include",237
"QGM2021_e1","QGM2021_e1_3",1,"LongStudy",1,1165,"Include",238
"QGM2021_e1","QGM2021_e1_3",1,"LongStudy",2,1031,"Include",239
"QGM2021_e1","QGM2021_e1_3",0,"LongStudy",4,799,"Include",240
"QGM2021_e1","QGM2021_e1_3",1,"LongStudy",6,8923,"Include",241
"QGM2021_e1","QGM2021_e1_3",0,"LongStudy",1,866,"Include",242
"QGM2021_e1","QGM2021_e1_3",1,"LongStudy",6,632,"Include",243
"QGM2021_e1","QGM2021_e1_3",1,"LongStudy",4,1432,"Include",244
"QGM2021_e1","QGM2021_e1_3",0,"LongStudy",1,3429,"Include",245
"QGM2021_e1","QGM2021_e1_3",0,"LongStudy",6,1398,"Include",246
"QGM2021_e1","QGM2021_e1_3",1,"LongStudy",5,2130,"Include",247
"QGM2021_e1","QGM2021_e1_3",1,"LongStudy",1,899,"Include",248
"QGM2021_e1","QGM2021_e1_3",0,"LongStudy",2,1698,"Include",249
"QGM2021_e1","QGM2021_e1_3",0,"LongStudy",1,715,"Include",250
"QGM2021_e1","QGM2021_e1_3",0,"LongStudy",6,1065,"Include",251
"QGM2021_e1","QGM2021_e1_3",1,"LongStudy",2,1381,"Include",252
"QGM2021_e1","QGM2021_e1_3",1,"LongStudy",5,799,"Include",253
"QGM2021_e1","QGM2021_e1_3",1,"LongStudy",2,2263,"Include",254
"QGM2021_e1","QGM2021_e1_3",0,"LongStudy",3,2946,"Include",255
"QGM2021_e1","QGM2021_e1_3",0,"LongStudy",1,2080,"Include",256
"QGM2021_e1","QGM2021_e1_3",0,"LongStudy",4,4245,"Include",257
"QGM2021_e1","QGM2021_e1_3",1,"LongStudy",5,2897,"Include",258
"QGM2021_e1","QGM2021_e1_3",0,"LongStudy",6,1482,"Include",259
"QGM2021_e1","QGM2021_e1_3",1,"LongStudy",6,665,"Include",260
"QGM2021_e1","QGM2021_e1_3",0,"LongStudy",1,1199,"Include",261
"QGM2021_e1","QGM2021_e1_3",1,"LongStudy",6,7524,"Include",262
"QGM2021_e1","QGM2021_e1_3",0,"LongStudy",1,799,"Include",263
"QGM2021_e1","QGM2021_e1_3",1,"LongStudy",1,1248,"Include",264
"QGM2021_e1","QGM2021_e1_3",0,"LongStudy",5,1165,"Include",265
"QGM2021_e1","QGM2021_e1_3",0,"LongStudy",4,1681,"Include",266
"QGM2021_e1","QGM2021_e1_3",0,"LongStudy",4,5277,"Include",267
"QGM2021_e1","QGM2021_e1_3",1,"LongStudy",6,1365,"Include",268
"QGM2021_e1","QGM2021_e1_3",1,"LongStudy",2,2697,"Include",269
"QGM2021_e1","QGM2021_e1_3",1,"LongStudy",6,1165,"Include",270
"QGM2021_e1","QGM2021_e1_3",0,"LongStudy",1,567,"Include",271
"QGM2021_e1","QGM2021_e1_3",0,"LongStudy",2,6060,"Include",272
"QGM2021_e1","QGM2021_e1_3",1,"LongStudy",6,433,"Include",273
"QGM2021_e1","QGM2021_e1_3",0,"LongStudy",1,866,"Include",274
"QGM2021_e1","QGM2021_e1_3",0,"LongStudy",6,815,"Include",275
"QGM2021_e1","QGM2021_e1_3",1,"LongStudy",6,1065,"Include",276
"QGM2021_e1","QGM2021_e1_3",1,"LongStudy",1,1131,"Include",277
"QGM2021_e1","QGM2021_e1_3",1,"LongStudy",6,400,"Include",278
"QGM2021_e1","QGM2021_e1_3",0,"LongStudy",1,1065,"Include",279
"QGM2021_e1","QGM2021_e1_3",1,"LongStudy",6,499,"Include",280
"QGM2021_e1","QGM2021_e1_3",1,"LongStudy",6,1565,"Include",281
"QGM2021_e1","QGM2021_e1_3",1,"LongStudy",4,4761,"Include",282
"QGM2021_e1","QGM2021_e1_3",0,"LongStudy",2,2413,"Include",283
"QGM2021_e1","QGM2021_e1_3",1,"LongStudy",6,582,"Include",284
"QGM2021_e1","QGM2021_e1_3",0,"LongStudy",1,1232,"Include",285
"QGM2021_e1","QGM2021_e1_3",0,"LongStudy",6,549,"Include",286
"QGM2021_e1","QGM2021_e1_3",1,"LongStudy",6,599,"Include",287
"QGM2021_e1","QGM2021_e1_3",0,"LongStudy",4,3762,"Include",288
"QGM2021_e1","QGM2021_e1_3",0,"LongStudy",4,3762,"Include",289
"QGM2021_e1","QGM2021_e1_3",1,"LongStudy",1,766,"Include",290
"QGM2021_e1","QGM2021_e1_3",1,"LongStudy",6,1065,"Include",291
"QGM2021_e1","QGM2021_e1_3",0,"LongStudy",1,666,"Include",292
"QGM2021_e1","QGM2021_e1_3",1,"LongStudy",4,1964,"Include",293
"QGM2021_e1","QGM2021_e1_3",0,"LongStudy",6,1265,"Include",294
"QGM2021_e1","QGM2021_e1_3",1,"LongStudy",6,1232,"Include",295
"QGM2021_e1","QGM2021_e1_3",0,"LongStudy",3,1532,"Include",296
"QGM2021_e1","QGM2021_e1_3",0,"LongStudy",5,832,"Include",297
"QGM2021_e1","QGM2021_e1_3",1,"LongStudy",4,866,"Include",298
"QGM2021_e1","QGM2021_e1_3",1,"LongStudy",3,2830,"Include",299
"QGM2021_e1","QGM2021_e1_3",0,"LongStudy",1,1132,"Include",300
"QGM2021_e1","QGM2021_e1_3",1,"LongStudy",6,782,"Include",301
"QGM2021_e1","QGM2021_e1_3",0,"LongStudy",6,1732,"Include",302
"QGM2021_e1","QGM2021_e1_3",0,"LongStudy",6,1165,"Include",303
"QGM2021_e1","QGM2021_e1_3",1,"LongStudy",6,433,"Include",304
"QGM2021_e1","QGM2021_e1_3",1,"LongStudy",6,665,"Include",305
"QGM2021_e1","QGM2021_e1_3",0,"LongStudy",1,732,"Include",306
"QGM2021_e1","QGM2021_e1_3",1,"LongStudy",4,1698,"Include",307
"QGM2021_e1","QGM2021_e1_3",0,"LongStudy",1,2497,"Include",308
"QGM2021_e1","QGM2021_e1_3",0,"LongStudy",3,3063,"Include",309
"QGM2021_e1","QGM2021_e1_3",1,"LongStudy",6,433,"Include",310
"QGM2021_e1","QGM2021_e1_3",0,"LongStudy",5,1298,"Include",311
"QGM2021_e1","QGM2021_e1_3",1,"LongStudy",6,933,"Include",312
"QGM2021_e1","QGM2021_e1_3",0,"LongStudy",4,1880,"Include",313
"QGM2021_e1","QGM2021_e1_3",1,"LongStudy",6,4961,"Include",314
"QGM2021_e1","QGM2021_e1_3",1,"LongStudy",1,1099,"Include",315
"QGM2021_e1","QGM2021_e1_3",0,"LongStudy",2,2546,"Include",316
"QGM2021_e1","QGM2021_e1_3",0,"LongStudy",5,1481,"Include",317
"QGM2021_e1","QGM2021_e1_3",0,"LongStudy",3,3196,"Include",318
"QGM2021_e1","QGM2021_e1_3",1,"LongStudy",4,6026,"Include",319
"QGM2021_e1","QGM2021_e1_3",1,"LongStudy",6,549,"Include",320
"QGM2021_e1","QGM2021_e1_3",1,"LongStudy",4,2065,"Include",321
"QGM2021_e1","QGM2021_e1_3",0,"LongStudy",3,1398,"Include",322
"QGM2021_e1","QGM2021_e1_3",1,"LongStudy",3,1964,"Include",323
"QGM2021_e1","QGM2021_e1_3",1,"LongStudy",5,5660,"Include",324
"QGM2021_e1","QGM2021_e1_3",0,"LongStudy",2,832,"Include",325
"QGM2021_e1","QGM2021_e1_3",1,"LongStudy",6,1198,"Include",326
"QGM2021_e1","QGM2021_e1_3",1,"LongStudy",5,1631,"Include",327
"QGM2021_e1","QGM2021_e1_3",0,"LongStudy",1,633,"Include",328
"QGM2021_e1","QGM2021_e1_3",0,"LongStudy",2,1498,"Include",329
"QGM2021_e1","QGM2021_e1_3",0,"LongStudy",5,1332,"Include",330
"QGM2021_e1","QGM2021_e1_3",1,"LongStudy",6,732,"Include",331
"QGM2021_e1","QGM2021_e1_3",0,"LongStudy",4,2430,"Include",332
"QGM2021_e1","QGM2021_e1_3",1,"LongStudy",6,699,"Include",333
"QGM2021_e1","QGM2021_e1_3",0,"LongStudy",1,1565,"Include",334
"QGM2021_e1","QGM2021_e1_3",0,"LongStudy",4,2464,"Include",335
"QGM2021_e1","QGM2021_e1_3",1,"LongStudy",6,566,"Include",336
"QGM2021_e1","QGM2021_e1_3",1,"LongStudy",5,966,"Include",337
"QGM2021_e1","QGM2021_e1_3",0,"LongStudy",6,866,"Include",338
"QGM2021_e1","QGM2021_e1_3",1,"LongStudy",1,2530,"Include",339
"QGM2021_e1","QGM2021_e1_3",0,"LongStudy",3,1498,"Include",340
"QGM2021_e1","QGM2021_e1_3",0,"LongStudy",5,1998,"Include",341
"QGM2021_e1","QGM2021_e1_3",0,"LongStudy",1,932,"Include",342
"QGM2021_e1","QGM2021_e1_3",1,"LongStudy",6,1199,"Include",343
"QGM2021_e1","QGM2021_e1_3",0,"LongStudy",5,1199,"Include",344
"QGM2021_e1","QGM2021_e1_3",1,"LongStudy",1,766,"Include",345
"QGM2021_e1","QGM2021_e1_3",1,"LongStudy",3,1731,"Include",346
"QGM2021_e1","QGM2021_e1_3",0,"LongStudy",5,1415,"Include",347
"QGM2021_e1","QGM2021_e1_3",0,"LongStudy",5,3263,"Include",348
"QGM2021_e1","QGM2021_e1_3",1,"LongStudy",6,1032,"Include",349
"QGM2021_e1","QGM2021_e1_3",1,"LongStudy",6,732,"Include",350
"QGM2021_e1","QGM2021_e1_3",0,"LongStudy",1,933,"Include",351
"QGM2021_e1","QGM2021_e1_3",0,"LongStudy",4,1631,"Include",352
"QGM2021_e1","QGM2021_e1_3",0,"LongStudy",1,3696,"Include",353
"QGM2021_e1","QGM2021_e1_3",1,"LongStudy",5,1032,"Include",354
"QGM2021_e1","QGM2021_e1_3",1,"LongStudy",6,4478,"Include",355
"QGM2021_e1","QGM2021_e1_3",0,"LongStudy",6,1432,"Include",356
"QGM2021_e1","QGM2021_e1_3",1,"LongStudy",1,3962,"Include",357
"QGM2021_e1","QGM2021_e1_3",0,"LongStudy",5,2031,"Include",358
"QGM2021_e1","QGM2021_e1_3",1,"LongStudy",6,1015,"Include",359
"QGM2021_e1","QGM2021_e1_3",1,"LongStudy",2,3429,"Include",360
"QGM2021_e1","QGM2021_e1_4",1,"LongStudy",4,26684,"Include",1
"QGM2021_e1","QGM2021_e1_4",0,"LongStudy",2,5350,"Include",2
"QGM2021_e1","QGM2021_e1_4",1,"LongStudy",6,2767,"Include",3
"QGM2021_e1","QGM2021_e1_4",1,"LongStudy",4,7200,"Include",4
"QGM2021_e1","QGM2021_e1_4",0,"LongStudy",5,2750,"Include",5
"QGM2021_e1","QGM2021_e1_4",0,"LongStudy",3,7100,"Include",6
"QGM2021_e1","QGM2021_e1_4",1,"LongStudy",2,3700,"Include",7
"QGM2021_e1","QGM2021_e1_4",1,"LongStudy",3,10217,"Include",8
"QGM2021_e1","QGM2021_e1_4",0,"LongStudy",6,2000,"Include",9
"QGM2021_e1","QGM2021_e1_4",0,"LongStudy",3,4200,"Include",10
"QGM2021_e1","QGM2021_e1_4",0,"LongStudy",6,2250,"Include",11
"QGM2021_e1","QGM2021_e1_4",1,"LongStudy",4,4650,"Include",12
"QGM2021_e1","QGM2021_e1_4",1,"LongStudy",5,2100,"Include",13
"QGM2021_e1","QGM2021_e1_4",1,"LongStudy",3,1950,"Include",14
"QGM2021_e1","QGM2021_e1_4",0,"LongStudy",5,1500,"Include",15
"QGM2021_e1","QGM2021_e1_4",0,"LongStudy",5,1750,"Include",16
"QGM2021_e1","QGM2021_e1_4",0,"LongStudy",2,1400,"Include",17
"QGM2021_e1","QGM2021_e1_4",1,"LongStudy",5,2550,"Include",18
"QGM2021_e1","QGM2021_e1_4",0,"LongStudy",5,1150,"Include",19
"QGM2021_e1","QGM2021_e1_4",1,"LongStudy",5,1850,"Include",20
"QGM2021_e1","QGM2021_e1_4",0,"LongStudy",6,2900,"Include",21
"QGM2021_e1","QGM2021_e1_4",1,"LongStudy",6,600,"Include",22
"QGM2021_e1","QGM2021_e1_4",0,"LongStudy",2,3500,"Include",23
"QGM2021_e1","QGM2021_e1_4",1,"LongStudy",6,3650,"Include",24
"QGM2021_e1","QGM2021_e1_4",0,"LongStudy",5,5600,"Include",25
"QGM2021_e1","QGM2021_e1_4",0,"LongStudy",2,5400,"Include",26
"QGM2021_e1","QGM2021_e1_4",0,"LongStudy",2,1400,"Include",27
"QGM2021_e1","QGM2021_e1_4",1,"LongStudy",6,1200,"Include",28
"QGM2021_e1","QGM2021_e1_4",1,"LongStudy",2,1650,"Include",29
"QGM2021_e1","QGM2021_e1_4",1,"LongStudy",2,1250,"Include",30
"QGM2021_e1","QGM2021_e1_4",0,"LongStudy",1,1950,"Include",31
"QGM2021_e1","QGM2021_e1_4",0,"LongStudy",3,4250,"Include",32
"QGM2021_e1","QGM2021_e1_4",1,"LongStudy",3,2900,"Include",33
"QGM2021_e1","QGM2021_e1_4",0,"LongStudy",2,2400,"Include",34
"QGM2021_e1","QGM2021_e1_4",0,"LongStudy",3,1350,"Include",35
"QGM2021_e1","QGM2021_e1_4",1,"LongStudy",3,3250,"Include",36
"QGM2021_e1","QGM2021_e1_4",1,"LongStudy",5,2100,"Include",37
"QGM2021_e1","QGM2021_e1_4",1,"LongStudy",6,750,"Include",38
"QGM2021_e1","QGM2021_e1_4",0,"LongStudy",2,5100,"Include",39
"QGM2021_e1","QGM2021_e1_4",1,"LongStudy",6,650,"Include",40
"QGM2021_e1","QGM2021_e1_4",1,"LongStudy",3,2450,"Include",41
"QGM2021_e1","QGM2021_e1_4",1,"LongStudy",6,1350,"Include",42
"QGM2021_e1","QGM2021_e1_4",0,"LongStudy",5,2300,"Include",43
"QGM2021_e1","QGM2021_e1_4",1,"LongStudy",5,2300,"Include",44
"QGM2021_e1","QGM2021_e1_4",0,"LongStudy",4,1800,"Include",45
"QGM2021_e1","QGM2021_e1_4",0,"LongStudy",6,1850,"Include",46
"QGM2021_e1","QGM2021_e1_4",1,"LongStudy",5,3600,"Include",47
"QGM2021_e1","QGM2021_e1_4",0,"LongStudy",2,1400,"Include",48
"QGM2021_e1","QGM2021_e1_4",0,"LongStudy",6,1300,"Include",49
"QGM2021_e1","QGM2021_e1_4",1,"LongStudy",5,800,"Include",50
"QGM2021_e1","QGM2021_e1_4",1,"LongStudy",6,1150,"Include",51
"QGM2021_e1","QGM2021_e1_4",0,"LongStudy",5,1800,"Include",52
"QGM2021_e1","QGM2021_e1_4",1,"LongStudy",6,700,"Include",53
"QGM2021_e1","QGM2021_e1_4",0,"LongStudy",3,2050,"Include",54
"QGM2021_e1","QGM2021_e1_4",1,"LongStudy",2,1300,"Include",55
"QGM2021_e1","QGM2021_e1_4",0,"LongStudy",2,1850,"Include",56
"QGM2021_e1","QGM2021_e1_4",0,"LongStudy",5,2600,"Include",57
"QGM2021_e1","QGM2021_e1_4",1,"LongStudy",5,3600,"Include",58
"QGM2021_e1","QGM2021_e1_4",1,"LongStudy",5,1250,"Include",59
"QGM2021_e1","QGM2021_e1_4",0,"LongStudy",2,2800,"Include",60
"QGM2021_e1","QGM2021_e1_4",1,"LongStudy",5,1000,"Include",61
"QGM2021_e1","QGM2021_e1_4",0,"LongStudy",5,1700,"Include",62
"QGM2021_e1","QGM2021_e1_4",0,"LongStudy",6,700,"Include",63
"QGM2021_e1","QGM2021_e1_4",1,"LongStudy",6,750,"Include",64
"QGM2021_e1","QGM2021_e1_4",1,"LongStudy",6,500,"Include",65
"QGM2021_e1","QGM2021_e1_4",0,"LongStudy",2,1800,"Include",66
"QGM2021_e1","QGM2021_e1_4",1,"LongStudy",5,2100,"Include",67
"QGM2021_e1","QGM2021_e1_4",0,"LongStudy",5,1350,"Include",68
"QGM2021_e1","QGM2021_e1_4",0,"LongStudy",5,650,"Include",69
"QGM2021_e1","QGM2021_e1_4",1,"LongStudy",5,1000,"Include",70
"QGM2021_e1","QGM2021_e1_4",0,"LongStudy",6,2150,"Include",71
"QGM2021_e1","QGM2021_e1_4",1,"LongStudy",4,2300,"Include",72
"QGM2021_e1","QGM2021_e1_4",0,"LongStudy",3,2800,"Include",73
"QGM2021_e1","QGM2021_e1_4",1,"LongStudy",3,1450,"Include",74
"QGM2021_e1","QGM2021_e1_4",1,"LongStudy",3,1100,"Include",75
"QGM2021_e1","QGM2021_e1_4",0,"LongStudy",3,1650,"Include",76
"QGM2021_e1","QGM2021_e1_4",0,"LongStudy",5,1800,"Include",77
"QGM2021_e1","QGM2021_e1_4",0,"LongStudy",5,850,"Include",78
"QGM2021_e1","QGM2021_e1_4",1,"LongStudy",3,1150,"Include",79
"QGM2021_e1","QGM2021_e1_4",1,"LongStudy",3,1000,"Include",80
"QGM2021_e1","QGM2021_e1_4",1,"LongStudy",5,1950,"Include",81
"QGM2021_e1","QGM2021_e1_4",0,"LongStudy",2,2300,"Include",82
"QGM2021_e1","QGM2021_e1_4",1,"LongStudy",4,4500,"Include",83
"QGM2021_e1","QGM2021_e1_4",1,"LongStudy",4,800,"Include",84
"QGM2021_e1","QGM2021_e1_4",0,"LongStudy",4,2000,"Include",85
"QGM2021_e1","QGM2021_e1_4",1,"LongStudy",6,550,"Include",86
"QGM2021_e1","QGM2021_e1_4",1,"LongStudy",6,500,"Include",87
"QGM2021_e1","QGM2021_e1_4",0,"LongStudy",5,1000,"Include",88
"QGM2021_e1","QGM2021_e1_4",0,"LongStudy",4,2950,"Include",89
"QGM2021_e1","QGM2021_e1_4",0,"LongStudy",4,1650,"Include",90
"QGM2021_e1","QGM2021_e1_4",1,"LongStudy",2,1300,"Include",91
"QGM2021_e1","QGM2021_e1_4",0,"LongStudy",2,2300,"Include",92
"QGM2021_e1","QGM2021_e1_4",1,"LongStudy",6,900,"Include",93
"QGM2021_e1","QGM2021_e1_4",0,"LongStudy",5,1000,"Include",94
"QGM2021_e1","QGM2021_e1_4",0,"LongStudy",5,1350,"Include",95
"QGM2021_e1","QGM2021_e1_4",1,"LongStudy",6,550,"Include",96
"QGM2021_e1","QGM2021_e1_4",1,"LongStudy",5,2300,"Include",97
"QGM2021_e1","QGM2021_e1_4",0,"LongStudy",5,1250,"Include",98
"QGM2021_e1","QGM2021_e1_4",1,"LongStudy",3,1450,"Include",99
"QGM2021_e1","QGM2021_e1_4",0,"LongStudy",3,1150,"Include",100
"QGM2021_e1","QGM2021_e1_4",0,"LongStudy",3,2350,"Include",101
"QGM2021_e1","QGM2021_e1_4",0,"LongStudy",3,2900,"Include",102
"QGM2021_e1","QGM2021_e1_4",1,"LongStudy",6,950,"Include",103
"QGM2021_e1","QGM2021_e1_4",0,"LongStudy",3,4500,"Include",104
"QGM2021_e1","QGM2021_e1_4",1,"LongStudy",2,1600,"Include",105
"QGM2021_e1","QGM2021_e1_4",1,"LongStudy",4,1350,"Include",106
"QGM2021_e1","QGM2021_e1_4",0,"LongStudy",4,1700,"Include",107
"QGM2021_e1","QGM2021_e1_4",0,"LongStudy",4,1150,"Include",108
"QGM2021_e1","QGM2021_e1_4",1,"LongStudy",5,1100,"Include",109
"QGM2021_e1","QGM2021_e1_4",1,"LongStudy",5,1150,"Include",110
"QGM2021_e1","QGM2021_e1_4",0,"LongStudy",2,1100,"Include",111
"QGM2021_e1","QGM2021_e1_4",0,"LongStudy",2,2567,"Include",112
"QGM2021_e1","QGM2021_e1_4",0,"LongStudy",4,2250,"Include",113
"QGM2021_e1","QGM2021_e1_4",1,"LongStudy",3,1950,"Include",114
"QGM2021_e1","QGM2021_e1_4",1,"LongStudy",5,2100,"Include",115
"QGM2021_e1","QGM2021_e1_4",0,"LongStudy",2,900,"Include",116
"QGM2021_e1","QGM2021_e1_4",1,"LongStudy",5,950,"Include",117
"QGM2021_e1","QGM2021_e1_4",0,"LongStudy",4,2900,"Include",118
"QGM2021_e1","QGM2021_e1_4",1,"LongStudy",6,600,"Include",119
"QGM2021_e1","QGM2021_e1_4",1,"LongStudy",5,4800,"Include",120
"QGM2021_e1","QGM2021_e1_4",1,"LongStudy",5,800,"Include",121
"QGM2021_e1","QGM2021_e1_4",0,"LongStudy",1,850,"Include",122
"QGM2021_e1","QGM2021_e1_4",1,"LongStudy",1,400,"Include",123
"QGM2021_e1","QGM2021_e1_4",1,"LongStudy",6,917,"Include",124
"QGM2021_e1","QGM2021_e1_4",0,"LongStudy",2,550,"Include",125
"QGM2021_e1","QGM2021_e1_4",0,"LongStudy",2,1450,"Include",126
"QGM2021_e1","QGM2021_e1_4",1,"LongStudy",3,1950,"Include",127
"QGM2021_e1","QGM2021_e1_4",1,"LongStudy",6,1800,"Include",128
"QGM2021_e1","QGM2021_e1_4",0,"LongStudy",3,2000,"Include",129
"QGM2021_e1","QGM2021_e1_4",0,"LongStudy",1,850,"Include",130
"QGM2021_e1","QGM2021_e1_4",0,"LongStudy",1,2200,"Include",131
"QGM2021_e1","QGM2021_e1_4",1,"LongStudy",6,1150,"Include",132
"QGM2021_e1","QGM2021_e1_4",1,"LongStudy",6,1150,"Include",133
"QGM2021_e1","QGM2021_e1_4",1,"LongStudy",6,650,"Include",134
"QGM2021_e1","QGM2021_e1_4",0,"LongStudy",3,2000,"Include",135
"QGM2021_e1","QGM2021_e1_4",0,"LongStudy",2,2000,"Include",136
"QGM2021_e1","QGM2021_e1_4",0,"LongStudy",2,1700,"Include",137
"QGM2021_e1","QGM2021_e1_4",1,"LongStudy",6,1400,"Include",138
"QGM2021_e1","QGM2021_e1_4",0,"LongStudy",3,1450,"Include",139
"QGM2021_e1","QGM2021_e1_4",1,"LongStudy",6,800,"Include",140
"QGM2021_e1","QGM2021_e1_4",0,"LongStudy",1,1300,"Include",141
"QGM2021_e1","QGM2021_e1_4",1,"LongStudy",5,1550,"Include",142
"QGM2021_e1","QGM2021_e1_4",0,"LongStudy",3,2100,"Include",143
"QGM2021_e1","QGM2021_e1_4",1,"LongStudy",3,1450,"Include",144
"QGM2021_e1","QGM2021_e1_4",0,"LongStudy",3,800,"Include",145
"QGM2021_e1","QGM2021_e1_4",0,"LongStudy",1,1150,"Include",146
"QGM2021_e1","QGM2021_e1_4",0,"LongStudy",2,1600,"Include",147
"QGM2021_e1","QGM2021_e1_4",1,"LongStudy",2,1250,"Include",148
"QGM2021_e1","QGM2021_e1_4",1,"LongStudy",6,1200,"Include",149
"QGM2021_e1","QGM2021_e1_4",1,"LongStudy",2,900,"Include",150
"QGM2021_e1","QGM2021_e1_4",0,"LongStudy",2,800,"Include",151
"QGM2021_e1","QGM2021_e1_4",0,"LongStudy",2,1150,"Include",152
"QGM2021_e1","QGM2021_e1_4",1,"LongStudy",2,550,"Include",153
"QGM2021_e1","QGM2021_e1_4",0,"LongStudy",2,750,"Include",154
"QGM2021_e1","QGM2021_e1_4",0,"LongStudy",2,950,"Include",155
"QGM2021_e1","QGM2021_e1_4",1,"LongStudy",5,1800,"Include",156
"QGM2021_e1","QGM2021_e1_4",1,"LongStudy",6,750,"Include",157
"QGM2021_e1","QGM2021_e1_4",1,"LongStudy",6,1200,"Include",158
"QGM2021_e1","QGM2021_e1_4",0,"LongStudy",2,1600,"Include",159
"QGM2021_e1","QGM2021_e1_4",1,"LongStudy",5,1350,"Include",160
"QGM2021_e1","QGM2021_e1_4",1,"LongStudy",5,1800,"Include",161
"QGM2021_e1","QGM2021_e1_4",1,"LongStudy",6,717,"Include",162
"QGM2021_e1","QGM2021_e1_4",0,"LongStudy",5,1300,"Include",163
"QGM2021_e1","QGM2021_e1_4",1,"LongStudy",6,650,"Include",164
"QGM2021_e1","QGM2021_e1_4",0,"LongStudy",4,2250,"Include",165
"QGM2021_e1","QGM2021_e1_4",0,"LongStudy",3,2050,"Include",166
"QGM2021_e1","QGM2021_e1_4",1,"LongStudy",6,800,"Include",167
"QGM2021_e1","QGM2021_e1_4",0,"LongStudy",3,1350,"Include",168
"QGM2021_e1","QGM2021_e1_4",0,"LongStudy",3,1000,"Include",169
"QGM2021_e1","QGM2021_e1_4",1,"LongStudy",6,850,"Include",170
"QGM2021_e1","QGM2021_e1_4",1,"LongStudy",3,1150,"Include",171
"QGM2021_e1","QGM2021_e1_4",0,"LongStudy",3,817,"Include",172
"QGM2021_e1","QGM2021_e1_4",1,"LongStudy",3,1450,"Include",173
"QGM2021_e1","QGM2021_e1_4",0,"LongStudy",3,1300,"Include",174
"QGM2021_e1","QGM2021_e1_4",1,"LongStudy",5,1050,"Include",175
"QGM2021_e1","QGM2021_e1_4",0,"LongStudy",5,1150,"Include",176
"QGM2021_e1","QGM2021_e1_4",0,"LongStudy",3,1400,"Include",177
"QGM2021_e1","QGM2021_e1_4",1,"LongStudy",3,1200,"Include",178
"QGM2021_e1","QGM2021_e1_4",1,"LongStudy",3,800,"Include",179
"QGM2021_e1","QGM2021_e1_4",0,"LongStudy",3,800,"Include",180
"QGM2021_e1","QGM2021_e1_4",1,"LongStudy",6,900,"Include",181
"QGM2021_e1","QGM2021_e1_4",0,"LongStudy",2,1500,"Include",182
"QGM2021_e1","QGM2021_e1_4",0,"LongStudy",2,850,"Include",183
"QGM2021_e1","QGM2021_e1_4",1,"LongStudy",5,1400,"Include",184
"QGM2021_e1","QGM2021_e1_4",1,"LongStudy",5,1050,"Include",185
"QGM2021_e1","QGM2021_e1_4",0,"LongStudy",2,1450,"Include",186
"QGM2021_e1","QGM2021_e1_4",1,"LongStudy",2,750,"Include",187
"QGM2021_e1","QGM2021_e1_4",0,"LongStudy",4,1150,"Include",188
"QGM2021_e1","QGM2021_e1_4",0,"LongStudy",3,1250,"Include",189
"QGM2021_e1","QGM2021_e1_4",1,"LongStudy",3,1300,"Include",190
"QGM2021_e1","QGM2021_e1_4",0,"LongStudy",3,600,"Include",191
"QGM2021_e1","QGM2021_e1_4",1,"LongStudy",2,1300,"Include",192
"QGM2021_e1","QGM2021_e1_4",0,"LongStudy",1,1067,"Include",193
"QGM2021_e1","QGM2021_e1_4",1,"LongStudy",6,700,"Include",194
"QGM2021_e1","QGM2021_e1_4",1,"LongStudy",6,750,"Include",195
"QGM2021_e1","QGM2021_e1_4",0,"LongStudy",5,1000,"Include",196
"QGM2021_e1","QGM2021_e1_4",0,"LongStudy",3,1450,"Include",197
"QGM2021_e1","QGM2021_e1_4",0,"LongStudy",3,1400,"Include",198
"QGM2021_e1","QGM2021_e1_4",1,"LongStudy",6,700,"Include",199
"QGM2021_e1","QGM2021_e1_4",1,"LongStudy",6,900,"Include",200
"QGM2021_e1","QGM2021_e1_4",1,"LongStudy",4,1300,"Include",201
"QGM2021_e1","QGM2021_e1_4",0,"LongStudy",3,1150,"Include",202
"QGM2021_e1","QGM2021_e1_4",1,"LongStudy",3,950,"Include",203
"QGM2021_e1","QGM2021_e1_4",1,"LongStudy",5,1200,"Include",204
"QGM2021_e1","QGM2021_e1_4",0,"LongStudy",3,950,"Include",205
"QGM2021_e1","QGM2021_e1_4",1,"LongStudy",3,1600,"Include",206
"QGM2021_e1","QGM2021_e1_4",1,"LongStudy",3,700,"Include",207
"QGM2021_e1","QGM2021_e1_4",0,"LongStudy",3,600,"Include",208
"QGM2021_e1","QGM2021_e1_4",0,"LongStudy",2,1200,"Include",209
"QGM2021_e1","QGM2021_e1_4",0,"LongStudy",2,750,"Include",210
"QGM2021_e1","QGM2021_e1_4",1,"LongStudy",6,967,"Include",211
"QGM2021_e1","QGM2021_e1_4",0,"LongStudy",3,1300,"Include",212
"QGM2021_e1","QGM2021_e1_4",1,"LongStudy",6,900,"Include",213
"QGM2021_e1","QGM2021_e1_4",0,"LongStudy",6,1100,"Include",214
"QGM2021_e1","QGM2021_e1_4",0,"LongStudy",4,1700,"Include",215
"QGM2021_e1","QGM2021_e1_4",1,"LongStudy",4,750,"Include",216
"QGM2021_e1","QGM2021_e1_4",1,"LongStudy",6,700,"Include",217
"QGM2021_e1","QGM2021_e1_4",0,"LongStudy",4,650,"Include",218
"QGM2021_e1","QGM2021_e1_4",1,"LongStudy",4,850,"Include",219
"QGM2021_e1","QGM2021_e1_4",0,"LongStudy",3,1400,"Include",220
"QGM2021_e1","QGM2021_e1_4",0,"LongStudy",5,2000,"Include",221
"QGM2021_e1","QGM2021_e1_4",0,"LongStudy",3,2017,"Include",222
"QGM2021_e1","QGM2021_e1_4",1,"LongStudy",6,1050,"Include",223
"QGM2021_e1","QGM2021_e1_4",0,"LongStudy",3,1200,"Include",224
"QGM2021_e1","QGM2021_e1_4",1,"LongStudy",6,500,"Include",225
"QGM2021_e1","QGM2021_e1_4",1,"LongStudy",6,800,"Include",226
"QGM2021_e1","QGM2021_e1_4",0,"LongStudy",3,1700,"Include",227
"QGM2021_e1","QGM2021_e1_4",0,"LongStudy",3,1050,"Include",228
"QGM2021_e1","QGM2021_e1_4",1,"LongStudy",6,767,"Include",229
"QGM2021_e1","QGM2021_e1_4",1,"LongStudy",6,650,"Include",230
"QGM2021_e1","QGM2021_e1_4",0,"LongStudy",2,1367,"Include",231
"QGM2021_e1","QGM2021_e1_4",0,"LongStudy",3,1100,"Include",232
"QGM2021_e1","QGM2021_e1_4",0,"LongStudy",3,850,"Include",233
"QGM2021_e1","QGM2021_e1_4",1,"LongStudy",4,1500,"Include",234
"QGM2021_e1","QGM2021_e1_4",1,"LongStudy",3,900,"Include",235
"QGM2021_e1","QGM2021_e1_4",0,"LongStudy",3,700,"Include",236
"QGM2021_e1","QGM2021_e1_4",1,"LongStudy",3,550,"Include",237
"QGM2021_e1","QGM2021_e1_4",0,"LongStudy",3,700,"Include",238
"QGM2021_e1","QGM2021_e1_4",1,"LongStudy",5,1650,"Include",239
"QGM2021_e1","QGM2021_e1_4",1,"LongStudy",3,1267,"Include",240
"QGM2021_e1","QGM2021_e1_4",1,"LongStudy",4,11618,"Include",241
"QGM2021_e1","QGM2021_e1_4",0,"LongStudy",2,2200,"Include",242
"QGM2021_e1","QGM2021_e1_4",0,"LongStudy",5,1450,"Include",243
"QGM2021_e1","QGM2021_e1_4",1,"LongStudy",6,1950,"Include",244
"QGM2021_e1","QGM2021_e1_4",0,"LongStudy",3,1350,"Include",245
"QGM2021_e1","QGM2021_e1_4",0,"LongStudy",4,2300,"Include",246
"QGM2021_e1","QGM2021_e1_4",0,"LongStudy",5,1700,"Include",247
"QGM2021_e1","QGM2021_e1_4",1,"LongStudy",6,1700,"Include",248
"QGM2021_e1","QGM2021_e1_4",1,"LongStudy",2,1100,"Include",249
"QGM2021_e1","QGM2021_e1_4",1,"LongStudy",5,2300,"Include",250
"QGM2021_e1","QGM2021_e1_4",0,"LongStudy",3,1900,"Include",251
"QGM2021_e1","QGM2021_e1_4",1,"LongStudy",6,1000,"Include",252
"QGM2021_e1","QGM2021_e1_4",1,"LongStudy",2,2050,"Include",253
"QGM2021_e1","QGM2021_e1_4",1,"LongStudy",6,700,"Include",254
"QGM2021_e1","QGM2021_e1_4",0,"LongStudy",3,1100,"Include",255
"QGM2021_e1","QGM2021_e1_4",1,"LongStudy",5,1100,"Include",256
"QGM2021_e1","QGM2021_e1_4",0,"LongStudy",4,2017,"Include",257
"QGM2021_e1","QGM2021_e1_4",1,"LongStudy",6,1150,"Include",258
"QGM2021_e1","QGM2021_e1_4",0,"LongStudy",2,1300,"Include",259
"QGM2021_e1","QGM2021_e1_4",0,"LongStudy",3,1650,"Include",260
"QGM2021_e1","QGM2021_e1_4",1,"LongStudy",4,3000,"Include",261
"QGM2021_e1","QGM2021_e1_4",0,"LongStudy",4,2450,"Include",262
"QGM2021_e1","QGM2021_e1_4",1,"LongStudy",6,550,"Include",263
"QGM2021_e1","QGM2021_e1_4",0,"LongStudy",4,4900,"Include",264
"QGM2021_e1","QGM2021_e1_4",0,"LongStudy",2,1950,"Include",265
"QGM2021_e1","QGM2021_e1_4",1,"LongStudy",4,1550,"Include",266
"QGM2021_e1","QGM2021_e1_4",0,"LongStudy",2,1450,"Include",267
"QGM2021_e1","QGM2021_e1_4",1,"LongStudy",6,700,"Include",268
"QGM2021_e1","QGM2021_e1_4",1,"LongStudy",2,2150,"Include",269
"QGM2021_e1","QGM2021_e1_4",0,"LongStudy",1,1950,"Include",270
"QGM2021_e1","QGM2021_e1_4",0,"LongStudy",5,2000,"Include",271
"QGM2021_e1","QGM2021_e1_4",0,"LongStudy",4,1750,"Include",272
"QGM2021_e1","QGM2021_e1_4",1,"LongStudy",4,950,"Include",273
"QGM2021_e1","QGM2021_e1_4",0,"LongStudy",2,2367,"Include",274
"QGM2021_e1","QGM2021_e1_4",1,"LongStudy",6,1100,"Include",275
"QGM2021_e1","QGM2021_e1_4",0,"LongStudy",4,2500,"Include",276
"QGM2021_e1","QGM2021_e1_4",1,"LongStudy",6,2017,"Include",277
"QGM2021_e1","QGM2021_e1_4",1,"LongStudy",5,1800,"Include",278
"QGM2021_e1","QGM2021_e1_4",0,"LongStudy",2,1300,"Include",279
"QGM2021_e1","QGM2021_e1_4",1,"LongStudy",6,1050,"Include",280
"QGM2021_e1","QGM2021_e1_4",0,"LongStudy",3,2850,"Include",281
"QGM2021_e1","QGM2021_e1_4",0,"LongStudy",5,2350,"Include",282
"QGM2021_e1","QGM2021_e1_4",1,"LongStudy",6,550,"Include",283
"QGM2021_e1","QGM2021_e1_4",0,"LongStudy",3,1600,"Include",284
"QGM2021_e1","QGM2021_e1_4",1,"LongStudy",5,1300,"Include",285
"QGM2021_e1","QGM2021_e1_4",1,"LongStudy",6,550,"Include",286
"QGM2021_e1","QGM2021_e1_4",1,"LongStudy",6,800,"Include",287
"QGM2021_e1","QGM2021_e1_4",0,"LongStudy",2,1000,"Include",288
"QGM2021_e1","QGM2021_e1_4",0,"LongStudy",1,1450,"Include",289
"QGM2021_e1","QGM2021_e1_4",1,"LongStudy",3,1750,"Include",290
"QGM2021_e1","QGM2021_e1_4",1,"LongStudy",5,1267,"Include",291
"QGM2021_e1","QGM2021_e1_4",0,"LongStudy",3,2300,"Include",292
"QGM2021_e1","QGM2021_e1_4",0,"LongStudy",3,2450,"Include",293
"QGM2021_e1","QGM2021_e1_4",1,"LongStudy",2,3367,"Include",294
"QGM2021_e1","QGM2021_e1_4",0,"LongStudy",4,1350,"Include",295
"QGM2021_e1","QGM2021_e1_4",0,"LongStudy",4,1950,"Include",296
"QGM2021_e1","QGM2021_e1_4",1,"LongStudy",6,1200,"Include",297
"QGM2021_e1","QGM2021_e1_4",1,"LongStudy",6,350,"Include",298
"QGM2021_e1","QGM2021_e1_4",0,"LongStudy",5,1600,"Include",299
"QGM2021_e1","QGM2021_e1_4",1,"LongStudy",6,1100,"Include",300
"QGM2021_e1","QGM2021_e1_4",0,"LongStudy",2,1567,"Include",301
"QGM2021_e1","QGM2021_e1_4",0,"LongStudy",2,1450,"Include",302
"QGM2021_e1","QGM2021_e1_4",1,"LongStudy",3,1300,"Include",303
"QGM2021_e1","QGM2021_e1_4",0,"LongStudy",5,1700,"Include",304
"QGM2021_e1","QGM2021_e1_4",0,"LongStudy",5,1500,"Include",305
"QGM2021_e1","QGM2021_e1_4",1,"LongStudy",5,1250,"Include",306
"QGM2021_e1","QGM2021_e1_4",0,"LongStudy",2,1300,"Include",307
"QGM2021_e1","QGM2021_e1_4",1,"LongStudy",3,1200,"Include",308
"QGM2021_e1","QGM2021_e1_4",1,"LongStudy",6,550,"Include",309
"QGM2021_e1","QGM2021_e1_4",1,"LongStudy",6,550,"Include",310
"QGM2021_e1","QGM2021_e1_4",0,"LongStudy",3,2500,"Include",311
"QGM2021_e1","QGM2021_e1_4",0,"LongStudy",2,1200,"Include",312
"QGM2021_e1","QGM2021_e1_4",1,"LongStudy",4,1650,"Include",313
"QGM2021_e1","QGM2021_e1_4",0,"LongStudy",3,3450,"Include",314
"QGM2021_e1","QGM2021_e1_4",1,"LongStudy",5,1350,"Include",315
"QGM2021_e1","QGM2021_e1_4",0,"LongStudy",2,1200,"Include",316
"QGM2021_e1","QGM2021_e1_4",1,"LongStudy",6,550,"Include",317
"QGM2021_e1","QGM2021_e1_4",0,"LongStudy",2,1200,"Include",318
"QGM2021_e1","QGM2021_e1_4",1,"LongStudy",6,550,"Include",319
"QGM2021_e1","QGM2021_e1_4",1,"LongStudy",6,750,"Include",320
"QGM2021_e1","QGM2021_e1_4",0,"LongStudy",2,950,"Include",321
"QGM2021_e1","QGM2021_e1_4",0,"LongStudy",4,2150,"Include",322
"QGM2021_e1","QGM2021_e1_4",1,"LongStudy",4,1900,"Include",323
"QGM2021_e1","QGM2021_e1_4",1,"LongStudy",6,450,"Include",324
"QGM2021_e1","QGM2021_e1_4",0,"LongStudy",5,1250,"Include",325
"QGM2021_e1","QGM2021_e1_4",1,"LongStudy",6,650,"Include",326
"QGM2021_e1","QGM2021_e1_4",0,"LongStudy",2,900,"Include",327
"QGM2021_e1","QGM2021_e1_4",1,"LongStudy",1,1600,"Include",328
"QGM2021_e1","QGM2021_e1_4",0,"LongStudy",3,1200,"Include",329
"QGM2021_e1","QGM2021_e1_4",1,"LongStudy",3,2550,"Include",330
"QGM2021_e1","QGM2021_e1_4",0,"LongStudy",5,1850,"Include",331
"QGM2021_e1","QGM2021_e1_4",0,"LongStudy",3,1750,"Include",332
"QGM2021_e1","QGM2021_e1_4",1,"LongStudy",6,450,"Include",333
"QGM2021_e1","QGM2021_e1_4",0,"LongStudy",2,750,"Include",334
"QGM2021_e1","QGM2021_e1_4",0,"LongStudy",3,2000,"Include",335
"QGM2021_e1","QGM2021_e1_4",1,"LongStudy",6,400,"Include",336
"QGM2021_e1","QGM2021_e1_4",0,"LongStudy",3,2850,"Include",337
"QGM2021_e1","QGM2021_e1_4",1,"LongStudy",5,950,"Include",338
"QGM2021_e1","QGM2021_e1_4",1,"LongStudy",3,2900,"Include",339
"QGM2021_e1","QGM2021_e1_4",1,"LongStudy",6,2250,"Include",340
"QGM2021_e1","QGM2021_e1_4",0,"LongStudy",3,2400,"Include",341
"QGM2021_e1","QGM2021_e1_4",0,"LongStudy",2,950,"Include",342
"QGM2021_e1","QGM2021_e1_4",1,"LongStudy",6,650,"Include",343
"QGM2021_e1","QGM2021_e1_4",0,"LongStudy",2,3100,"Include",344
"QGM2021_e1","QGM2021_e1_4",1,"LongStudy",6,900,"Include",345
"QGM2021_e1","QGM2021_e1_4",1,"LongStudy",6,500,"Include",346
"QGM2021_e1","QGM2021_e1_4",0,"LongStudy",4,1800,"Include",347
"QGM2021_e1","QGM2021_e1_4",1,"LongStudy",4,2500,"Include",348
"QGM2021_e1","QGM2021_e1_4",1,"LongStudy",5,950,"Include",349
"QGM2021_e1","QGM2021_e1_4",0,"LongStudy",2,1300,"Include",350
"QGM2021_e1","QGM2021_e1_4",0,"LongStudy",2,2567,"Include",351
"QGM2021_e1","QGM2021_e1_4",1,"LongStudy",5,900,"Include",352
"QGM2021_e1","QGM2021_e1_4",1,"LongStudy",6,400,"Include",353
"QGM2021_e1","QGM2021_e1_4",1,"LongStudy",6,550,"Include",354
"QGM2021_e1","QGM2021_e1_4",0,"LongStudy",4,950,"Include",355
"QGM2021_e1","QGM2021_e1_4",1,"LongStudy",2,1400,"Include",356
"QGM2021_e1","QGM2021_e1_4",0,"LongStudy",2,3450,"Include",357
"QGM2021_e1","QGM2021_e1_4",0,"LongStudy",5,3600,"Include",358
"QGM2021_e1","QGM2021_e1_4",1,"LongStudy",5,1400,"Include",359
"QGM2021_e1","QGM2021_e1_4",0,"LongStudy",5,1400,"Include",360
"QGM2021_e1","QGM2021_e1_5",1,"LongStudy",5,2317,"Include",1
"QGM2021_e1","QGM2021_e1_5",0,"LongStudy",4,2117,"Include",2
"QGM2021_e1","QGM2021_e1_5",1,"LongStudy",3,5867,"Include",3
"QGM2021_e1","QGM2021_e1_5",1,"LongStudy",6,1150,"Include",4
"QGM2021_e1","QGM2021_e1_5",0,"LongStudy",3,1850,"Include",5
"QGM2021_e1","QGM2021_e1_5",0,"LongStudy",4,2650,"Include",6
"QGM2021_e1","QGM2021_e1_5",1,"LongStudy",6,1050,"Include",7
"QGM2021_e1","QGM2021_e1_5",1,"LongStudy",6,1050,"Include",8
"QGM2021_e1","QGM2021_e1_5",0,"LongStudy",2,2250,"Include",9
"QGM2021_e1","QGM2021_e1_5",0,"LongStudy",2,3150,"Include",10
"QGM2021_e1","QGM2021_e1_5",0,"LongStudy",4,1900,"Include",11
"QGM2021_e1","QGM2021_e1_5",1,"LongStudy",4,1900,"Include",12
"QGM2021_e1","QGM2021_e1_5",1,"LongStudy",5,2800,"Include",13
"QGM2021_e1","QGM2021_e1_5",1,"LongStudy",6,1250,"Include",14
"QGM2021_e1","QGM2021_e1_5",0,"LongStudy",3,3017,"Include",15
"QGM2021_e1","QGM2021_e1_5",0,"LongStudy",4,1667,"Include",16
"QGM2021_e1","QGM2021_e1_5",0,"LongStudy",1,2200,"Include",17
"QGM2021_e1","QGM2021_e1_5",1,"LongStudy",6,1000,"Include",18
"QGM2021_e1","QGM2021_e1_5",0,"LongStudy",4,1950,"Include",19
"QGM2021_e1","QGM2021_e1_5",1,"LongStudy",6,1100,"Include",20
"QGM2021_e1","QGM2021_e1_5",0,"LongStudy",3,2117,"Include",21
"QGM2021_e1","QGM2021_e1_5",1,"LongStudy",4,1350,"Include",22
"QGM2021_e1","QGM2021_e1_5",0,"LongStudy",2,2100,"Include",23
"QGM2021_e1","QGM2021_e1_5",1,"LongStudy",6,1167,"Include",24
"QGM2021_e1","QGM2021_e1_5",0,"LongStudy",4,1250,"Include",25
"QGM2021_e1","QGM2021_e1_5",0,"LongStudy",3,1900,"Include",26
"QGM2021_e1","QGM2021_e1_5",0,"LongStudy",1,2617,"Include",27
"QGM2021_e1","QGM2021_e1_5",1,"LongStudy",4,2000,"Include",28
"QGM2021_e1","QGM2021_e1_5",1,"LongStudy",4,2250,"Include",29
"QGM2021_e1","QGM2021_e1_5",1,"LongStudy",6,750,"Include",30
"QGM2021_e1","QGM2021_e1_5",0,"LongStudy",4,1200,"Include",31
"QGM2021_e1","QGM2021_e1_5",0,"LongStudy",4,1350,"Include",32
"QGM2021_e1","QGM2021_e1_5",1,"LongStudy",6,850,"Include",33
"QGM2021_e1","QGM2021_e1_5",0,"LongStudy",4,1450,"Include",34
"QGM2021_e1","QGM2021_e1_5",0,"LongStudy",6,1450,"Include",35
"QGM2021_e1","QGM2021_e1_5",1,"LongStudy",6,800,"Include",36
"QGM2021_e1","QGM2021_e1_5",1,"LongStudy",6,750,"Include",37
"QGM2021_e1","QGM2021_e1_5",1,"LongStudy",6,750,"Include",38
"QGM2021_e1","QGM2021_e1_5",0,"LongStudy",2,1667,"Include",39
"QGM2021_e1","QGM2021_e1_5",1,"LongStudy",6,750,"Include",40
"QGM2021_e1","QGM2021_e1_5",1,"LongStudy",4,1300,"Include",41
"QGM2021_e1","QGM2021_e1_5",1,"LongStudy",6,850,"Include",42
"QGM2021_e1","QGM2021_e1_5",0,"LongStudy",4,1600,"Include",43
"QGM2021_e1","QGM2021_e1_5",1,"LongStudy",6,950,"Include",44
"QGM2021_e1","QGM2021_e1_5",0,"LongStudy",2,1800,"Include",45
"QGM2021_e1","QGM2021_e1_5",0,"LongStudy",4,1400,"Include",46
"QGM2021_e1","QGM2021_e1_5",1,"LongStudy",6,850,"Include",47
"QGM2021_e1","QGM2021_e1_5",0,"LongStudy",1,2250,"Include",48
"QGM2021_e1","QGM2021_e1_5",0,"LongStudy",4,1450,"Include",49
"QGM2021_e1","QGM2021_e1_5",1,"LongStudy",2,1200,"Include",50
"QGM2021_e1","QGM2021_e1_5",1,"LongStudy",6,700,"Include",51
"QGM2021_e1","QGM2021_e1_5",0,"LongStudy",1,1267,"Include",52
"QGM2021_e1","QGM2021_e1_5",1,"LongStudy",6,1100,"Include",53
"QGM2021_e1","QGM2021_e1_5",0,"LongStudy",4,900,"Include",54
"QGM2021_e1","QGM2021_e1_5",1,"LongStudy",6,1000,"Include",55
"QGM2021_e1","QGM2021_e1_5",0,"LongStudy",4,1050,"Include",56
"QGM2021_e1","QGM2021_e1_5",0,"LongStudy",2,750,"Include",57
"QGM2021_e1","QGM2021_e1_5",1,"LongStudy",6,450,"Include",58
"QGM2021_e1","QGM2021_e1_5",1,"LongStudy",4,600,"Include",59
"QGM2021_e1","QGM2021_e1_5",0,"LongStudy",2,900,"Include",60
"QGM2021_e1","QGM2021_e1_5",1,"LongStudy",6,500,"Include",61
"QGM2021_e1","QGM2021_e1_5",0,"LongStudy",4,650,"Include",62
"QGM2021_e1","QGM2021_e1_5",0,"LongStudy",5,517,"Include",63
"QGM2021_e1","QGM2021_e1_5",1,"LongStudy",6,500,"Include",64
"QGM2021_e1","QGM2021_e1_5",1,"LongStudy",6,450,"Include",65
"QGM2021_e1","QGM2021_e1_5",0,"LongStudy",6,600,"Include",66
"QGM2021_e1","QGM2021_e1_5",1,"LongStudy",6,500,"Include",67
"QGM2021_e1","QGM2021_e1_5",0,"LongStudy",2,700,"Include",68
"QGM2021_e1","QGM2021_e1_5",0,"LongStudy",1,651,"Include",69
"QGM2021_e1","QGM2021_e1_5",1,"LongStudy",6,400,"Include",70
"QGM2021_e1","QGM2021_e1_5",0,"LongStudy",6,450,"Include",71
"QGM2021_e1","QGM2021_e1_5",1,"LongStudy",2,750,"Include",72
"QGM2021_e1","QGM2021_e1_5",0,"LongStudy",2,617,"Include",73
"QGM2021_e1","QGM2021_e1_5",1,"LongStudy",6,450,"Include",74
"QGM2021_e1","QGM2021_e1_5",1,"LongStudy",6,467,"Include",75
"QGM2021_e1","QGM2021_e1_5",0,"LongStudy",2,750,"Include",76
"QGM2021_e1","QGM2021_e1_5",0,"LongStudy",6,550,"Include",77
"QGM2021_e1","QGM2021_e1_5",0,"LongStudy",4,600,"Include",78
"QGM2021_e1","QGM2021_e1_5",1,"LongStudy",6,600,"Include",79
"QGM2021_e1","QGM2021_e1_5",1,"LongStudy",6,400,"Include",80
"QGM2021_e1","QGM2021_e1_5",1,"LongStudy",6,600,"Include",81
"QGM2021_e1","QGM2021_e1_5",0,"LongStudy",2,700,"Include",82
"QGM2021_e1","QGM2021_e1_5",1,"LongStudy",6,500,"Include",83
"QGM2021_e1","QGM2021_e1_5",1,"LongStudy",6,650,"Include",84
"QGM2021_e1","QGM2021_e1_5",0,"LongStudy",2,550,"Include",85
"QGM2021_e1","QGM2021_e1_5",1,"LongStudy",2,950,"Include",86
"QGM2021_e1","QGM2021_e1_5",1,"LongStudy",6,450,"Include",87
"QGM2021_e1","QGM2021_e1_5",0,"LongStudy",6,500,"Include",88
"QGM2021_e1","QGM2021_e1_5",0,"LongStudy",2,550,"Include",89
"QGM2021_e1","QGM2021_e1_5",0,"LongStudy",2,500,"Include",90
"QGM2021_e1","QGM2021_e1_5",1,"LongStudy",6,450,"Include",91
"QGM2021_e1","QGM2021_e1_5",0,"LongStudy",6,550,"Include",92
"QGM2021_e1","QGM2021_e1_5",1,"LongStudy",6,400,"Include",93
"QGM2021_e1","QGM2021_e1_5",0,"LongStudy",4,500,"Include",94
"QGM2021_e1","QGM2021_e1_5",0,"LongStudy",2,650,"Include",95
"QGM2021_e1","QGM2021_e1_5",1,"LongStudy",6,200,"Include",96
"QGM2021_e1","QGM2021_e1_5",1,"LongStudy",6,400,"Include",97
"QGM2021_e1","QGM2021_e1_5",0,"LongStudy",6,250,"Include",98
"QGM2021_e1","QGM2021_e1_5",1,"LongStudy",6,300,"Include",99
"QGM2021_e1","QGM2021_e1_5",0,"LongStudy",2,650,"Include",100
"QGM2021_e1","QGM2021_e1_5",0,"LongStudy",6,500,"Include",101
"QGM2021_e1","QGM2021_e1_5",0,"LongStudy",2,450,"Include",102
"QGM2021_e1","QGM2021_e1_5",1,"LongStudy",6,450,"Include",103
"QGM2021_e1","QGM2021_e1_5",0,"LongStudy",6,300,"Include",104
"QGM2021_e1","QGM2021_e1_5",1,"LongStudy",6,600,"Include",105
"QGM2021_e1","QGM2021_e1_5",1,"LongStudy",2,500,"Include",106
"QGM2021_e1","QGM2021_e1_5",0,"LongStudy",4,550,"Include",107
"QGM2021_e1","QGM2021_e1_5",0,"LongStudy",3,1000,"Include",108
"QGM2021_e1","QGM2021_e1_5",1,"LongStudy",6,350,"Include",109
"QGM2021_e1","QGM2021_e1_5",1,"LongStudy",6,350,"Include",110
"QGM2021_e1","QGM2021_e1_5",0,"LongStudy",4,600,"Include",111
"QGM2021_e1","QGM2021_e1_5",0,"LongStudy",3,400,"Include",112
"QGM2021_e1","QGM2021_e1_5",0,"LongStudy",6,350,"Include",113
"QGM2021_e1","QGM2021_e1_5",1,"LongStudy",3,400,"Include",114
"QGM2021_e1","QGM2021_e1_5",1,"LongStudy",3,550,"Include",115
"QGM2021_e1","QGM2021_e1_5",0,"LongStudy",6,400,"Include",116
"QGM2021_e1","QGM2021_e1_5",1,"LongStudy",6,350,"Include",117
"QGM2021_e1","QGM2021_e1_5",0,"LongStudy",3,550,"Include",118
"QGM2021_e1","QGM2021_e1_5",1,"LongStudy",3,450,"Include",119
"QGM2021_e1","QGM2021_e1_5",1,"LongStudy",6,450,"Include",120
"QGM2021_e1","QGM2021_e1_5",0,"LongStudy",2,1000,"Include",121
"QGM2021_e1","QGM2021_e1_5",1,"LongStudy",6,750,"Include",122
"QGM2021_e1","QGM2021_e1_5",1,"LongStudy",2,950,"Include",123
"QGM2021_e1","QGM2021_e1_5",0,"LongStudy",6,650,"Include",124
"QGM2021_e1","QGM2021_e1_5",0,"LongStudy",2,700,"Include",125
"QGM2021_e1","QGM2021_e1_5",0,"LongStudy",3,950,"Include",126
"QGM2021_e1","QGM2021_e1_5",1,"LongStudy",6,450,"Include",127
"QGM2021_e1","QGM2021_e1_5",0,"LongStudy",3,550,"Include",128
"QGM2021_e1","QGM2021_e1_5",1,"LongStudy",6,600,"Include",129
"QGM2021_e1","QGM2021_e1_5",1,"LongStudy",6,450,"Include",130
"QGM2021_e1","QGM2021_e1_5",1,"LongStudy",3,1000,"Include",131
"QGM2021_e1","QGM2021_e1_5",0,"LongStudy",4,500,"Include",132
"QGM2021_e1","QGM2021_e1_5",1,"LongStudy",3,500,"Include",133
"QGM2021_e1","QGM2021_e1_5",1,"LongStudy",4,650,"Include",134
"QGM2021_e1","QGM2021_e1_5",0,"LongStudy",6,350,"Include",135
"QGM2021_e1","QGM2021_e1_5",1,"LongStudy",6,350,"Include",136
"QGM2021_e1","QGM2021_e1_5",0,"LongStudy",3,600,"Include",137
"QGM2021_e1","QGM2021_e1_5",1,"LongStudy",6,350,"Include",138
"QGM2021_e1","QGM2021_e1_5",0,"LongStudy",3,450,"Include",139
"QGM2021_e1","QGM2021_e1_5",0,"LongStudy",4,550,"Include",140
"QGM2021_e1","QGM2021_e1_5",0,"LongStudy",6,800,"Include",141
"QGM2021_e1","QGM2021_e1_5",1,"LongStudy",3,600,"Include",142
"QGM2021_e1","QGM2021_e1_5",0,"LongStudy",6,550,"Include",143
"QGM2021_e1","QGM2021_e1_5",1,"LongStudy",6,550,"Include",144
"QGM2021_e1","QGM2021_e1_5",0,"LongStudy",3,700,"Include",145
"QGM2021_e1","QGM2021_e1_5",1,"LongStudy",6,400,"Include",146
"QGM2021_e1","QGM2021_e1_5",1,"LongStudy",6,550,"Include",147
"QGM2021_e1","QGM2021_e1_5",0,"LongStudy",4,500,"Include",148
"QGM2021_e1","QGM2021_e1_5",1,"LongStudy",6,450,"Include",149
"QGM2021_e1","QGM2021_e1_5",0,"LongStudy",3,550,"Include",150
"QGM2021_e1","QGM2021_e1_5",1,"LongStudy",6,500,"Include",151
"QGM2021_e1","QGM2021_e1_5",1,"LongStudy",6,550,"Include",152
"QGM2021_e1","QGM2021_e1_5",0,"LongStudy",3,567,"Include",153
