"exp","id","block","trial","isold","condition1","rating","RT","excluding"
"RS2009_e1","RS2009_e1_1",1,1,1,"LowF",6,731,"Include"
"RS2009_e1","RS2009_e1_1",1,2,0,"LowF",1,1008,"Include"
"RS2009_e1","RS2009_e1_1",1,3,1,"HighF",6,617,"Include"
"RS2009_e1","RS2009_e1_1",1,4,1,"LowF",6,556,"Include"
"RS2009_e1","RS2009_e1_1",1,5,1,"LowF",6,564,"Include"
"RS2009_e1","RS2009_e1_1",1,6,0,"LowF",6,660,"Include"
"RS2009_e1","RS2009_e1_1",1,7,1,"HighF",6,703,"Include"
"RS2009_e1","RS2009_e1_1",1,8,1,"HighF",6,590,"Include"
"RS2009_e1","RS2009_e1_1",1,9,0,"LowF",1,625,"Include"
"RS2009_e1","RS2009_e1_1",1,10,1,"HighF",5,1374,"Include"
"RS2009_e1","RS2009_e1_1",1,11,0,"LowF",6,1070,"Include"
"RS2009_e1","RS2009_e1_1",1,12,0,"LowF",1,1626,"Include"
"RS2009_e1","RS2009_e1_1",1,13,0,"HighF",2,975,"Include"
"RS2009_e1","RS2009_e1_1",1,14,1,"HighF",2,748,"Include"
"RS2009_e1","RS2009_e1_1",1,15,0,"HighF",2,800,"Include"
"RS2009_e1","RS2009_e1_1",1,16,1,"LowF",6,895,"Include"
"RS2009_e1","RS2009_e1_1",1,17,0,"HighF",1,1921,"Include"
"RS2009_e1","RS2009_e1_1",1,18,0,"HighF",2,1635,"Include"
"RS2009_e1","RS2009_e1_1",1,19,0,"HighF",2,948,"Include"
"RS2009_e1","RS2009_e1_1",1,20,1,"HighF",6,887,"Include"
"RS2009_e1","RS2009_e1_1",1,21,0,"HighF",2,947,"Include"
"RS2009_e1","RS2009_e1_1",1,22,1,"LowF",2,835,"Include"
"RS2009_e1","RS2009_e1_1",1,23,1,"HighF",6,1009,"Include"
"RS2009_e1","RS2009_e1_1",1,24,1,"LowF",2,1712,"Include"
"RS2009_e1","RS2009_e1_1",1,25,1,"HighF",6,791,"Include"
"RS2009_e1","RS2009_e1_1",1,26,0,"LowF",1,887,"Include"
"RS2009_e1","RS2009_e1_1",1,27,0,"HighF",1,765,"Include"
"RS2009_e1","RS2009_e1_1",1,28,1,"HighF",6,817,"Include"
"RS2009_e1","RS2009_e1_1",1,29,0,"LowF",1,825,"Include"
"RS2009_e1","RS2009_e1_1",1,30,1,"LowF",6,774,"Include"
"RS2009_e1","RS2009_e1_1",1,31,0,"HighF",6,660,"Include"
"RS2009_e1","RS2009_e1_1",1,32,1,"HighF",6,703,"Include"
"RS2009_e1","RS2009_e1_1",1,33,1,"HighF",6,773,"Include"
"RS2009_e1","RS2009_e1_1",1,34,1,"LowF",6,556,"Include"
"RS2009_e1","RS2009_e1_1",1,35,1,"LowF",6,1069,"Include"
"RS2009_e1","RS2009_e1_1",1,36,0,"HighF",6,903,"Include"
"RS2009_e1","RS2009_e1_1",1,37,0,"HighF",1,755,"Include"
"RS2009_e1","RS2009_e1_1",1,38,1,"LowF",5,1312,"Include"
"RS2009_e1","RS2009_e1_1",1,39,0,"LowF",3,1504,"Include"
"RS2009_e1","RS2009_e1_1",1,40,0,"LowF",1,1705,"Include"
"RS2009_e1","RS2009_e1_1",1,41,0,"LowF",1,669,"Include"
"RS2009_e1","RS2009_e1_1",1,42,0,"LowF",5,1478,"Include"
"RS2009_e1","RS2009_e1_1",1,43,0,"HighF",5,1121,"Include"
"RS2009_e1","RS2009_e1_1",1,44,1,"LowF",6,800,"Include"
"RS2009_e1","RS2009_e1_1",1,45,0,"LowF",1,652,"Include"
"RS2009_e1","RS2009_e1_1",1,46,1,"LowF",1,764,"Include"
"RS2009_e1","RS2009_e1_1",1,47,0,"HighF",1,1304,"Include"
"RS2009_e1","RS2009_e1_1",1,48,1,"HighF",5,1609,"Include"
"RS2009_e1","RS2009_e1_1",2,49,0,"HighF",1,966,"Include"
"RS2009_e1","RS2009_e1_1",2,50,0,"LowF",6,643,"Include"
"RS2009_e1","RS2009_e1_1",2,51,1,"LowF",6,938,"Include"
"RS2009_e1","RS2009_e1_1",2,52,1,"HighF",6,1052,"Include"
"RS2009_e1","RS2009_e1_1",2,53,0,"LowF",2,1591,"Include"
"RS2009_e1","RS2009_e1_1",2,54,1,"HighF",6,853,"Include"
"RS2009_e1","RS2009_e1_1",2,55,0,"HighF",6,1008,"Include"
"RS2009_e1","RS2009_e1_1",2,56,1,"HighF",6,1235,"Include"
"RS2009_e1","RS2009_e1_1",2,57,0,"HighF",1,1382,"Include"
"RS2009_e1","RS2009_e1_1",2,58,1,"HighF",6,799,"Include"
"RS2009_e1","RS2009_e1_1",2,59,0,"HighF",4,2278,"Include"
"RS2009_e1","RS2009_e1_1",2,60,1,"LowF",6,826,"Include"
"RS2009_e1","RS2009_e1_1",2,61,0,"HighF",1,1321,"Include"
"RS2009_e1","RS2009_e1_1",2,62,0,"LowF",1,870,"Include"
"RS2009_e1","RS2009_e1_1",2,63,1,"LowF",5,1209,"Include"
"RS2009_e1","RS2009_e1_1",2,64,1,"LowF",5,714,"Include"
"RS2009_e1","RS2009_e1_1",2,65,0,"LowF",2,1104,"Include"
"RS2009_e1","RS2009_e1_1",2,66,0,"LowF",2,948,"Include"
"RS2009_e1","RS2009_e1_1",2,67,1,"LowF",2,1278,"Include"
"RS2009_e1","RS2009_e1_1",2,68,1,"HighF",6,912,"Include"
"RS2009_e1","RS2009_e1_1",2,69,0,"HighF",1,920,"Include"
"RS2009_e1","RS2009_e1_1",2,70,1,"HighF",6,695,"Include"
"RS2009_e1","RS2009_e1_1",2,71,1,"LowF",6,729,"Include"
"RS2009_e1","RS2009_e1_1",2,72,1,"LowF",6,598,"Include"
"RS2009_e1","RS2009_e1_1",2,73,0,"HighF",1,634,"Include"
"RS2009_e1","RS2009_e1_1",2,74,1,"HighF",6,765,"Include"
"RS2009_e1","RS2009_e1_1",2,75,1,"LowF",6,573,"Include"
"RS2009_e1","RS2009_e1_1",2,76,1,"HighF",1,764,"Include"
"RS2009_e1","RS2009_e1_1",2,77,1,"LowF",6,547,"Include"
"RS2009_e1","RS2009_e1_1",2,78,0,"LowF",1,668,"Include"
"RS2009_e1","RS2009_e1_1",2,79,0,"LowF",5,799,"Include"
"RS2009_e1","RS2009_e1_1",2,80,0,"HighF",2,937,"Include"
"RS2009_e1","RS2009_e1_1",2,81,0,"HighF",1,791,"Include"
"RS2009_e1","RS2009_e1_1",2,82,1,"HighF",2,749,"Include"
"RS2009_e1","RS2009_e1_1",2,83,1,"HighF",1,808,"Include"
"RS2009_e1","RS2009_e1_1",2,84,0,"HighF",5,782,"Include"
"RS2009_e1","RS2009_e1_1",2,85,1,"HighF",6,738,"Include"
"RS2009_e1","RS2009_e1_1",2,86,0,"LowF",5,912,"Include"
"RS2009_e1","RS2009_e1_1",2,87,1,"LowF",2,651,"Include"
"RS2009_e1","RS2009_e1_1",2,88,1,"HighF",6,816,"Include"
"RS2009_e1","RS2009_e1_1",2,89,0,"LowF",1,1445,"Include"
"RS2009_e1","RS2009_e1_1",2,90,0,"HighF",1,905,"Include"
"RS2009_e1","RS2009_e1_1",2,91,0,"LowF",1,853,"Include"
"RS2009_e1","RS2009_e1_1",2,92,1,"LowF",6,801,"Include"
"RS2009_e1","RS2009_e1_1",2,93,0,"LowF",5,869,"Include"
"RS2009_e1","RS2009_e1_1",2,94,0,"LowF",5,834,"Include"
"RS2009_e1","RS2009_e1_1",2,95,1,"LowF",4,3295,"Include"
"RS2009_e1","RS2009_e1_1",2,96,0,"HighF",1,1148,"Include"
"RS2009_e1","RS2009_e1_1",3,97,1,"HighF",6,651,"Include"
"RS2009_e1","RS2009_e1_1",3,98,1,"HighF",6,686,"Include"
"RS2009_e1","RS2009_e1_1",3,99,0,"LowF",2,1469,"Include"
"RS2009_e1","RS2009_e1_1",3,100,0,"LowF",2,1052,"Include"
"RS2009_e1","RS2009_e1_1",3,101,1,"LowF",2,1113,"Include"
"RS2009_e1","RS2009_e1_1",3,102,0,"HighF",2,964,"Include"
"RS2009_e1","RS2009_e1_1",3,103,0,"LowF",2,1157,"Include"
"RS2009_e1","RS2009_e1_1",3,104,0,"HighF",2,1087,"Include"
"RS2009_e1","RS2009_e1_1",3,105,0,"LowF",2,973,"Include"
"RS2009_e1","RS2009_e1_1",3,106,1,"LowF",5,635,"Include"
"RS2009_e1","RS2009_e1_1",3,107,0,"LowF",2,878,"Include"
"RS2009_e1","RS2009_e1_1",3,108,0,"HighF",1,1087,"Include"
"RS2009_e1","RS2009_e1_1",3,109,0,"HighF",1,627,"Include"
"RS2009_e1","RS2009_e1_1",3,110,0,"LowF",1,591,"Include"
"RS2009_e1","RS2009_e1_1",3,111,0,"LowF",5,966,"Include"
"RS2009_e1","RS2009_e1_1",3,112,1,"LowF",5,964,"Include"
"RS2009_e1","RS2009_e1_1",3,113,0,"HighF",2,973,"Include"
"RS2009_e1","RS2009_e1_1",3,114,0,"HighF",5,1052,"Include"
"RS2009_e1","RS2009_e1_1",3,115,1,"LowF",5,731,"Include"
"RS2009_e1","RS2009_e1_1",3,116,1,"HighF",5,625,"Include"
"RS2009_e1","RS2009_e1_1",3,117,0,"HighF",1,887,"Include"
"RS2009_e1","RS2009_e1_1",3,118,0,"HighF",1,845,"Include"
"RS2009_e1","RS2009_e1_1",3,119,1,"LowF",5,791,"Include"
"RS2009_e1","RS2009_e1_1",3,120,1,"HighF",5,844,"Include"
"RS2009_e1","RS2009_e1_1",3,121,1,"HighF",5,791,"Include"
"RS2009_e1","RS2009_e1_1",3,122,1,"HighF",6,721,"Include"
"RS2009_e1","RS2009_e1_1",3,123,0,"HighF",1,886,"Include"
"RS2009_e1","RS2009_e1_1",3,124,1,"LowF",1,1548,"Include"
"RS2009_e1","RS2009_e1_1",3,125,1,"HighF",1,835,"Include"
"RS2009_e1","RS2009_e1_1",3,126,1,"HighF",6,966,"Include"
"RS2009_e1","RS2009_e1_1",3,127,0,"HighF",1,1530,"Include"
"RS2009_e1","RS2009_e1_1",3,128,0,"HighF",5,1609,"Include"
"RS2009_e1","RS2009_e1_1",3,129,1,"LowF",5,686,"Include"
"RS2009_e1","RS2009_e1_1",3,130,0,"LowF",1,1139,"Include"
"RS2009_e1","RS2009_e1_1",3,131,1,"HighF",1,660,"Include"
"RS2009_e1","RS2009_e1_1",3,132,0,"HighF",2,721,"Include"
"RS2009_e1","RS2009_e1_1",3,133,0,"LowF",2,712,"Include"
"RS2009_e1","RS2009_e1_1",3,134,0,"LowF",2,695,"Include"
"RS2009_e1","RS2009_e1_1",3,135,1,"LowF",5,643,"Include"
"RS2009_e1","RS2009_e1_1",3,136,1,"HighF",5,948,"Include"
"RS2009_e1","RS2009_e1_1",3,137,0,"LowF",1,1078,"Include"
"RS2009_e1","RS2009_e1_1",3,138,1,"HighF",6,930,"Include"
"RS2009_e1","RS2009_e1_1",3,139,1,"LowF",6,843,"Include"
"RS2009_e1","RS2009_e1_1",3,140,1,"LowF",6,1130,"Include"
"RS2009_e1","RS2009_e1_1",3,141,1,"LowF",1,1522,"Include"
"RS2009_e1","RS2009_e1_1",3,142,0,"LowF",5,2191,"Include"
"RS2009_e1","RS2009_e1_1",3,143,1,"LowF",5,869,"Include"
"RS2009_e1","RS2009_e1_1",3,144,1,"HighF",6,991,"Include"
"RS2009_e1","RS2009_e1_1",4,145,0,"HighF",1,954,"Include"
"RS2009_e1","RS2009_e1_1",4,146,1,"HighF",6,905,"Include"
"RS2009_e1","RS2009_e1_1",4,147,1,"LowF",5,1096,"Include"
"RS2009_e1","RS2009_e1_1",4,148,0,"LowF",2,1017,"Include"
"RS2009_e1","RS2009_e1_1",4,149,1,"HighF",5,983,"Include"
"RS2009_e1","RS2009_e1_1",4,150,0,"HighF",3,2584,"Include"
"RS2009_e1","RS2009_e1_1",4,151,0,"LowF",3,1026,"Include"
"RS2009_e1","RS2009_e1_1",4,152,0,"HighF",1,757,"Include"
"RS2009_e1","RS2009_e1_1",4,153,0,"LowF",1,1130,"Include"
"RS2009_e1","RS2009_e1_1",4,154,0,"LowF",1,679,"Include"
"RS2009_e1","RS2009_e1_1",4,155,0,"HighF",2,879,"Include"
"RS2009_e1","RS2009_e1_1",4,156,0,"LowF",2,869,"Include"
"RS2009_e1","RS2009_e1_1",4,157,0,"HighF",2,939,"Include"
"RS2009_e1","RS2009_e1_1",4,158,0,"LowF",2,861,"Include"
"RS2009_e1","RS2009_e1_1",4,159,0,"LowF",2,843,"Include"
"RS2009_e1","RS2009_e1_1",4,160,0,"LowF",1,905,"Include"
"RS2009_e1","RS2009_e1_1",4,161,1,"LowF",1,862,"Include"
"RS2009_e1","RS2009_e1_1",4,162,1,"HighF",2,922,"Include"
"RS2009_e1","RS2009_e1_1",4,163,1,"LowF",5,616,"Include"
"RS2009_e1","RS2009_e1_1",4,164,1,"HighF",5,670,"Include"
"RS2009_e1","RS2009_e1_1",4,165,1,"LowF",5,582,"Include"
"RS2009_e1","RS2009_e1_1",4,166,0,"HighF",1,965,"Include"
"RS2009_e1","RS2009_e1_1",4,167,1,"LowF",6,617,"Include"
"RS2009_e1","RS2009_e1_1",4,168,1,"LowF",6,635,"Include"
"RS2009_e1","RS2009_e1_1",4,169,0,"HighF",1,894,"Include"
"RS2009_e1","RS2009_e1_1",4,170,1,"HighF",6,748,"Include"
"RS2009_e1","RS2009_e1_1",4,171,0,"LowF",1,592,"Include"
"RS2009_e1","RS2009_e1_1",4,172,1,"HighF",1,704,"Include"
"RS2009_e1","RS2009_e1_1",4,173,0,"HighF",1,782,"Include"
"RS2009_e1","RS2009_e1_1",4,174,0,"LowF",2,697,"Include"
"RS2009_e1","RS2009_e1_1",4,175,1,"LowF",2,852,"Include"
"RS2009_e1","RS2009_e1_1",4,176,1,"HighF",2,781,"Include"
"RS2009_e1","RS2009_e1_1",4,177,0,"HighF",2,651,"Include"
"RS2009_e1","RS2009_e1_1",4,178,0,"HighF",2,704,"Include"
"RS2009_e1","RS2009_e1_1",4,179,1,"HighF",2,521,"Include"
"RS2009_e1","RS2009_e1_1",4,180,1,"LowF",5,798,"Include"
"RS2009_e1","RS2009_e1_1",4,181,1,"LowF",5,563,"Include"
"RS2009_e1","RS2009_e1_1",4,182,0,"HighF",1,816,"Include"
"RS2009_e1","RS2009_e1_1",4,183,1,"HighF",5,591,"Include"
"RS2009_e1","RS2009_e1_1",4,184,1,"HighF",6,835,"Include"
"RS2009_e1","RS2009_e1_1",4,185,0,"LowF",1,860,"Include"
"RS2009_e1","RS2009_e1_1",4,186,0,"LowF",1,601,"Include"
"RS2009_e1","RS2009_e1_1",4,187,0,"HighF",2,1070,"Include"
"RS2009_e1","RS2009_e1_1",4,188,1,"LowF",1,634,"Include"
"RS2009_e1","RS2009_e1_1",4,189,1,"HighF",5,723,"Include"
"RS2009_e1","RS2009_e1_1",4,190,1,"LowF",5,547,"Include"
"RS2009_e1","RS2009_e1_1",4,191,1,"LowF",5,712,"Include"
"RS2009_e1","RS2009_e1_1",4,192,1,"HighF",5,590,"Include"
"RS2009_e1","RS2009_e1_1",5,193,1,"HighF",2,1467,"Include"
"RS2009_e1","RS2009_e1_1",5,194,1,"LowF",5,625,"Include"
"RS2009_e1","RS2009_e1_1",5,195,0,"LowF",1,904,"Include"
"RS2009_e1","RS2009_e1_1",5,196,0,"LowF",1,731,"Include"
"RS2009_e1","RS2009_e1_1",5,197,0,"LowF",5,707,"Include"
"RS2009_e1","RS2009_e1_1",5,198,1,"HighF",5,677,"Include"
"RS2009_e1","RS2009_e1_1",5,199,1,"LowF",1,929,"Include"
"RS2009_e1","RS2009_e1_1",5,200,1,"LowF",5,609,"Include"
"RS2009_e1","RS2009_e1_1",5,201,1,"HighF",5,582,"Include"
"RS2009_e1","RS2009_e1_1",5,202,1,"LowF",5,565,"Include"
"RS2009_e1","RS2009_e1_1",5,203,0,"LowF",1,739,"Include"
"RS2009_e1","RS2009_e1_1",5,204,0,"HighF",2,1000,"Include"
"RS2009_e1","RS2009_e1_1",5,205,0,"HighF",2,1114,"Include"
"RS2009_e1","RS2009_e1_1",5,206,0,"LowF",2,765,"Include"
"RS2009_e1","RS2009_e1_1",5,207,1,"HighF",5,635,"Include"
"RS2009_e1","RS2009_e1_1",5,208,0,"LowF",2,809,"Include"
"RS2009_e1","RS2009_e1_1",5,209,1,"LowF",5,574,"Include"
"RS2009_e1","RS2009_e1_1",5,210,1,"HighF",5,583,"Include"
"RS2009_e1","RS2009_e1_1",5,211,1,"LowF",5,704,"Include"
"RS2009_e1","RS2009_e1_1",5,212,0,"LowF",2,703,"Include"
"RS2009_e1","RS2009_e1_1",5,213,1,"HighF",5,756,"Include"
"RS2009_e1","RS2009_e1_1",5,214,0,"HighF",2,722,"Include"
"RS2009_e1","RS2009_e1_1",5,215,0,"HighF",2,852,"Include"
"RS2009_e1","RS2009_e1_1",5,216,1,"LowF",6,852,"Include"
"RS2009_e1","RS2009_e1_1",5,217,0,"LowF",2,669,"Include"
"RS2009_e1","RS2009_e1_1",5,218,0,"LowF",6,504,"Include"
"RS2009_e1","RS2009_e1_1",5,219,0,"HighF",5,721,"Include"
"RS2009_e1","RS2009_e1_1",5,220,0,"LowF",2,737,"Include"
"RS2009_e1","RS2009_e1_1",5,221,1,"LowF",2,747,"Include"
"RS2009_e1","RS2009_e1_1",5,222,1,"LowF",5,616,"Include"
"RS2009_e1","RS2009_e1_1",5,223,1,"HighF",6,686,"Include"
"RS2009_e1","RS2009_e1_1",5,224,1,"LowF",2,991,"Include"
"RS2009_e1","RS2009_e1_1",5,225,1,"LowF",2,876,"Include"
"RS2009_e1","RS2009_e1_1",5,226,1,"HighF",5,522,"Include"
"RS2009_e1","RS2009_e1_1",5,227,1,"HighF",5,572,"Include"
"RS2009_e1","RS2009_e1_1",5,228,1,"HighF",5,703,"Include"
"RS2009_e1","RS2009_e1_1",5,229,0,"HighF",6,704,"Include"
"RS2009_e1","RS2009_e1_1",5,230,0,"HighF",6,623,"Include"
"RS2009_e1","RS2009_e1_1",5,231,0,"HighF",2,729,"Include"
"RS2009_e1","RS2009_e1_1",5,232,0,"HighF",2,599,"Include"
"RS2009_e1","RS2009_e1_1",5,233,1,"HighF",5,713,"Include"
"RS2009_e1","RS2009_e1_1",5,234,0,"HighF",2,816,"Include"
"RS2009_e1","RS2009_e1_1",5,235,0,"HighF",5,730,"Include"
"RS2009_e1","RS2009_e1_1",5,236,1,"HighF",5,642,"Include"
"RS2009_e1","RS2009_e1_1",5,237,0,"LowF",2,1243,"Include"
"RS2009_e1","RS2009_e1_1",5,238,0,"HighF",1,1324,"Include"
"RS2009_e1","RS2009_e1_1",5,239,1,"LowF",6,922,"Include"
"RS2009_e1","RS2009_e1_1",5,240,0,"LowF",2,748,"Include"
"RS2009_e1","RS2009_e1_1",6,241,0,"HighF",1,789,"Include"
"RS2009_e1","RS2009_e1_1",6,242,1,"LowF",6,565,"Include"
"RS2009_e1","RS2009_e1_1",6,243,0,"LowF",2,739,"Include"
"RS2009_e1","RS2009_e1_1",6,244,0,"HighF",1,921,"Include"
"RS2009_e1","RS2009_e1_1",6,245,0,"LowF",1,947,"Include"
"RS2009_e1","RS2009_e1_1",6,246,0,"HighF",1,723,"Include"
"RS2009_e1","RS2009_e1_1",6,247,1,"HighF",2,1035,"Include"
"RS2009_e1","RS2009_e1_1",6,248,1,"HighF",2,861,"Include"
"RS2009_e1","RS2009_e1_1",6,249,1,"HighF",6,807,"Include"
"RS2009_e1","RS2009_e1_1",6,250,1,"HighF",2,809,"Include"
"RS2009_e1","RS2009_e1_1",6,251,1,"LowF",2,1608,"Include"
"RS2009_e1","RS2009_e1_1",6,252,1,"HighF",5,521,"Include"
"RS2009_e1","RS2009_e1_1",6,253,0,"LowF",5,618,"Include"
"RS2009_e1","RS2009_e1_1",6,254,0,"HighF",2,670,"Include"
"RS2009_e1","RS2009_e1_1",6,255,0,"LowF",2,1035,"Include"
"RS2009_e1","RS2009_e1_1",6,256,0,"LowF",3,1131,"Include"
"RS2009_e1","RS2009_e1_1",6,257,1,"HighF",3,1365,"Include"
"RS2009_e1","RS2009_e1_1",6,258,1,"LowF",5,582,"Include"
"RS2009_e1","RS2009_e1_1",6,259,0,"HighF",5,696,"Include"
"RS2009_e1","RS2009_e1_1",6,260,0,"LowF",2,817,"Include"
"RS2009_e1","RS2009_e1_1",6,261,0,"LowF",3,860,"Include"
"RS2009_e1","RS2009_e1_1",6,262,1,"HighF",2,1026,"Include"
"RS2009_e1","RS2009_e1_1",6,263,1,"LowF",5,554,"Include"
"RS2009_e1","RS2009_e1_1",6,264,1,"LowF",5,642,"Include"
"RS2009_e1","RS2009_e1_1",6,265,0,"LowF",2,798,"Include"
"RS2009_e1","RS2009_e1_1",6,266,1,"LowF",5,860,"Include"
"RS2009_e1","RS2009_e1_1",6,267,1,"LowF",2,852,"Include"
"RS2009_e1","RS2009_e1_1",6,268,1,"LowF",4,1181,"Include"
"RS2009_e1","RS2009_e1_1",6,269,0,"HighF",3,1095,"Include"
"RS2009_e1","RS2009_e1_1",6,270,0,"LowF",3,903,"Include"
"RS2009_e1","RS2009_e1_1",6,271,0,"HighF",1,1088,"Include"
"RS2009_e1","RS2009_e1_1",6,272,0,"HighF",2,869,"Include"
"RS2009_e1","RS2009_e1_1",6,273,0,"HighF",1,1156,"Include"
"RS2009_e1","RS2009_e1_1",6,274,0,"HighF",5,818,"Include"
"RS2009_e1","RS2009_e1_1",6,275,1,"HighF",5,843,"Include"
"RS2009_e1","RS2009_e1_1",6,276,0,"HighF",2,938,"Include"
"RS2009_e1","RS2009_e1_1",6,277,1,"HighF",3,1295,"Include"
"RS2009_e1","RS2009_e1_1",6,278,1,"LowF",4,661,"Include"
"RS2009_e1","RS2009_e1_1",6,279,0,"LowF",1,895,"Include"
"RS2009_e1","RS2009_e1_1",6,280,1,"HighF",6,887,"Include"
"RS2009_e1","RS2009_e1_1",6,281,1,"LowF",4,991,"Include"
"RS2009_e1","RS2009_e1_1",6,282,0,"LowF",1,955,"Include"
"RS2009_e1","RS2009_e1_1",6,283,1,"LowF",1,861,"Include"
"RS2009_e1","RS2009_e1_1",6,284,1,"LowF",5,677,"Include"
"RS2009_e1","RS2009_e1_1",6,285,1,"HighF",5,834,"Include"
"RS2009_e1","RS2009_e1_1",6,286,0,"LowF",5,1218,"Include"
"RS2009_e1","RS2009_e1_1",6,287,1,"HighF",6,1026,"Include"
"RS2009_e1","RS2009_e1_1",6,288,0,"HighF",1,921,"Include"
"RS2009_e1","RS2009_e1_1",7,289,1,"LowF",6,815,"Include"
"RS2009_e1","RS2009_e1_1",7,290,1,"LowF",1,1078,"Include"
"RS2009_e1","RS2009_e1_1",7,291,0,"LowF",2,774,"Include"
"RS2009_e1","RS2009_e1_1",7,292,0,"HighF",2,1060,"Include"
"RS2009_e1","RS2009_e1_1",7,293,1,"HighF",6,877,"Include"
"RS2009_e1","RS2009_e1_1",7,294,1,"LowF",6,651,"Include"
"RS2009_e1","RS2009_e1_1",7,295,0,"LowF",2,799,"Include"
"RS2009_e1","RS2009_e1_1",7,296,1,"HighF",6,929,"Include"
"RS2009_e1","RS2009_e1_1",7,297,0,"HighF",1,965,"Include"
"RS2009_e1","RS2009_e1_1",7,298,0,"LowF",1,808,"Include"
"RS2009_e1","RS2009_e1_1",7,299,0,"HighF",1,852,"Include"
"RS2009_e1","RS2009_e1_1",7,300,1,"LowF",2,1191,"Include"
"RS2009_e1","RS2009_e1_1",7,301,0,"HighF",3,1477,"Include"
"RS2009_e1","RS2009_e1_1",7,302,0,"LowF",3,1036,"Include"
"RS2009_e1","RS2009_e1_1",7,303,0,"LowF",5,1199,"Include"
"RS2009_e1","RS2009_e1_1",7,304,0,"HighF",1,895,"Include"
"RS2009_e1","RS2009_e1_1",7,305,0,"LowF",1,799,"Include"
"RS2009_e1","RS2009_e1_1",7,306,0,"LowF",1,695,"Include"
"RS2009_e1","RS2009_e1_1",7,307,0,"LowF",4,1365,"Include"
"RS2009_e1","RS2009_e1_1",7,308,0,"LowF",1,895,"Include"
"RS2009_e1","RS2009_e1_1",7,309,1,"HighF",5,920,"Include"
"RS2009_e1","RS2009_e1_1",7,310,1,"LowF",2,1026,"Include"
"RS2009_e1","RS2009_e1_1",7,311,1,"HighF",6,711,"Include"
"RS2009_e1","RS2009_e1_1",7,312,1,"HighF",6,826,"Include"
"RS2009_e1","RS2009_e1_1",7,313,1,"HighF",5,904,"Include"
"RS2009_e1","RS2009_e1_1",7,314,1,"LowF",5,712,"Include"
"RS2009_e1","RS2009_e1_1",7,315,1,"HighF",5,1069,"Include"
"RS2009_e1","RS2009_e1_1",7,316,0,"HighF",2,712,"Include"
"RS2009_e1","RS2009_e1_1",7,317,1,"LowF",2,739,"Include"
"RS2009_e1","RS2009_e1_1",7,318,0,"LowF",2,546,"Include"
"RS2009_e1","RS2009_e1_1",7,319,0,"LowF",1,477,"Include"
"RS2009_e1","RS2009_e1_1",7,320,1,"HighF",5,546,"Include"
"RS2009_e1","RS2009_e1_1",7,321,0,"HighF",2,1060,"Include"
"RS2009_e1","RS2009_e1_1",7,322,1,"HighF",6,1217,"Include"
"RS2009_e1","RS2009_e1_1",7,323,1,"LowF",5,598,"Include"
"RS2009_e1","RS2009_e1_1",7,324,1,"LowF",4,573,"Include"
"RS2009_e1","RS2009_e1_1",7,325,1,"HighF",5,998,"Include"
"RS2009_e1","RS2009_e1_1",7,326,0,"HighF",2,679,"Include"
"RS2009_e1","RS2009_e1_1",7,327,1,"LowF",5,547,"Include"
"RS2009_e1","RS2009_e1_1",7,328,0,"HighF",6,852,"Include"
"RS2009_e1","RS2009_e1_1",7,329,1,"LowF",5,730,"Include"
"RS2009_e1","RS2009_e1_1",7,330,0,"LowF",5,678,"Include"
"RS2009_e1","RS2009_e1_1",7,331,0,"HighF",2,729,"Include"
"RS2009_e1","RS2009_e1_1",7,332,1,"HighF",1,719,"Include"
"RS2009_e1","RS2009_e1_1",7,333,0,"HighF",1,694,"Include"
"RS2009_e1","RS2009_e1_1",7,334,1,"LowF",3,922,"Include"
"RS2009_e1","RS2009_e1_1",7,335,1,"HighF",6,946,"Include"
"RS2009_e1","RS2009_e1_1",7,336,0,"HighF",2,1068,"Include"
"RS2009_e1","RS2009_e1_1",8,337,0,"HighF",1,946,"Include"
"RS2009_e1","RS2009_e1_1",8,338,0,"HighF",2,722,"Include"
"RS2009_e1","RS2009_e1_1",8,339,1,"HighF",2,660,"Include"
"RS2009_e1","RS2009_e1_1",8,340,0,"HighF",5,634,"Include"
"RS2009_e1","RS2009_e1_1",8,341,1,"LowF",1,807,"Include"
"RS2009_e1","RS2009_e1_1",8,342,1,"HighF",5,617,"Include"
"RS2009_e1","RS2009_e1_1",8,343,0,"LowF",5,555,"Include"
"RS2009_e1","RS2009_e1_1",8,344,1,"LowF",2,938,"Include"
"RS2009_e1","RS2009_e1_1",8,345,1,"LowF",4,702,"Include"
"RS2009_e1","RS2009_e1_1",8,346,1,"HighF",6,877,"Include"
"RS2009_e1","RS2009_e1_1",8,347,1,"LowF",4,800,"Include"
"RS2009_e1","RS2009_e1_1",8,348,1,"HighF",6,695,"Include"
"RS2009_e1","RS2009_e1_1",8,349,0,"LowF",3,1077,"Include"
"RS2009_e1","RS2009_e1_1",8,350,0,"LowF",2,774,"Include"
"RS2009_e1","RS2009_e1_1",8,351,0,"HighF",2,930,"Include"
"RS2009_e1","RS2009_e1_1",8,352,1,"LowF",3,774,"Include"
"RS2009_e1","RS2009_e1_1",8,353,1,"HighF",4,643,"Include"
"RS2009_e1","RS2009_e1_1",8,354,1,"LowF",4,877,"Include"
"RS2009_e1","RS2009_e1_1",8,355,1,"HighF",6,833,"Include"
"RS2009_e1","RS2009_e1_1",8,356,1,"LowF",1,1068,"Include"
"RS2009_e1","RS2009_e1_1",8,357,1,"HighF",5,590,"Include"
"RS2009_e1","RS2009_e1_1",8,358,1,"LowF",4,843,"Include"
"RS2009_e1","RS2009_e1_1",8,359,0,"LowF",3,860,"Include"
"RS2009_e1","RS2009_e1_1",8,360,0,"LowF",2,563,"Include"
"RS2009_e1","RS2009_e1_1",8,361,1,"LowF",2,765,"Include"
"RS2009_e1","RS2009_e1_1",8,362,0,"LowF",3,799,"Include"
"RS2009_e1","RS2009_e1_1",8,363,0,"HighF",4,895,"Include"
"RS2009_e1","RS2009_e1_1",8,364,0,"LowF",4,2911,"Include"
"RS2009_e1","RS2009_e1_1",8,365,0,"HighF",1,781,"Include"
"RS2009_e1","RS2009_e1_1",8,366,0,"LowF",1,566,"Include"
"RS2009_e1","RS2009_e1_1",8,367,1,"LowF",2,565,"Include"
"RS2009_e1","RS2009_e1_1",8,368,1,"HighF",5,781,"Include"
"RS2009_e1","RS2009_e1_1",8,369,0,"LowF",4,599,"Include"
"RS2009_e1","RS2009_e1_1",8,370,0,"HighF",1,720,"Include"
"RS2009_e1","RS2009_e1_1",8,371,0,"HighF",1,896,"Include"
"RS2009_e1","RS2009_e1_1",8,372,0,"HighF",3,1460,"Include"
"RS2009_e1","RS2009_e1_1",8,373,0,"HighF",3,1531,"Include"
"RS2009_e1","RS2009_e1_1",8,374,0,"LowF",6,1139,"Include"
"RS2009_e1","RS2009_e1_1",8,375,1,"HighF",3,800,"Include"
"RS2009_e1","RS2009_e1_1",8,376,0,"LowF",1,1895,"Include"
"RS2009_e1","RS2009_e1_1",8,377,1,"HighF",4,1574,"Include"
"RS2009_e1","RS2009_e1_1",8,378,0,"HighF",3,1192,"Include"
"RS2009_e1","RS2009_e1_1",8,379,1,"LowF",6,878,"Include"
"RS2009_e1","RS2009_e1_1",8,380,1,"LowF",4,1348,"Include"
"RS2009_e1","RS2009_e1_1",8,381,1,"HighF",4,905,"Include"
"RS2009_e1","RS2009_e1_1",8,382,0,"HighF",1,887,"Include"
"RS2009_e1","RS2009_e1_1",8,383,1,"HighF",3,1244,"Include"
"RS2009_e1","RS2009_e1_1",8,384,0,"LowF",3,993,"Include"
"RS2009_e1","RS2009_e1_1",9,385,1,"HighF",6,632,"Include"
"RS2009_e1","RS2009_e1_1",9,386,1,"HighF",6,546,"Include"
"RS2009_e1","RS2009_e1_1",9,387,1,"LowF",6,633,"Include"
"RS2009_e1","RS2009_e1_1",9,388,0,"HighF",1,763,"Include"
"RS2009_e1","RS2009_e1_1",9,389,1,"HighF",6,739,"Include"
"RS2009_e1","RS2009_e1_1",9,390,1,"HighF",6,722,"Include"
"RS2009_e1","RS2009_e1_1",9,391,0,"LowF",6,652,"Include"
"RS2009_e1","RS2009_e1_1",9,392,0,"HighF",1,850,"Include"
"RS2009_e1","RS2009_e1_1",9,393,1,"LowF",2,722,"Include"
"RS2009_e1","RS2009_e1_1",9,394,0,"LowF",2,904,"Include"
"RS2009_e1","RS2009_e1_1",9,395,0,"HighF",2,731,"Include"
"RS2009_e1","RS2009_e1_1",9,396,0,"LowF",5,1243,"Include"
"RS2009_e1","RS2009_e1_1",9,397,1,"HighF",5,721,"Include"
"RS2009_e1","RS2009_e1_1",9,398,1,"HighF",6,798,"Include"
"RS2009_e1","RS2009_e1_1",9,399,0,"LowF",5,929,"Include"
"RS2009_e1","RS2009_e1_1",9,400,0,"HighF",2,756,"Include"
"RS2009_e1","RS2009_e1_1",9,401,1,"LowF",2,773,"Include"
"RS2009_e1","RS2009_e1_1",9,402,1,"HighF",6,886,"Include"
"RS2009_e1","RS2009_e1_1",9,403,0,"HighF",6,635,"Include"
"RS2009_e1","RS2009_e1_1",9,404,0,"LowF",1,990,"Include"
"RS2009_e1","RS2009_e1_1",9,405,1,"LowF",2,445,"Include"
"RS2009_e1","RS2009_e1_1",9,406,0,"HighF",2,1460,"Include"
"RS2009_e1","RS2009_e1_1",9,407,0,"HighF",2,772,"Include"
"RS2009_e1","RS2009_e1_1",9,408,0,"LowF",2,808,"Include"
"RS2009_e1","RS2009_e1_1",9,409,0,"HighF",4,948,"Include"
"RS2009_e1","RS2009_e1_1",9,410,1,"HighF",6,904,"Include"
"RS2009_e1","RS2009_e1_1",9,411,0,"LowF",6,904,"Include"
"RS2009_e1","RS2009_e1_1",9,412,0,"LowF",4,1555,"Include"
"RS2009_e1","RS2009_e1_1",9,413,0,"LowF",2,955,"Include"
"RS2009_e1","RS2009_e1_1",9,414,0,"HighF",1,1043,"Include"
"RS2009_e1","RS2009_e1_1",9,415,1,"LowF",3,1166,"Include"
"RS2009_e1","RS2009_e1_1",9,416,1,"LowF",3,800,"Include"
"RS2009_e1","RS2009_e1_1",9,417,1,"HighF",4,773,"Include"
"RS2009_e1","RS2009_e1_1",9,418,1,"LowF",4,695,"Include"
"RS2009_e1","RS2009_e1_1",9,419,1,"LowF",3,887,"Include"
"RS2009_e1","RS2009_e1_1",9,420,0,"HighF",1,1025,"Include"
"RS2009_e1","RS2009_e1_1",9,421,1,"LowF",6,816,"Include"
"RS2009_e1","RS2009_e1_1",9,422,0,"LowF",1,773,"Include"
"RS2009_e1","RS2009_e1_1",9,423,0,"HighF",1,809,"Include"
"RS2009_e1","RS2009_e1_1",9,424,1,"LowF",1,1009,"Include"
"RS2009_e1","RS2009_e1_1",9,425,1,"HighF",6,713,"Include"
"RS2009_e1","RS2009_e1_1",9,426,1,"HighF",6,582,"Include"
"RS2009_e1","RS2009_e1_1",9,427,0,"HighF",1,902,"Include"
"RS2009_e1","RS2009_e1_1",9,428,1,"LowF",2,940,"Include"
"RS2009_e1","RS2009_e1_1",9,429,1,"LowF",4,1217,"Include"
"RS2009_e1","RS2009_e1_1",9,430,0,"LowF",3,973,"Include"
"RS2009_e1","RS2009_e1_1",9,431,1,"HighF",6,801,"Include"
"RS2009_e1","RS2009_e1_1",9,432,0,"LowF",1,877,"Include"
"RS2009_e1","RS2009_e1_1",10,433,0,"LowF",1,632,"Include"
"RS2009_e1","RS2009_e1_1",10,434,1,"LowF",2,843,"Include"
"RS2009_e1","RS2009_e1_1",10,435,1,"HighF",6,973,"Include"
"RS2009_e1","RS2009_e1_1",10,436,1,"HighF",6,651,"Include"
"RS2009_e1","RS2009_e1_1",10,437,0,"LowF",1,711,"Include"
"RS2009_e1","RS2009_e1_1",10,438,0,"LowF",4,809,"Include"
"RS2009_e1","RS2009_e1_1",10,439,0,"HighF",1,694,"Include"
"RS2009_e1","RS2009_e1_1",10,440,1,"LowF",6,722,"Include"
"RS2009_e1","RS2009_e1_1",10,441,1,"HighF",4,1660,"Include"
"RS2009_e1","RS2009_e1_1",10,442,0,"LowF",3,747,"Include"
"RS2009_e1","RS2009_e1_1",10,443,1,"LowF",3,992,"Include"
"RS2009_e1","RS2009_e1_1",10,444,0,"HighF",4,1339,"Include"
"RS2009_e1","RS2009_e1_1",10,445,0,"HighF",1,747,"Include"
"RS2009_e1","RS2009_e1_1",10,446,1,"HighF",6,766,"Include"
"RS2009_e1","RS2009_e1_1",10,447,0,"LowF",4,764,"Include"
"RS2009_e1","RS2009_e1_1",10,448,1,"HighF",6,825,"Include"
"RS2009_e1","RS2009_e1_1",10,449,0,"LowF",1,1607,"Include"
"RS2009_e1","RS2009_e1_1",10,450,1,"LowF",2,713,"Include"
"RS2009_e1","RS2009_e1_1",10,451,1,"LowF",6,714,"Include"
"RS2009_e1","RS2009_e1_1",10,452,1,"HighF",6,573,"Include"
"RS2009_e1","RS2009_e1_1",10,453,1,"LowF",4,825,"Include"
"RS2009_e1","RS2009_e1_1",10,454,1,"LowF",3,782,"Include"
"RS2009_e1","RS2009_e1_1",10,455,1,"HighF",6,650,"Include"
"RS2009_e1","RS2009_e1_1",10,456,1,"LowF",6,582,"Include"
"RS2009_e1","RS2009_e1_1",10,457,1,"HighF",6,617,"Include"
"RS2009_e1","RS2009_e1_1",10,458,0,"HighF",1,755,"Include"
"RS2009_e1","RS2009_e1_1",10,459,0,"HighF",6,807,"Include"
"RS2009_e1","RS2009_e1_1",10,460,1,"LowF",6,686,"Include"
"RS2009_e1","RS2009_e1_1",10,461,0,"LowF",1,625,"Include"
"RS2009_e1","RS2009_e1_1",10,462,1,"LowF",6,616,"Include"
"RS2009_e1","RS2009_e1_1",10,463,0,"LowF",1,547,"Include"
"RS2009_e1","RS2009_e1_1",10,464,0,"HighF",1,947,"Include"
"RS2009_e1","RS2009_e1_1",10,465,1,"LowF",3,878,"Include"
"RS2009_e1","RS2009_e1_1",10,466,0,"HighF",4,827,"Include"
"RS2009_e1","RS2009_e1_1",10,467,0,"HighF",1,745,"Include"
"RS2009_e1","RS2009_e1_1",10,468,1,"HighF",6,730,"Include"
"RS2009_e1","RS2009_e1_1",10,469,0,"HighF",1,746,"Include"
"RS2009_e1","RS2009_e1_1",10,470,0,"LowF",1,696,"Include"
"RS2009_e1","RS2009_e1_1",10,471,0,"LowF",1,869,"Include"
"RS2009_e1","RS2009_e1_1",10,472,0,"HighF",1,869,"Include"
"RS2009_e1","RS2009_e1_1",10,473,0,"LowF",1,931,"Include"
"RS2009_e1","RS2009_e1_1",10,474,1,"HighF",6,747,"Include"
"RS2009_e1","RS2009_e1_1",10,475,1,"HighF",6,643,"Include"
"RS2009_e1","RS2009_e1_1",10,476,1,"HighF",6,929,"Include"
"RS2009_e1","RS2009_e1_1",10,477,0,"HighF",1,816,"Include"
"RS2009_e1","RS2009_e1_1",10,478,0,"LowF",1,635,"Include"
"RS2009_e1","RS2009_e1_1",10,479,0,"HighF",1,678,"Include"
"RS2009_e1","RS2009_e1_1",10,480,1,"LowF",1,747,"Include"
"RS2009_e1","RS2009_e1_1",11,481,0,"HighF",1,1415,"Include"
"RS2009_e1","RS2009_e1_1",11,482,1,"LowF",1,791,"Include"
"RS2009_e1","RS2009_e1_1",11,483,0,"LowF",6,974,"Include"
"RS2009_e1","RS2009_e1_1",11,484,1,"LowF",2,1513,"Include"
"RS2009_e1","RS2009_e1_1",11,485,0,"HighF",5,1122,"Include"
"RS2009_e1","RS2009_e1_1",11,486,1,"HighF",5,774,"Include"
"RS2009_e1","RS2009_e1_1",11,487,1,"LowF",5,695,"Include"
"RS2009_e1","RS2009_e1_1",11,488,1,"HighF",5,746,"Include"
"RS2009_e1","RS2009_e1_1",11,489,0,"LowF",1,704,"Include"
"RS2009_e1","RS2009_e1_1",11,490,1,"LowF",6,783,"Include"
"RS2009_e1","RS2009_e1_1",11,491,1,"LowF",6,609,"Include"
"RS2009_e1","RS2009_e1_1",11,492,0,"LowF",2,1000,"Include"
"RS2009_e1","RS2009_e1_1",11,493,0,"HighF",2,792,"Include"
"RS2009_e1","RS2009_e1_1",11,494,1,"HighF",5,652,"Include"
"RS2009_e1","RS2009_e1_1",11,495,1,"LowF",5,634,"Include"
"RS2009_e1","RS2009_e1_1",11,496,0,"HighF",1,678,"Include"
"RS2009_e1","RS2009_e1_1",11,497,0,"LowF",1,765,"Include"
"RS2009_e1","RS2009_e1_1",11,498,0,"HighF",1,940,"Include"
"RS2009_e1","RS2009_e1_1",11,499,1,"HighF",5,626,"Include"
"RS2009_e1","RS2009_e1_1",11,500,0,"HighF",1,939,"Include"
"RS2009_e1","RS2009_e1_1",11,501,0,"LowF",1,740,"Include"
"RS2009_e1","RS2009_e1_1",11,502,0,"HighF",2,1106,"Include"
"RS2009_e1","RS2009_e1_1",11,503,1,"LowF",5,948,"Include"
"RS2009_e1","RS2009_e1_1",11,504,1,"HighF",5,642,"Include"
"RS2009_e1","RS2009_e1_1",11,505,1,"HighF",5,635,"Include"
"RS2009_e1","RS2009_e1_1",11,506,0,"HighF",1,834,"Include"
"RS2009_e1","RS2009_e1_1",11,507,0,"LowF",1,949,"Include"
"RS2009_e1","RS2009_e1_1",11,508,1,"HighF",6,955,"Include"
"RS2009_e1","RS2009_e1_1",11,509,0,"LowF",5,833,"Include"
"RS2009_e1","RS2009_e1_1",11,510,1,"HighF",5,625,"Include"
"RS2009_e1","RS2009_e1_1",11,511,0,"LowF",5,703,"Include"
"RS2009_e1","RS2009_e1_1",11,512,0,"LowF",2,1043,"Include"
"RS2009_e1","RS2009_e1_1",11,513,1,"LowF",2,732,"Include"
"RS2009_e1","RS2009_e1_1",11,514,0,"LowF",2,1052,"Include"
"RS2009_e1","RS2009_e1_1",11,515,1,"HighF",5,1166,"Include"
"RS2009_e1","RS2009_e1_1",11,516,0,"LowF",5,696,"Include"
"RS2009_e1","RS2009_e1_1",11,517,0,"HighF",2,809,"Include"
"RS2009_e1","RS2009_e1_1",11,518,1,"HighF",5,730,"Include"
"RS2009_e1","RS2009_e1_1",11,519,1,"LowF",5,643,"Include"
"RS2009_e1","RS2009_e1_1",11,520,1,"LowF",6,696,"Include"
"RS2009_e1","RS2009_e1_1",11,521,0,"LowF",2,792,"Include"
"RS2009_e1","RS2009_e1_1",11,522,1,"LowF",2,1121,"Include"
"RS2009_e1","RS2009_e1_1",11,523,0,"HighF",1,826,"Include"
"RS2009_e1","RS2009_e1_1",11,524,0,"HighF",6,662,"Include"
"RS2009_e1","RS2009_e1_1",11,525,1,"HighF",5,949,"Include"
"RS2009_e1","RS2009_e1_1",11,526,1,"HighF",5,617,"Include"
"RS2009_e1","RS2009_e1_1",11,527,0,"HighF",1,653,"Include"
"RS2009_e1","RS2009_e1_1",11,528,1,"LowF",5,913,"Include"
"RS2009_e1","RS2009_e1_1",12,529,0,"HighF",1,1120,"Include"
"RS2009_e1","RS2009_e1_1",12,530,1,"LowF",5,540,"Include"
"RS2009_e1","RS2009_e1_1",12,531,1,"LowF",5,486,"Include"
"RS2009_e1","RS2009_e1_1",12,532,0,"LowF",1,565,"Include"
"RS2009_e1","RS2009_e1_1",12,533,0,"HighF",1,799,"Include"
"RS2009_e1","RS2009_e1_1",12,534,1,"LowF",5,513,"Include"
"RS2009_e1","RS2009_e1_1",12,535,1,"LowF",5,443,"Include"
"RS2009_e1","RS2009_e1_1",12,536,0,"LowF",1,853,"Include"
"RS2009_e1","RS2009_e1_1",12,537,1,"LowF",1,1061,"Include"
"RS2009_e1","RS2009_e1_1",12,538,1,"HighF",5,697,"Include"
"RS2009_e1","RS2009_e1_1",12,539,0,"LowF",5,609,"Include"
"RS2009_e1","RS2009_e1_1",12,540,0,"LowF",2,973,"Include"
"RS2009_e1","RS2009_e1_1",12,541,1,"LowF",6,852,"Include"
"RS2009_e1","RS2009_e1_1",12,542,1,"HighF",6,610,"Include"
"RS2009_e1","RS2009_e1_1",12,543,0,"HighF",1,843,"Include"
"RS2009_e1","RS2009_e1_1",12,544,1,"HighF",6,601,"Include"
"RS2009_e1","RS2009_e1_1",12,545,0,"HighF",1,678,"Include"
"RS2009_e1","RS2009_e1_1",12,546,1,"HighF",6,530,"Include"
"RS2009_e1","RS2009_e1_1",12,547,1,"HighF",5,861,"Include"
"RS2009_e1","RS2009_e1_1",12,548,0,"LowF",5,844,"Include"
"RS2009_e1","RS2009_e1_1",12,549,1,"LowF",6,774,"Include"
"RS2009_e1","RS2009_e1_1",12,550,1,"HighF",6,916,"Include"
"RS2009_e1","RS2009_e1_1",12,551,1,"HighF",6,661,"Include"
"RS2009_e1","RS2009_e1_1",12,552,1,"HighF",6,599,"Include"
"RS2009_e1","RS2009_e1_1",12,553,0,"HighF",6,609,"Include"
"RS2009_e1","RS2009_e1_1",12,554,0,"HighF",5,704,"Include"
"RS2009_e1","RS2009_e1_1",12,555,0,"HighF",1,693,"Include"
"RS2009_e1","RS2009_e1_1",12,556,0,"HighF",1,801,"Include"
"RS2009_e1","RS2009_e1_1",12,557,0,"LowF",2,836,"Include"
"RS2009_e1","RS2009_e1_1",12,558,0,"LowF",2,783,"Include"
"RS2009_e1","RS2009_e1_1",12,559,0,"HighF",2,704,"Include"
"RS2009_e1","RS2009_e1_1",12,560,1,"HighF",6,712,"Include"
"RS2009_e1","RS2009_e1_1",12,561,0,"HighF",2,730,"Include"
"RS2009_e1","RS2009_e1_1",12,562,1,"LowF",5,625,"Include"
"RS2009_e1","RS2009_e1_1",12,563,1,"HighF",6,607,"Include"
"RS2009_e1","RS2009_e1_1",12,564,0,"LowF",6,513,"Include"
"RS2009_e1","RS2009_e1_1",12,565,0,"LowF",2,747,"Include"
"RS2009_e1","RS2009_e1_1",12,566,0,"HighF",1,861,"Include"
"RS2009_e1","RS2009_e1_1",12,567,0,"LowF",2,529,"Include"
"RS2009_e1","RS2009_e1_1",12,568,1,"LowF",5,555,"Include"
"RS2009_e1","RS2009_e1_1",12,569,0,"HighF",1,686,"Include"
"RS2009_e1","RS2009_e1_1",12,570,1,"LowF",1,818,"Include"
"RS2009_e1","RS2009_e1_1",12,571,1,"HighF",5,1122,"Include"
"RS2009_e1","RS2009_e1_1",12,572,1,"LowF",1,548,"Include"
"RS2009_e1","RS2009_e1_1",12,573,1,"HighF",2,844,"Include"
"RS2009_e1","RS2009_e1_1",12,574,1,"LowF",5,540,"Include"
"RS2009_e1","RS2009_e1_1",12,575,0,"LowF",2,661,"Include"
"RS2009_e1","RS2009_e1_1",12,576,0,"LowF",2,756,"Include"
"RS2009_e1","RS2009_e1_1",13,577,0,"HighF",2,1181,"Include"
"RS2009_e1","RS2009_e1_1",13,578,1,"HighF",6,748,"Include"
"RS2009_e1","RS2009_e1_1",13,579,0,"LowF",2,635,"Include"
"RS2009_e1","RS2009_e1_1",13,580,0,"LowF",2,591,"Include"
"RS2009_e1","RS2009_e1_1",13,581,1,"LowF",5,809,"Include"
"RS2009_e1","RS2009_e1_1",13,582,1,"LowF",2,757,"Include"
"RS2009_e1","RS2009_e1_1",13,583,1,"HighF",6,747,"Include"
"RS2009_e1","RS2009_e1_1",13,584,0,"LowF",5,817,"Include"
"RS2009_e1","RS2009_e1_1",13,585,0,"HighF",5,774,"Include"
"RS2009_e1","RS2009_e1_1",13,586,1,"HighF",6,765,"Include"
"RS2009_e1","RS2009_e1_1",13,587,0,"HighF",1,983,"Include"
"RS2009_e1","RS2009_e1_1",13,588,1,"LowF",1,846,"Include"
"RS2009_e1","RS2009_e1_1",13,589,1,"LowF",5,619,"Include"
"RS2009_e1","RS2009_e1_1",13,590,0,"HighF",2,729,"Include"
"RS2009_e1","RS2009_e1_1",13,591,1,"HighF",2,600,"Include"
"RS2009_e1","RS2009_e1_1",13,592,0,"LowF",5,556,"Include"
"RS2009_e1","RS2009_e1_1",13,593,1,"LowF",2,729,"Include"
"RS2009_e1","RS2009_e1_1",13,594,0,"LowF",2,1000,"Include"
"RS2009_e1","RS2009_e1_1",13,595,1,"LowF",5,678,"Include"
"RS2009_e1","RS2009_e1_1",13,596,0,"HighF",5,556,"Include"
"RS2009_e1","RS2009_e1_1",13,597,0,"HighF",2,556,"Include"
"RS2009_e1","RS2009_e1_1",13,598,1,"HighF",3,1408,"Include"
"RS2009_e1","RS2009_e1_1",13,599,0,"HighF",3,774,"Include"
"RS2009_e1","RS2009_e1_1",13,600,1,"LowF",3,1183,"Include"
"RS2009_e1","RS2009_e1_1",13,601,0,"LowF",4,722,"Include"
"RS2009_e1","RS2009_e1_1",13,602,1,"HighF",5,738,"Include"
"RS2009_e1","RS2009_e1_1",13,603,1,"LowF",5,677,"Include"
"RS2009_e1","RS2009_e1_1",13,604,0,"LowF",2,678,"Include"
"RS2009_e1","RS2009_e1_1",13,605,0,"HighF",2,826,"Include"
"RS2009_e1","RS2009_e1_1",13,606,1,"HighF",2,531,"Include"
"RS2009_e1","RS2009_e1_1",13,607,0,"HighF",5,739,"Include"
"RS2009_e1","RS2009_e1_1",13,608,1,"HighF",5,695,"Include"
"RS2009_e1","RS2009_e1_1",13,609,0,"LowF",2,748,"Include"
"RS2009_e1","RS2009_e1_1",13,610,0,"HighF",2,618,"Include"
"RS2009_e1","RS2009_e1_1",13,611,0,"LowF",2,574,"Include"
"RS2009_e1","RS2009_e1_1",13,612,1,"HighF",2,539,"Include"
"RS2009_e1","RS2009_e1_1",13,613,1,"LowF",5,852,"Include"
"RS2009_e1","RS2009_e1_1",13,614,1,"LowF",6,860,"Include"
"RS2009_e1","RS2009_e1_1",13,615,1,"LowF",5,550,"Include"
"RS2009_e1","RS2009_e1_1",13,616,0,"HighF",6,687,"Include"
"RS2009_e1","RS2009_e1_1",13,617,0,"HighF",2,835,"Include"
"RS2009_e1","RS2009_e1_1",13,618,0,"LowF",2,502,"Include"
"RS2009_e1","RS2009_e1_1",13,619,1,"HighF",5,530,"Include"
"RS2009_e1","RS2009_e1_1",13,620,0,"LowF",2,808,"Include"
"RS2009_e1","RS2009_e1_1",13,621,1,"HighF",5,617,"Include"
"RS2009_e1","RS2009_e1_1",13,622,1,"LowF",2,1026,"Include"
"RS2009_e1","RS2009_e1_1",13,623,0,"LowF",3,818,"Include"
"RS2009_e1","RS2009_e1_1",13,624,1,"HighF",4,817,"Include"
"RS2009_e1","RS2009_e1_1",14,625,0,"LowF",1,807,"Include"
"RS2009_e1","RS2009_e1_1",14,626,0,"HighF",2,645,"Include"
"RS2009_e1","RS2009_e1_1",14,627,0,"LowF",2,566,"Include"
"RS2009_e1","RS2009_e1_1",14,628,0,"HighF",2,791,"Include"
"RS2009_e1","RS2009_e1_1",14,629,1,"LowF",3,999,"Include"
"RS2009_e1","RS2009_e1_1",14,630,1,"HighF",6,817,"Include"
"RS2009_e1","RS2009_e1_1",14,631,0,"LowF",5,1079,"Include"
"RS2009_e1","RS2009_e1_1",14,632,1,"LowF",6,826,"Include"
"RS2009_e1","RS2009_e1_1",14,633,0,"HighF",4,958,"Include"
"RS2009_e1","RS2009_e1_1",14,634,1,"LowF",3,774,"Include"
"RS2009_e1","RS2009_e1_1",14,635,0,"HighF",4,747,"Include"
"RS2009_e1","RS2009_e1_1",14,636,1,"LowF",3,2070,"Include"
"RS2009_e1","RS2009_e1_1",14,637,0,"HighF",3,964,"Include"
"RS2009_e1","RS2009_e1_1",14,638,1,"LowF",3,739,"Include"
"RS2009_e1","RS2009_e1_1",14,639,0,"HighF",3,817,"Include"
"RS2009_e1","RS2009_e1_1",14,640,1,"LowF",3,1261,"Include"
"RS2009_e1","RS2009_e1_1",14,641,0,"LowF",3,782,"Include"
"RS2009_e1","RS2009_e1_1",14,642,1,"HighF",4,1026,"Include"
"RS2009_e1","RS2009_e1_1",14,643,1,"LowF",4,783,"Include"
"RS2009_e1","RS2009_e1_1",14,644,1,"LowF",3,878,"Include"
"RS2009_e1","RS2009_e1_1",14,645,0,"LowF",3,800,"Include"
"RS2009_e1","RS2009_e1_1",14,646,1,"LowF",4,887,"Include"
"RS2009_e1","RS2009_e1_1",14,647,0,"LowF",4,887,"Include"
"RS2009_e1","RS2009_e1_1",14,648,0,"LowF",3,886,"Include"
"RS2009_e1","RS2009_e1_1",14,649,0,"LowF",3,790,"Include"
"RS2009_e1","RS2009_e1_1",14,650,0,"HighF",3,738,"Include"
"RS2009_e1","RS2009_e1_1",14,651,1,"HighF",4,660,"Include"
"RS2009_e1","RS2009_e1_1",14,652,1,"HighF",6,826,"Include"
"RS2009_e1","RS2009_e1_1",14,653,0,"LowF",4,748,"Include"
"RS2009_e1","RS2009_e1_1",14,654,1,"HighF",6,748,"Include"
"RS2009_e1","RS2009_e1_1",14,655,1,"HighF",6,991,"Include"
"RS2009_e1","RS2009_e1_1",14,656,1,"LowF",2,861,"Include"
"RS2009_e1","RS2009_e1_1",14,657,1,"HighF",6,774,"Include"
"RS2009_e1","RS2009_e1_1",14,658,0,"HighF",4,722,"Include"
"RS2009_e1","RS2009_e1_1",14,659,0,"LowF",3,452,"Include"
"RS2009_e1","RS2009_e1_1",14,660,0,"LowF",3,643,"Include"
"RS2009_e1","RS2009_e1_1",14,661,0,"HighF",3,625,"Include"
"RS2009_e1","RS2009_e1_1",14,662,1,"LowF",4,556,"Include"
"RS2009_e1","RS2009_e1_1",14,663,0,"HighF",3,816,"Include"
"RS2009_e1","RS2009_e1_1",14,664,0,"HighF",3,860,"Include"
"RS2009_e1","RS2009_e1_1",14,665,1,"HighF",4,712,"Include"
"RS2009_e1","RS2009_e1_1",14,666,1,"LowF",3,565,"Include"
"RS2009_e1","RS2009_e1_1",14,667,0,"LowF",3,1190,"Include"
"RS2009_e1","RS2009_e1_1",14,668,1,"HighF",6,704,"Include"
"RS2009_e1","RS2009_e1_1",14,669,1,"HighF",4,826,"Include"
"RS2009_e1","RS2009_e1_1",14,670,0,"HighF",4,1243,"Include"
"RS2009_e1","RS2009_e1_1",14,671,1,"HighF",3,713,"Include"
"RS2009_e1","RS2009_e1_1",14,672,1,"HighF",6,756,"Include"
"RS2009_e1","RS2009_e1_1",15,673,1,"LowF",6,894,"Include"
"RS2009_e1","RS2009_e1_1",15,674,1,"LowF",5,513,"Include"
"RS2009_e1","RS2009_e1_1",15,675,0,"LowF",3,704,"Include"
"RS2009_e1","RS2009_e1_1",15,676,0,"HighF",2,905,"Include"
"RS2009_e1","RS2009_e1_1",15,677,1,"HighF",4,1062,"Include"
"RS2009_e1","RS2009_e1_1",15,678,0,"LowF",3,1036,"Include"
"RS2009_e1","RS2009_e1_1",15,679,0,"HighF",3,791,"Include"
"RS2009_e1","RS2009_e1_1",15,680,0,"HighF",4,869,"Include"
"RS2009_e1","RS2009_e1_1",15,681,1,"HighF",4,869,"Include"
"RS2009_e1","RS2009_e1_1",15,682,1,"HighF",4,731,"Include"
"RS2009_e1","RS2009_e1_1",15,683,1,"LowF",4,643,"Include"
"RS2009_e1","RS2009_e1_1",15,684,0,"HighF",1,1061,"Include"
"RS2009_e1","RS2009_e1_1",15,685,1,"LowF",6,783,"Include"
"RS2009_e1","RS2009_e1_1",15,686,1,"LowF",2,948,"Include"
"RS2009_e1","RS2009_e1_1",15,687,0,"HighF",2,921,"Include"
"RS2009_e1","RS2009_e1_1",15,688,0,"HighF",2,1166,"Include"
"RS2009_e1","RS2009_e1_1",15,689,1,"LowF",2,697,"Include"
"RS2009_e1","RS2009_e1_1",15,690,0,"LowF",4,1035,"Include"
"RS2009_e1","RS2009_e1_1",15,691,0,"HighF",2,1469,"Include"
"RS2009_e1","RS2009_e1_1",15,692,1,"HighF",2,956,"Include"
"RS2009_e1","RS2009_e1_1",15,693,0,"LowF",4,1896,"Include"
"RS2009_e1","RS2009_e1_1",15,694,1,"LowF",3,619,"Include"
"RS2009_e1","RS2009_e1_1",15,695,0,"HighF",3,922,"Include"
"RS2009_e1","RS2009_e1_1",15,696,1,"HighF",3,643,"Include"
"RS2009_e1","RS2009_e1_1",15,697,1,"HighF",6,791,"Include"
"RS2009_e1","RS2009_e1_1",15,698,1,"HighF",2,904,"Include"
"RS2009_e1","RS2009_e1_1",15,699,0,"HighF",2,870,"Include"
"RS2009_e1","RS2009_e1_1",15,700,0,"LowF",2,766,"Include"
"RS2009_e1","RS2009_e1_1",15,701,1,"LowF",2,599,"Include"
"RS2009_e1","RS2009_e1_1",15,702,1,"HighF",5,712,"Include"
"RS2009_e1","RS2009_e1_1",15,703,0,"HighF",5,548,"Include"
"RS2009_e1","RS2009_e1_1",15,704,1,"LowF",4,626,"Include"
"RS2009_e1","RS2009_e1_1",15,705,1,"LowF",6,895,"Include"
"RS2009_e1","RS2009_e1_1",15,706,1,"HighF",5,1078,"Include"
"RS2009_e1","RS2009_e1_1",15,707,1,"LowF",4,731,"Include"
"RS2009_e1","RS2009_e1_1",15,708,0,"LowF",5,765,"Include"
"RS2009_e1","RS2009_e1_1",15,709,0,"LowF",3,887,"Include"
"RS2009_e1","RS2009_e1_1",15,710,1,"LowF",5,696,"Include"
"RS2009_e1","RS2009_e1_1",15,711,0,"LowF",5,539,"Include"
"RS2009_e1","RS2009_e1_1",15,712,0,"LowF",1,643,"Include"
"RS2009_e1","RS2009_e1_1",15,713,0,"HighF",6,530,"Include"
"RS2009_e1","RS2009_e1_1",15,714,0,"LowF",1,695,"Include"
"RS2009_e1","RS2009_e1_1",15,715,1,"HighF",1,782,"Include"
"RS2009_e1","RS2009_e1_1",15,716,1,"HighF",2,863,"Include"
"RS2009_e1","RS2009_e1_1",15,717,0,"LowF",5,756,"Include"
"RS2009_e1","RS2009_e1_1",15,718,1,"HighF",5,1009,"Include"
"RS2009_e1","RS2009_e1_1",15,719,0,"HighF",2,896,"Include"
"RS2009_e1","RS2009_e1_1",15,720,0,"LowF",2,1034,"Include"
"RS2009_e1","RS2009_e1_1",16,721,1,"HighF",6,703,"Include"
"RS2009_e1","RS2009_e1_1",16,722,0,"HighF",1,791,"Include"
"RS2009_e1","RS2009_e1_1",16,723,1,"HighF",2,1035,"Include"
"RS2009_e1","RS2009_e1_1",16,724,1,"LowF",4,931,"Include"
"RS2009_e1","RS2009_e1_1",16,725,1,"LowF",4,722,"Include"
"RS2009_e1","RS2009_e1_1",16,726,0,"LowF",3,826,"Include"
"RS2009_e1","RS2009_e1_1",16,727,0,"HighF",2,853,"Include"
"RS2009_e1","RS2009_e1_1",16,728,0,"HighF",5,826,"Include"
"RS2009_e1","RS2009_e1_1",16,729,0,"LowF",2,1156,"Include"
"RS2009_e1","RS2009_e1_1",16,730,0,"LowF",2,765,"Include"
"RS2009_e1","RS2009_e1_1",16,731,0,"LowF",1,799,"Include"
"RS2009_e1","RS2009_e1_1",16,732,1,"HighF",6,783,"Include"
"RS2009_e1","RS2009_e1_1",16,733,0,"LowF",2,1130,"Include"
"RS2009_e1","RS2009_e1_1",16,734,0,"HighF",2,713,"Include"
"RS2009_e1","RS2009_e1_1",16,735,0,"HighF",1,722,"Include"
"RS2009_e1","RS2009_e1_1",16,736,1,"HighF",4,1234,"Include"
"RS2009_e1","RS2009_e1_1",16,737,1,"HighF",5,940,"Include"
"RS2009_e1","RS2009_e1_1",16,738,0,"HighF",1,696,"Include"
"RS2009_e1","RS2009_e1_1",16,739,0,"LowF",1,704,"Include"
"RS2009_e1","RS2009_e1_1",16,740,1,"LowF",4,739,"Include"
"RS2009_e1","RS2009_e1_1",16,741,0,"LowF",1,618,"Include"
"RS2009_e1","RS2009_e1_1",16,742,0,"LowF",1,661,"Include"
"RS2009_e1","RS2009_e1_1",16,743,1,"HighF",6,670,"Include"
"RS2009_e1","RS2009_e1_1",16,744,1,"HighF",6,757,"Include"
"RS2009_e1","RS2009_e1_1",16,745,0,"HighF",1,617,"Include"
"RS2009_e1","RS2009_e1_1",16,746,0,"HighF",1,765,"Include"
"RS2009_e1","RS2009_e1_1",16,747,0,"LowF",1,739,"Include"
"RS2009_e1","RS2009_e1_1",16,748,0,"HighF",2,843,"Include"
"RS2009_e1","RS2009_e1_1",16,749,1,"LowF",4,782,"Include"
"RS2009_e1","RS2009_e1_1",16,750,1,"LowF",4,669,"Include"
"RS2009_e1","RS2009_e1_1",16,751,0,"LowF",5,643,"Include"
"RS2009_e1","RS2009_e1_1",16,752,1,"HighF",4,652,"Include"
"RS2009_e1","RS2009_e1_1",16,753,0,"HighF",1,747,"Include"
"RS2009_e1","RS2009_e1_1",16,754,1,"LowF",6,600,"Include"
"RS2009_e1","RS2009_e1_1",16,755,0,"HighF",4,652,"Include"
"RS2009_e1","RS2009_e1_1",16,756,0,"LowF",3,791,"Include"
"RS2009_e1","RS2009_e1_1",16,757,1,"LowF",4,835,"Include"
"RS2009_e1","RS2009_e1_1",16,758,0,"LowF",5,730,"Include"
"RS2009_e1","RS2009_e1_1",16,759,1,"LowF",6,826,"Include"
"RS2009_e1","RS2009_e1_1",16,760,1,"HighF",6,548,"Include"
"RS2009_e1","RS2009_e1_1",16,761,1,"HighF",1,591,"Include"
"RS2009_e1","RS2009_e1_1",16,762,1,"LowF",4,1139,"Include"
"RS2009_e1","RS2009_e1_1",16,763,1,"HighF",6,590,"Include"
"RS2009_e1","RS2009_e1_1",16,764,1,"LowF",1,905,"Include"
"RS2009_e1","RS2009_e1_1",16,765,0,"HighF",1,757,"Include"
"RS2009_e1","RS2009_e1_1",16,766,1,"HighF",5,1130,"Include"
"RS2009_e1","RS2009_e1_1",16,767,1,"LowF",1,609,"Include"
"RS2009_e1","RS2009_e1_1",16,768,1,"LowF",1,1018,"Include"
"RS2009_e1","RS2009_e1_1",17,769,0,"HighF",1,659,"Include"
"RS2009_e1","RS2009_e1_1",17,770,1,"HighF",6,523,"Include"
"RS2009_e1","RS2009_e1_1",17,771,0,"HighF",2,748,"Include"
"RS2009_e1","RS2009_e1_1",17,772,1,"HighF",6,626,"Include"
"RS2009_e1","RS2009_e1_1",17,773,1,"LowF",5,1060,"Include"
"RS2009_e1","RS2009_e1_1",17,774,1,"LowF",2,940,"Include"
"RS2009_e1","RS2009_e1_1",17,775,0,"LowF",4,939,"Include"
"RS2009_e1","RS2009_e1_1",17,776,0,"LowF",3,973,"Include"
"RS2009_e1","RS2009_e1_1",17,777,0,"LowF",1,835,"Include"
"RS2009_e1","RS2009_e1_1",17,778,0,"HighF",1,688,"Include"
"RS2009_e1","RS2009_e1_1",17,779,0,"LowF",4,740,"Include"
"RS2009_e1","RS2009_e1_1",17,780,1,"HighF",6,825,"Include"
"RS2009_e1","RS2009_e1_1",17,781,1,"LowF",4,721,"Include"
"RS2009_e1","RS2009_e1_1",17,782,1,"HighF",4,1069,"Include"
"RS2009_e1","RS2009_e1_1",17,783,0,"HighF",4,913,"Include"
"RS2009_e1","RS2009_e1_1",17,784,0,"LowF",3,852,"Include"
"RS2009_e1","RS2009_e1_1",17,785,1,"HighF",4,635,"Include"
"RS2009_e1","RS2009_e1_1",17,786,1,"HighF",5,721,"Include"
"RS2009_e1","RS2009_e1_1",17,787,1,"LowF",5,800,"Include"
"RS2009_e1","RS2009_e1_1",17,788,0,"LowF",5,547,"Include"
"RS2009_e1","RS2009_e1_1",17,789,0,"LowF",4,747,"Include"
"RS2009_e1","RS2009_e1_1",17,790,1,"LowF",3,756,"Include"
"RS2009_e1","RS2009_e1_1",17,791,0,"LowF",3,808,"Include"
"RS2009_e1","RS2009_e1_1",17,792,1,"HighF",6,729,"Include"
"RS2009_e1","RS2009_e1_1",17,793,0,"LowF",6,564,"Include"
"RS2009_e1","RS2009_e1_1",17,794,1,"HighF",6,833,"Include"
"RS2009_e1","RS2009_e1_1",17,795,1,"HighF",6,529,"Include"
"RS2009_e1","RS2009_e1_1",17,796,0,"LowF",3,800,"Include"
"RS2009_e1","RS2009_e1_1",17,797,0,"HighF",2,591,"Include"
"RS2009_e1","RS2009_e1_1",17,798,0,"HighF",2,652,"Include"
"RS2009_e1","RS2009_e1_1",17,799,0,"LowF",2,1053,"Include"
"RS2009_e1","RS2009_e1_1",17,800,1,"HighF",5,722,"Include"
"RS2009_e1","RS2009_e1_1",17,801,1,"LowF",2,739,"Include"
"RS2009_e1","RS2009_e1_1",17,802,0,"HighF",2,870,"Include"
"RS2009_e1","RS2009_e1_1",17,803,0,"LowF",2,661,"Include"
"RS2009_e1","RS2009_e1_1",17,804,0,"HighF",2,782,"Include"
"RS2009_e1","RS2009_e1_1",17,805,1,"LowF",4,644,"Include"
"RS2009_e1","RS2009_e1_1",17,806,1,"LowF",3,625,"Include"
"RS2009_e1","RS2009_e1_1",17,807,1,"LowF",3,731,"Include"
"RS2009_e1","RS2009_e1_1",17,808,0,"HighF",4,590,"Include"
"RS2009_e1","RS2009_e1_1",17,809,1,"LowF",6,590,"Include"
"RS2009_e1","RS2009_e1_1",17,810,1,"LowF",2,729,"Include"
"RS2009_e1","RS2009_e1_1",17,811,0,"HighF",4,835,"Include"
"RS2009_e1","RS2009_e1_1",17,812,0,"HighF",2,756,"Include"
"RS2009_e1","RS2009_e1_1",17,813,1,"HighF",5,825,"Include"
"RS2009_e1","RS2009_e1_1",17,814,0,"HighF",5,974,"Include"
"RS2009_e1","RS2009_e1_1",17,815,1,"HighF",6,913,"Include"
"RS2009_e1","RS2009_e1_1",17,816,1,"LowF",4,1043,"Include"
"RS2009_e1","RS2009_e1_1",18,817,1,"HighF",6,1068,"Include"
"RS2009_e1","RS2009_e1_1",18,818,0,"LowF",5,668,"Include"
"RS2009_e1","RS2009_e1_1",18,819,1,"LowF",6,895,"Include"
"RS2009_e1","RS2009_e1_1",18,820,1,"HighF",6,774,"Include"
"RS2009_e1","RS2009_e1_1",18,821,0,"HighF",6,1609,"Include"
"RS2009_e1","RS2009_e1_1",18,822,1,"LowF",6,930,"Include"
"RS2009_e1","RS2009_e1_1",18,823,0,"LowF",2,617,"Include"
"RS2009_e1","RS2009_e1_1",18,824,1,"HighF",5,905,"Include"
"RS2009_e1","RS2009_e1_1",18,825,1,"HighF",3,1305,"Include"
"RS2009_e1","RS2009_e1_1",18,826,0,"LowF",3,835,"Include"
"RS2009_e1","RS2009_e1_1",18,827,1,"HighF",6,722,"Include"
"RS2009_e1","RS2009_e1_1",18,828,0,"HighF",3,774,"Include"
"RS2009_e1","RS2009_e1_1",18,829,0,"HighF",2,844,"Include"
"RS2009_e1","RS2009_e1_1",18,830,0,"LowF",1,784,"Include"
"RS2009_e1","RS2009_e1_1",18,831,0,"HighF",1,1150,"Include"
"RS2009_e1","RS2009_e1_1",18,832,0,"LowF",3,1123,"Include"
"RS2009_e1","RS2009_e1_1",18,833,0,"LowF",1,1087,"Include"
"RS2009_e1","RS2009_e1_1",18,834,1,"HighF",6,810,"Include"
"RS2009_e1","RS2009_e1_1",18,835,0,"LowF",5,851,"Include"
"RS2009_e1","RS2009_e1_1",18,836,1,"LowF",2,609,"Include"
"RS2009_e1","RS2009_e1_1",18,837,0,"LowF",2,802,"Include"
"RS2009_e1","RS2009_e1_1",18,838,1,"HighF",5,670,"Include"
"RS2009_e1","RS2009_e1_1",18,839,1,"LowF",5,548,"Include"
"RS2009_e1","RS2009_e1_1",18,840,1,"LowF",5,539,"Include"
"RS2009_e1","RS2009_e1_1",18,841,0,"LowF",1,574,"Include"
"RS2009_e1","RS2009_e1_1",18,842,0,"HighF",1,861,"Include"
"RS2009_e1","RS2009_e1_1",18,843,0,"HighF",2,827,"Include"
"RS2009_e1","RS2009_e1_1",18,844,1,"LowF",1,860,"Include"
"RS2009_e1","RS2009_e1_1",18,845,1,"LowF",1,1131,"Include"
"RS2009_e1","RS2009_e1_1",18,846,0,"LowF",5,661,"Include"
"RS2009_e1","RS2009_e1_1",18,847,1,"HighF",5,677,"Include"
"RS2009_e1","RS2009_e1_1",18,848,0,"HighF",1,512,"Include"
"RS2009_e1","RS2009_e1_1",18,849,1,"HighF",1,506,"Include"
"RS2009_e1","RS2009_e1_1",18,850,0,"HighF",4,1001,"Include"
"RS2009_e1","RS2009_e1_1",18,851,0,"HighF",3,721,"Include"
"RS2009_e1","RS2009_e1_1",18,852,0,"HighF",3,608,"Include"
"RS2009_e1","RS2009_e1_1",18,853,0,"LowF",3,542,"Include"
"RS2009_e1","RS2009_e1_1",18,854,1,"LowF",4,756,"Include"
"RS2009_e1","RS2009_e1_1",18,855,1,"HighF",5,869,"Include"
"RS2009_e1","RS2009_e1_1",18,856,0,"HighF",2,1156,"Include"
"RS2009_e1","RS2009_e1_1",18,857,0,"HighF",2,677,"Include"
"RS2009_e1","RS2009_e1_1",18,858,1,"HighF",2,617,"Include"
"RS2009_e1","RS2009_e1_1",18,859,1,"LowF",2,774,"Include"
"RS2009_e1","RS2009_e1_1",18,860,1,"LowF",6,965,"Include"
"RS2009_e1","RS2009_e1_1",18,861,1,"LowF",6,784,"Include"
"RS2009_e1","RS2009_e1_1",18,862,0,"LowF",6,600,"Include"
"RS2009_e1","RS2009_e1_1",18,863,1,"LowF",5,731,"Include"
"RS2009_e1","RS2009_e1_1",18,864,1,"HighF",5,800,"Include"
"RS2009_e1","RS2009_e1_1",19,865,1,"HighF",6,798,"Include"
"RS2009_e1","RS2009_e1_1",19,866,0,"LowF",1,696,"Include"
"RS2009_e1","RS2009_e1_1",19,867,0,"LowF",1,628,"Include"
"RS2009_e1","RS2009_e1_1",19,868,0,"HighF",1,837,"Include"
"RS2009_e1","RS2009_e1_1",19,869,1,"LowF",4,1391,"Include"
"RS2009_e1","RS2009_e1_1",19,870,0,"HighF",3,1434,"Include"
"RS2009_e1","RS2009_e1_1",19,871,1,"LowF",3,766,"Include"
"RS2009_e1","RS2009_e1_1",19,872,0,"HighF",6,922,"Include"
"RS2009_e1","RS2009_e1_1",19,873,0,"HighF",1,774,"Include"
"RS2009_e1","RS2009_e1_1",19,874,1,"LowF",6,756,"Include"
"RS2009_e1","RS2009_e1_1",19,875,0,"LowF",1,591,"Include"
"RS2009_e1","RS2009_e1_1",19,876,0,"LowF",1,828,"Include"
"RS2009_e1","RS2009_e1_1",19,877,1,"HighF",6,818,"Include"
"RS2009_e1","RS2009_e1_1",19,878,0,"HighF",5,1156,"Include"
"RS2009_e1","RS2009_e1_1",19,879,0,"HighF",2,922,"Include"
"RS2009_e1","RS2009_e1_1",19,880,0,"LowF",2,974,"Include"
"RS2009_e1","RS2009_e1_1",19,881,1,"HighF",2,817,"Include"
"RS2009_e1","RS2009_e1_1",19,882,1,"LowF",5,983,"Include"
"RS2009_e1","RS2009_e1_1",19,883,0,"LowF",2,661,"Include"
"RS2009_e1","RS2009_e1_1",19,884,1,"HighF",2,652,"Include"
"RS2009_e1","RS2009_e1_1",19,885,0,"HighF",2,669,"Include"
"RS2009_e1","RS2009_e1_1",19,886,1,"HighF",5,1113,"Include"
"RS2009_e1","RS2009_e1_1",19,887,1,"LowF",2,634,"Include"
"RS2009_e1","RS2009_e1_1",19,888,0,"LowF",2,712,"Include"
"RS2009_e1","RS2009_e1_1",19,889,0,"LowF",2,547,"Include"
"RS2009_e1","RS2009_e1_1",19,890,1,"HighF",1,660,"Include"
"RS2009_e1","RS2009_e1_1",19,891,1,"LowF",1,904,"Include"
"RS2009_e1","RS2009_e1_1",19,892,1,"LowF",6,926,"Include"
"RS2009_e1","RS2009_e1_1",19,893,0,"HighF",4,938,"Include"
"RS2009_e1","RS2009_e1_1",19,894,1,"HighF",5,1321,"Include"
"RS2009_e1","RS2009_e1_1",19,895,1,"HighF",5,904,"Include"
"RS2009_e1","RS2009_e1_1",19,896,1,"HighF",2,730,"Include"
"RS2009_e1","RS2009_e1_1",19,897,0,"HighF",5,627,"Include"
"RS2009_e1","RS2009_e1_1",19,898,0,"HighF",2,695,"Include"
"RS2009_e1","RS2009_e1_1",19,899,1,"HighF",5,662,"Include"
"RS2009_e1","RS2009_e1_1",19,900,0,"LowF",2,843,"Include"
"RS2009_e1","RS2009_e1_1",19,901,1,"LowF",2,670,"Include"
"RS2009_e1","RS2009_e1_1",19,902,1,"HighF",5,618,"Include"
"RS2009_e1","RS2009_e1_1",19,903,0,"LowF",2,643,"Include"
"RS2009_e1","RS2009_e1_1",19,904,0,"LowF",4,531,"Include"
"RS2009_e1","RS2009_e1_1",19,905,1,"LowF",6,1035,"Include"
"RS2009_e1","RS2009_e1_1",19,906,0,"HighF",1,609,"Include"
"RS2009_e1","RS2009_e1_1",19,907,0,"LowF",1,653,"Include"
"RS2009_e1","RS2009_e1_1",19,908,1,"LowF",3,706,"Include"
"RS2009_e1","RS2009_e1_1",19,909,1,"LowF",4,1452,"Include"
"RS2009_e1","RS2009_e1_1",19,910,1,"LowF",4,679,"Include"
"RS2009_e1","RS2009_e1_1",19,911,1,"HighF",4,756,"Include"
"RS2009_e1","RS2009_e1_1",19,912,0,"HighF",2,1026,"Include"
"RS2009_e1","RS2009_e1_1",20,913,1,"LowF",6,607,"Include"
"RS2009_e1","RS2009_e1_1",20,914,0,"LowF",1,661,"Include"
"RS2009_e1","RS2009_e1_1",20,915,1,"LowF",4,1028,"Include"
"RS2009_e1","RS2009_e1_1",20,916,0,"LowF",1,634,"Include"
"RS2009_e1","RS2009_e1_1",20,917,1,"LowF",1,592,"Include"
"RS2009_e1","RS2009_e1_1",20,918,0,"LowF",4,723,"Include"
"RS2009_e1","RS2009_e1_1",20,919,0,"HighF",1,747,"Include"
"RS2009_e1","RS2009_e1_1",20,920,1,"HighF",6,574,"Include"
"RS2009_e1","RS2009_e1_1",20,921,1,"LowF",4,695,"Include"
"RS2009_e1","RS2009_e1_1",20,922,0,"HighF",1,556,"Include"
"RS2009_e1","RS2009_e1_1",20,923,0,"HighF",1,757,"Include"
"RS2009_e1","RS2009_e1_1",20,924,0,"HighF",1,626,"Include"
"RS2009_e1","RS2009_e1_1",20,925,1,"LowF",6,869,"Include"
"RS2009_e1","RS2009_e1_1",20,926,0,"HighF",1,669,"Include"
"RS2009_e1","RS2009_e1_1",20,927,0,"HighF",6,852,"Include"
"RS2009_e1","RS2009_e1_1",20,928,0,"HighF",1,659,"Include"
"RS2009_e1","RS2009_e1_1",20,929,0,"LowF",1,661,"Include"
"RS2009_e1","RS2009_e1_1",20,930,0,"HighF",5,1103,"Include"
"RS2009_e1","RS2009_e1_1",20,931,0,"LowF",2,765,"Include"
"RS2009_e1","RS2009_e1_1",20,932,0,"HighF",1,931,"Include"
"RS2009_e1","RS2009_e1_1",20,933,0,"LowF",1,913,"Include"
"RS2009_e1","RS2009_e1_1",20,934,1,"HighF",1,791,"Include"
"RS2009_e1","RS2009_e1_1",20,935,0,"LowF",2,661,"Include"
"RS2009_e1","RS2009_e1_1",20,936,1,"HighF",6,739,"Include"
"RS2009_e1","RS2009_e1_1",20,937,0,"LowF",5,791,"Include"
"RS2009_e1","RS2009_e1_1",20,938,0,"LowF",2,1357,"Include"
"RS2009_e1","RS2009_e1_1",20,939,1,"HighF",6,905,"Include"
"RS2009_e1","RS2009_e1_1",20,940,1,"HighF",6,1026,"Include"
"RS2009_e1","RS2009_e1_1",20,941,0,"HighF",1,694,"Include"
"RS2009_e1","RS2009_e1_1",20,942,0,"LowF",1,609,"Include"
"RS2009_e1","RS2009_e1_1",20,943,1,"HighF",1,714,"Include"
"RS2009_e1","RS2009_e1_1",20,944,1,"HighF",4,1175,"Include"
"RS2009_e1","RS2009_e1_1",20,945,1,"LowF",3,513,"Include"
"RS2009_e1","RS2009_e1_1",20,946,1,"HighF",3,1019,"Include"
"RS2009_e1","RS2009_e1_1",20,947,1,"HighF",6,741,"Include"
"RS2009_e1","RS2009_e1_1",20,948,0,"HighF",1,661,"Include"
"RS2009_e1","RS2009_e1_1",20,949,1,"LowF",3,1531,"Include"
"RS2009_e1","RS2009_e1_1",20,950,1,"LowF",3,801,"Include"
"RS2009_e1","RS2009_e1_1",20,951,1,"LowF",6,826,"Include"
"RS2009_e1","RS2009_e1_1",20,952,1,"LowF",6,556,"Include"
"RS2009_e1","RS2009_e1_1",20,953,0,"LowF",1,668,"Include"
"RS2009_e1","RS2009_e1_1",20,954,0,"HighF",2,1026,"Include"
"RS2009_e1","RS2009_e1_1",20,955,1,"HighF",2,973,"Include"
"RS2009_e1","RS2009_e1_1",20,956,1,"LowF",2,660,"Include"
"RS2009_e1","RS2009_e1_1",20,957,0,"LowF",3,687,"Include"
"RS2009_e1","RS2009_e1_1",20,958,1,"HighF",4,834,"Include"
"RS2009_e1","RS2009_e1_1",20,959,1,"HighF",4,626,"Include"
"RS2009_e1","RS2009_e1_1",20,960,1,"LowF",3,669,"Include"
"RS2009_e1","RS2009_e1_1",21,961,1,"HighF",6,809,"Include"
"RS2009_e1","RS2009_e1_1",21,962,1,"HighF",6,594,"Include"
"RS2009_e1","RS2009_e1_1",21,963,1,"LowF",1,426,"Include"
"RS2009_e1","RS2009_e1_1",21,964,1,"HighF",5,1035,"Include"
"RS2009_e1","RS2009_e1_1",21,965,0,"LowF",1,762,"Include"
"RS2009_e1","RS2009_e1_1",21,966,1,"LowF",2,554,"Include"
"RS2009_e1","RS2009_e1_1",21,967,1,"HighF",6,1474,"Include"
"RS2009_e1","RS2009_e1_1",21,968,0,"HighF",1,620,"Include"
"RS2009_e1","RS2009_e1_1",21,969,1,"LowF",2,850,"Include"
"RS2009_e1","RS2009_e1_1",21,970,1,"LowF",5,897,"Include"
"RS2009_e1","RS2009_e1_1",21,971,0,"LowF",1,775,"Include"
"RS2009_e1","RS2009_e1_1",21,972,0,"LowF",2,888,"Include"
"RS2009_e1","RS2009_e1_1",21,973,1,"HighF",6,814,"Include"
"RS2009_e1","RS2009_e1_1",21,974,0,"LowF",1,656,"Include"
"RS2009_e1","RS2009_e1_1",21,975,0,"HighF",1,645,"Include"
"RS2009_e1","RS2009_e1_1",21,976,0,"HighF",6,741,"Include"
"RS2009_e1","RS2009_e1_1",21,977,1,"HighF",5,572,"Include"
"RS2009_e1","RS2009_e1_1",21,978,1,"HighF",5,581,"Include"
"RS2009_e1","RS2009_e1_1",21,979,1,"LowF",5,592,"Include"
"RS2009_e1","RS2009_e1_1",21,980,1,"LowF",1,540,"Include"
"RS2009_e1","RS2009_e1_1",21,981,1,"LowF",5,456,"Include"
"RS2009_e1","RS2009_e1_1",21,982,0,"LowF",1,559,"Include"
"RS2009_e1","RS2009_e1_1",21,983,0,"LowF",2,771,"Include"
"RS2009_e1","RS2009_e1_1",21,984,1,"LowF",2,610,"Include"
"RS2009_e1","RS2009_e1_1",21,985,0,"LowF",2,716,"Include"
"RS2009_e1","RS2009_e1_1",21,986,0,"HighF",2,615,"Include"
"RS2009_e1","RS2009_e1_1",21,987,1,"LowF",2,466,"Include"
"RS2009_e1","RS2009_e1_1",21,988,0,"HighF",2,570,"Include"
"RS2009_e1","RS2009_e1_1",21,989,0,"LowF",1,781,"Include"
"RS2009_e1","RS2009_e1_1",21,990,0,"HighF",6,624,"Include"
"RS2009_e1","RS2009_e1_1",21,991,1,"HighF",6,797,"Include"
"RS2009_e1","RS2009_e1_1",21,992,0,"HighF",1,843,"Include"
"RS2009_e1","RS2009_e1_1",21,993,1,"HighF",2,763,"Include"
"RS2009_e1","RS2009_e1_1",21,994,1,"HighF",5,854,"Include"
"RS2009_e1","RS2009_e1_1",21,995,1,"HighF",5,832,"Include"
"RS2009_e1","RS2009_e1_1",21,996,0,"LowF",5,688,"Include"
"RS2009_e1","RS2009_e1_1",21,997,0,"LowF",2,896,"Include"
"RS2009_e1","RS2009_e1_1",21,998,0,"HighF",1,971,"Include"
"RS2009_e1","RS2009_e1_1",21,999,1,"HighF",6,760,"Include"
"RS2009_e1","RS2009_e1_1",21,1000,0,"HighF",1,741,"Include"
"RS2009_e1","RS2009_e1_1",21,1001,0,"HighF",5,645,"Include"
"RS2009_e1","RS2009_e1_1",21,1002,1,"LowF",5,538,"Include"
"RS2009_e1","RS2009_e1_1",21,1003,1,"LowF",2,476,"Include"
"RS2009_e1","RS2009_e1_1",21,1004,0,"HighF",5,507,"Include"
"RS2009_e1","RS2009_e1_1",21,1005,1,"LowF",5,823,"Include"
"RS2009_e1","RS2009_e1_1",21,1006,0,"LowF",3,836,"Include"
"RS2009_e1","RS2009_e1_1",21,1007,0,"HighF",3,602,"Include"
"RS2009_e1","RS2009_e1_1",21,1008,0,"LowF",3,897,"Include"
"RS2009_e1","RS2009_e1_1",22,1009,0,"HighF",1,704,"Include"
"RS2009_e1","RS2009_e1_1",22,1010,0,"LowF",1,647,"Include"
"RS2009_e1","RS2009_e1_1",22,1011,1,"HighF",5,699,"Include"
"RS2009_e1","RS2009_e1_1",22,1012,0,"LowF",5,455,"Include"
"RS2009_e1","RS2009_e1_1",22,1013,1,"LowF",5,730,"Include"
"RS2009_e1","RS2009_e1_1",22,1014,1,"LowF",5,603,"Include"
"RS2009_e1","RS2009_e1_1",22,1015,0,"LowF",1,550,"Include"
"RS2009_e1","RS2009_e1_1",22,1016,1,"LowF",6,710,"Include"
"RS2009_e1","RS2009_e1_1",22,1017,0,"LowF",1,645,"Include"
"RS2009_e1","RS2009_e1_1",22,1018,0,"LowF",1,728,"Include"
"RS2009_e1","RS2009_e1_1",22,1019,0,"LowF",5,940,"Include"
"RS2009_e1","RS2009_e1_1",22,1020,0,"HighF",1,939,"Include"
"RS2009_e1","RS2009_e1_1",22,1021,0,"LowF",2,709,"Include"
"RS2009_e1","RS2009_e1_1",22,1022,1,"HighF",6,806,"Include"
"RS2009_e1","RS2009_e1_1",22,1023,1,"HighF",6,583,"Include"
"RS2009_e1","RS2009_e1_1",22,1024,1,"LowF",6,614,"Include"
"RS2009_e1","RS2009_e1_1",22,1025,1,"LowF",1,790,"Include"
"RS2009_e1","RS2009_e1_1",22,1026,1,"HighF",5,784,"Include"
"RS2009_e1","RS2009_e1_1",22,1027,0,"HighF",5,911,"Include"
"RS2009_e1","RS2009_e1_1",22,1028,0,"HighF",2,710,"Include"
"RS2009_e1","RS2009_e1_1",22,1029,1,"LowF",2,779,"Include"
"RS2009_e1","RS2009_e1_1",22,1030,1,"HighF",4,917,"Include"
"RS2009_e1","RS2009_e1_1",22,1031,1,"HighF",4,704,"Include"
"RS2009_e1","RS2009_e1_1",22,1032,0,"HighF",4,821,"Include"
"RS2009_e1","RS2009_e1_1",22,1033,1,"HighF",6,833,"Include"
"RS2009_e1","RS2009_e1_1",22,1034,0,"HighF",1,688,"Include"
"RS2009_e1","RS2009_e1_1",22,1035,1,"LowF",5,582,"Include"
"RS2009_e1","RS2009_e1_1",22,1036,0,"HighF",2,906,"Include"
"RS2009_e1","RS2009_e1_1",22,1037,1,"HighF",6,823,"Include"
"RS2009_e1","RS2009_e1_1",22,1038,1,"HighF",6,654,"Include"
"RS2009_e1","RS2009_e1_1",22,1039,1,"LowF",2,765,"Include"
"RS2009_e1","RS2009_e1_1",22,1040,0,"HighF",5,677,"Include"
"RS2009_e1","RS2009_e1_1",22,1041,0,"LowF",2,569,"Include"
"RS2009_e1","RS2009_e1_1",22,1042,1,"HighF",6,720,"Include"
"RS2009_e1","RS2009_e1_1",22,1043,1,"HighF",5,688,"Include"
"RS2009_e1","RS2009_e1_1",22,1044,1,"LowF",2,731,"Include"
"RS2009_e1","RS2009_e1_1",22,1045,0,"HighF",5,868,"Include"
"RS2009_e1","RS2009_e1_1",22,1046,0,"LowF",5,582,"Include"
"RS2009_e1","RS2009_e1_1",22,1047,1,"LowF",5,507,"Include"
"RS2009_e1","RS2009_e1_1",22,1048,0,"HighF",1,657,"Include"
"RS2009_e1","RS2009_e1_1",22,1049,1,"HighF",5,668,"Include"
"RS2009_e1","RS2009_e1_1",22,1050,1,"LowF",5,603,"Include"
"RS2009_e1","RS2009_e1_1",22,1051,0,"HighF",1,551,"Include"
"RS2009_e1","RS2009_e1_1",22,1052,0,"HighF",1,674,"Include"
"RS2009_e1","RS2009_e1_1",22,1053,0,"LowF",5,612,"Include"
"RS2009_e1","RS2009_e1_1",22,1054,0,"LowF",1,718,"Include"
"RS2009_e1","RS2009_e1_1",22,1055,1,"LowF",1,548,"Include"
"RS2009_e1","RS2009_e1_1",22,1056,0,"LowF",2,596,"Include"
"RS2009_e1","RS2009_e1_1",23,1057,1,"LowF",1,537,"Include"
"RS2009_e1","RS2009_e1_1",23,1058,1,"HighF",5,593,"Include"
"RS2009_e1","RS2009_e1_1",23,1059,1,"LowF",5,570,"Include"
"RS2009_e1","RS2009_e1_1",23,1060,1,"HighF",5,708,"Include"
"RS2009_e1","RS2009_e1_1",23,1061,0,"HighF",1,614,"Include"
"RS2009_e1","RS2009_e1_1",23,1062,1,"LowF",5,783,"Include"
"RS2009_e1","RS2009_e1_1",23,1063,0,"HighF",1,764,"Include"
"RS2009_e1","RS2009_e1_1",23,1064,1,"HighF",5,604,"Include"
"RS2009_e1","RS2009_e1_1",23,1065,1,"HighF",5,551,"Include"
"RS2009_e1","RS2009_e1_1",23,1066,1,"HighF",5,644,"Include"
"RS2009_e1","RS2009_e1_1",23,1067,1,"LowF",1,637,"Include"
"RS2009_e1","RS2009_e1_1",23,1068,1,"HighF",5,666,"Include"
"RS2009_e1","RS2009_e1_1",23,1069,1,"LowF",5,749,"Include"
"RS2009_e1","RS2009_e1_1",23,1070,1,"HighF",6,696,"Include"
"RS2009_e1","RS2009_e1_1",23,1071,0,"HighF",1,540,"Include"
"RS2009_e1","RS2009_e1_1",23,1072,1,"LowF",1,604,"Include"
"RS2009_e1","RS2009_e1_1",23,1073,0,"HighF",1,647,"Include"
"RS2009_e1","RS2009_e1_1",23,1074,0,"HighF",1,816,"Include"
"RS2009_e1","RS2009_e1_1",23,1075,0,"LowF",2,530,"Include"
"RS2009_e1","RS2009_e1_1",23,1076,0,"LowF",2,498,"Include"
"RS2009_e1","RS2009_e1_1",23,1077,1,"HighF",2,687,"Include"
"RS2009_e1","RS2009_e1_1",23,1078,1,"LowF",5,423,"Include"
"RS2009_e1","RS2009_e1_1",23,1079,0,"HighF",1,770,"Include"
"RS2009_e1","RS2009_e1_1",23,1080,1,"LowF",2,583,"Include"
"RS2009_e1","RS2009_e1_1",23,1081,1,"LowF",5,476,"Include"
"RS2009_e1","RS2009_e1_1",23,1082,0,"HighF",2,560,"Include"
"RS2009_e1","RS2009_e1_1",23,1083,0,"LowF",2,574,"Include"
"RS2009_e1","RS2009_e1_1",23,1084,1,"LowF",2,582,"Include"
"RS2009_e1","RS2009_e1_1",23,1085,1,"LowF",5,403,"Include"
"RS2009_e1","RS2009_e1_1",23,1086,0,"HighF",2,581,"Include"
"RS2009_e1","RS2009_e1_1",23,1087,0,"HighF",1,498,"Include"
"RS2009_e1","RS2009_e1_1",23,1088,0,"HighF",2,518,"Include"
"RS2009_e1","RS2009_e1_1",23,1089,0,"LowF",1,643,"Include"
"RS2009_e1","RS2009_e1_1",23,1090,0,"LowF",5,539,"Include"
"RS2009_e1","RS2009_e1_1",23,1091,1,"HighF",5,497,"Include"
"RS2009_e1","RS2009_e1_1",23,1092,0,"HighF",1,601,"Include"
"RS2009_e1","RS2009_e1_1",23,1093,0,"LowF",2,482,"Include"
"RS2009_e1","RS2009_e1_1",23,1094,0,"LowF",5,465,"Include"
"RS2009_e1","RS2009_e1_1",23,1095,0,"LowF",2,531,"Include"
"RS2009_e1","RS2009_e1_1",23,1096,1,"HighF",5,623,"Include"
"RS2009_e1","RS2009_e1_1",23,1097,1,"HighF",2,402,"Include"
"RS2009_e1","RS2009_e1_1",23,1098,0,"LowF",5,454,"Include"
"RS2009_e1","RS2009_e1_1",23,1099,0,"LowF",2,444,"Include"
"RS2009_e1","RS2009_e1_1",23,1100,0,"LowF",2,423,"Include"
"RS2009_e1","RS2009_e1_1",23,1101,0,"HighF",2,518,"Include"
"RS2009_e1","RS2009_e1_1",23,1102,0,"LowF",5,496,"Include"
"RS2009_e1","RS2009_e1_1",23,1103,1,"LowF",2,359,"Include"
"RS2009_e1","RS2009_e1_1",23,1104,1,"HighF",2,551,"Include"
"RS2009_e1","RS2009_e1_1",24,1105,1,"HighF",6,683,"Include"
"RS2009_e1","RS2009_e1_1",24,1106,1,"LowF",6,425,"Include"
"RS2009_e1","RS2009_e1_1",24,1107,0,"LowF",2,497,"Include"
"RS2009_e1","RS2009_e1_1",24,1108,1,"HighF",5,507,"Include"
"RS2009_e1","RS2009_e1_1",24,1109,1,"LowF",5,633,"Include"
"RS2009_e1","RS2009_e1_1",24,1110,1,"LowF",1,634,"Include"
"RS2009_e1","RS2009_e1_1",24,1111,1,"HighF",5,457,"Include"
"RS2009_e1","RS2009_e1_1",24,1112,0,"HighF",5,507,"Include"
"RS2009_e1","RS2009_e1_1",24,1113,1,"HighF",2,602,"Include"
"RS2009_e1","RS2009_e1_1",24,1114,1,"HighF",5,606,"Include"
"RS2009_e1","RS2009_e1_1",24,1115,0,"HighF",2,688,"Include"
"RS2009_e1","RS2009_e1_1",24,1116,0,"LowF",2,489,"Include"
"RS2009_e1","RS2009_e1_1",24,1117,0,"HighF",2,624,"Include"
"RS2009_e1","RS2009_e1_1",24,1118,0,"LowF",2,584,"Include"
"RS2009_e1","RS2009_e1_1",24,1119,1,"HighF",5,517,"Include"
"RS2009_e1","RS2009_e1_1",24,1120,1,"LowF",5,487,"Include"
"RS2009_e1","RS2009_e1_1",24,1121,0,"LowF",2,539,"Include"
"RS2009_e1","RS2009_e1_1",24,1122,1,"LowF",5,800,"Include"
"RS2009_e1","RS2009_e1_1",24,1123,0,"HighF",2,644,"Include"
"RS2009_e1","RS2009_e1_1",24,1124,0,"HighF",2,463,"Include"
"RS2009_e1","RS2009_e1_1",24,1125,0,"LowF",5,528,"Include"
"RS2009_e1","RS2009_e1_1",24,1126,0,"HighF",3,805,"Include"
"RS2009_e1","RS2009_e1_1",24,1127,0,"HighF",1,676,"Include"
"RS2009_e1","RS2009_e1_1",24,1128,1,"LowF",5,995,"Include"
"RS2009_e1","RS2009_e1_1",24,1129,0,"LowF",6,984,"Include"
"RS2009_e1","RS2009_e1_1",24,1130,1,"HighF",5,845,"Include"
"RS2009_e1","RS2009_e1_1",24,1131,1,"LowF",5,686,"Include"
"RS2009_e1","RS2009_e1_1",24,1132,1,"LowF",2,634,"Include"
"RS2009_e1","RS2009_e1_1",24,1133,0,"LowF",5,420,"Include"
"RS2009_e1","RS2009_e1_1",24,1134,1,"LowF",1,602,"Include"
"RS2009_e1","RS2009_e1_1",24,1135,0,"HighF",2,738,"Include"
"RS2009_e1","RS2009_e1_1",24,1136,0,"LowF",5,831,"Include"
"RS2009_e1","RS2009_e1_1",24,1137,1,"HighF",3,1214,"Include"
"RS2009_e1","RS2009_e1_1",24,1138,0,"HighF",3,687,"Include"
"RS2009_e1","RS2009_e1_1",24,1139,0,"LowF",1,632,"Include"
"RS2009_e1","RS2009_e1_1",24,1140,1,"HighF",1,983,"Include"
"RS2009_e1","RS2009_e1_1",24,1141,1,"HighF",1,794,"Include"
"RS2009_e1","RS2009_e1_1",24,1142,0,"LowF",5,580,"Include"
"RS2009_e1","RS2009_e1_1",24,1143,0,"HighF",1,729,"Include"
"RS2009_e1","RS2009_e1_1",24,1144,1,"LowF",2,472,"Include"
"RS2009_e1","RS2009_e1_1",24,1145,0,"LowF",5,631,"Include"
"RS2009_e1","RS2009_e1_1",24,1146,1,"LowF",2,476,"Include"
"RS2009_e1","RS2009_e1_1",24,1147,0,"LowF",2,624,"Include"
"RS2009_e1","RS2009_e1_1",24,1148,0,"HighF",2,811,"Include"
"RS2009_e1","RS2009_e1_1",24,1149,1,"HighF",5,580,"Include"
"RS2009_e1","RS2009_e1_1",24,1150,1,"HighF",5,527,"Include"
"RS2009_e1","RS2009_e1_1",24,1151,1,"LowF",2,527,"Include"
"RS2009_e1","RS2009_e1_1",24,1152,0,"HighF",5,463,"Include"
"RS2009_e1","RS2009_e1_1",25,1153,0,"HighF",1,915,"Include"
"RS2009_e1","RS2009_e1_1",25,1154,0,"LowF",2,666,"Include"
"RS2009_e1","RS2009_e1_1",25,1155,0,"HighF",2,614,"Include"
"RS2009_e1","RS2009_e1_1",25,1156,0,"LowF",4,1288,"Include"
"RS2009_e1","RS2009_e1_1",25,1157,0,"LowF",3,772,"Include"
"RS2009_e1","RS2009_e1_1",25,1158,1,"LowF",5,875,"Include"
"RS2009_e1","RS2009_e1_1",25,1159,1,"LowF",6,840,"Include"
"RS2009_e1","RS2009_e1_1",25,1160,0,"LowF",1,677,"Include"
"RS2009_e1","RS2009_e1_1",25,1161,0,"LowF",1,669,"Include"
"RS2009_e1","RS2009_e1_1",25,1162,1,"LowF",3,928,"Include"
"RS2009_e1","RS2009_e1_1",25,1163,0,"LowF",1,1266,"Include"
"RS2009_e1","RS2009_e1_1",25,1164,1,"HighF",6,605,"Include"
"RS2009_e1","RS2009_e1_1",25,1165,0,"HighF",6,551,"Include"
"RS2009_e1","RS2009_e1_1",25,1166,0,"LowF",1,515,"Include"
"RS2009_e1","RS2009_e1_1",25,1167,1,"HighF",1,835,"Include"
"RS2009_e1","RS2009_e1_1",25,1168,0,"LowF",2,591,"Include"
"RS2009_e1","RS2009_e1_1",25,1169,1,"HighF",5,624,"Include"
"RS2009_e1","RS2009_e1_1",25,1170,1,"LowF",4,646,"Include"
"RS2009_e1","RS2009_e1_1",25,1171,0,"HighF",2,928,"Include"
"RS2009_e1","RS2009_e1_1",25,1172,1,"LowF",5,669,"Include"
"RS2009_e1","RS2009_e1_1",25,1173,1,"LowF",4,637,"Include"
"RS2009_e1","RS2009_e1_1",25,1174,1,"HighF",6,739,"Include"
"RS2009_e1","RS2009_e1_1",25,1175,1,"LowF",5,971,"Include"
"RS2009_e1","RS2009_e1_1",25,1176,1,"HighF",6,687,"Include"
"RS2009_e1","RS2009_e1_1",25,1177,1,"HighF",6,550,"Include"
"RS2009_e1","RS2009_e1_1",25,1178,1,"HighF",6,655,"Include"
"RS2009_e1","RS2009_e1_1",25,1179,1,"HighF",6,527,"Include"
"RS2009_e1","RS2009_e1_1",25,1180,0,"HighF",1,939,"Include"
"RS2009_e1","RS2009_e1_1",25,1181,1,"LowF",2,667,"Include"
"RS2009_e1","RS2009_e1_1",25,1182,0,"LowF",5,580,"Include"
"RS2009_e1","RS2009_e1_1",25,1183,0,"HighF",6,740,"Include"
"RS2009_e1","RS2009_e1_1",25,1184,1,"LowF",5,624,"Include"
"RS2009_e1","RS2009_e1_1",25,1185,0,"LowF",5,678,"Include"
"RS2009_e1","RS2009_e1_1",25,1186,1,"LowF",6,646,"Include"
"RS2009_e1","RS2009_e1_1",25,1187,1,"LowF",6,529,"Include"
"RS2009_e1","RS2009_e1_1",25,1188,0,"HighF",1,592,"Include"
"RS2009_e1","RS2009_e1_1",25,1189,1,"LowF",6,604,"Include"
"RS2009_e1","RS2009_e1_1",25,1190,1,"HighF",6,634,"Include"
"RS2009_e1","RS2009_e1_1",25,1191,0,"HighF",1,498,"Include"
"RS2009_e1","RS2009_e1_1",25,1192,1,"HighF",2,1034,"Include"
"RS2009_e1","RS2009_e1_1",25,1193,0,"HighF",2,665,"Include"
"RS2009_e1","RS2009_e1_1",25,1194,0,"HighF",2,659,"Include"
"RS2009_e1","RS2009_e1_1",25,1195,0,"HighF",5,782,"Include"
"RS2009_e1","RS2009_e1_1",25,1196,1,"HighF",6,742,"Include"
"RS2009_e1","RS2009_e1_1",25,1197,0,"LowF",6,573,"Include"
"RS2009_e1","RS2009_e1_1",25,1198,1,"HighF",5,571,"Include"
"RS2009_e1","RS2009_e1_1",25,1199,0,"LowF",2,686,"Include"
"RS2009_e1","RS2009_e1_1",25,1200,0,"HighF",2,570,"Include"
"RS2009_e1","RS2009_e1_1",26,1201,1,"LowF",6,588,"Include"
"RS2009_e1","RS2009_e1_1",26,1202,0,"HighF",2,823,"Include"
"RS2009_e1","RS2009_e1_1",26,1203,1,"LowF",5,644,"Include"
"RS2009_e1","RS2009_e1_1",26,1204,1,"LowF",2,562,"Include"
"RS2009_e1","RS2009_e1_1",26,1205,0,"LowF",5,1361,"Include"
"RS2009_e1","RS2009_e1_1",26,1206,0,"HighF",1,687,"Include"
"RS2009_e1","RS2009_e1_1",26,1207,1,"HighF",2,593,"Include"
"RS2009_e1","RS2009_e1_1",26,1208,1,"LowF",2,821,"Include"
"RS2009_e1","RS2009_e1_1",26,1209,1,"HighF",3,1033,"Include"
"RS2009_e1","RS2009_e1_1",26,1210,0,"HighF",3,937,"Include"
"RS2009_e1","RS2009_e1_1",26,1211,0,"HighF",4,729,"Include"
"RS2009_e1","RS2009_e1_1",26,1212,0,"HighF",1,781,"Include"
"RS2009_e1","RS2009_e1_1",26,1213,1,"LowF",5,847,"Include"
"RS2009_e1","RS2009_e1_1",26,1214,0,"LowF",5,658,"Include"
"RS2009_e1","RS2009_e1_1",26,1215,0,"HighF",2,931,"Include"
"RS2009_e1","RS2009_e1_1",26,1216,1,"HighF",5,836,"Include"
"RS2009_e1","RS2009_e1_1",26,1217,0,"HighF",1,1046,"Include"
"RS2009_e1","RS2009_e1_1",26,1218,1,"LowF",6,951,"Include"
"RS2009_e1","RS2009_e1_1",26,1219,0,"LowF",1,876,"Include"
"RS2009_e1","RS2009_e1_1",26,1220,1,"HighF",5,730,"Include"
"RS2009_e1","RS2009_e1_1",26,1221,0,"LowF",2,815,"Include"
"RS2009_e1","RS2009_e1_1",26,1222,0,"LowF",2,678,"Include"
"RS2009_e1","RS2009_e1_1",26,1223,0,"HighF",2,582,"Include"
"RS2009_e1","RS2009_e1_1",26,1224,0,"HighF",2,571,"Include"
"RS2009_e1","RS2009_e1_1",26,1225,1,"HighF",5,594,"Include"
"RS2009_e1","RS2009_e1_1",26,1226,1,"LowF",5,509,"Include"
"RS2009_e1","RS2009_e1_1",26,1227,0,"LowF",5,601,"Include"
"RS2009_e1","RS2009_e1_1",26,1228,1,"HighF",2,770,"Include"
"RS2009_e1","RS2009_e1_1",26,1229,1,"HighF",2,519,"Include"
"RS2009_e1","RS2009_e1_1",26,1230,1,"LowF",5,496,"Include"
"RS2009_e1","RS2009_e1_1",26,1231,0,"HighF",2,643,"Include"
"RS2009_e1","RS2009_e1_1",26,1232,1,"LowF",5,486,"Include"
"RS2009_e1","RS2009_e1_1",26,1233,0,"LowF",2,591,"Include"
"RS2009_e1","RS2009_e1_1",26,1234,0,"LowF",5,570,"Include"
"RS2009_e1","RS2009_e1_1",26,1235,0,"LowF",2,729,"Include"
"RS2009_e1","RS2009_e1_1",26,1236,0,"HighF",2,580,"Include"
"RS2009_e1","RS2009_e1_1",26,1237,1,"HighF",1,583,"Include"
"RS2009_e1","RS2009_e1_1",26,1238,1,"HighF",6,1437,"Include"
"RS2009_e1","RS2009_e1_1",26,1239,0,"LowF",6,569,"Include"
"RS2009_e1","RS2009_e1_1",26,1240,0,"LowF",1,487,"Include"
"RS2009_e1","RS2009_e1_1",26,1241,0,"LowF",1,784,"Include"
"RS2009_e1","RS2009_e1_1",26,1242,1,"HighF",2,603,"Include"
"RS2009_e1","RS2009_e1_1",26,1243,1,"LowF",5,581,"Include"
"RS2009_e1","RS2009_e1_1",26,1244,1,"LowF",5,497,"Include"
"RS2009_e1","RS2009_e1_1",26,1245,1,"HighF",5,507,"Include"
"RS2009_e1","RS2009_e1_1",26,1246,0,"HighF",5,581,"Include"
"RS2009_e1","RS2009_e1_1",26,1247,1,"HighF",5,655,"Include"
"RS2009_e1","RS2009_e1_1",26,1248,1,"LowF",1,518,"Include"
"RS2009_e1","RS2009_e1_1",27,1249,1,"HighF",6,663,"Include"
"RS2009_e1","RS2009_e1_1",27,1250,1,"LowF",6,454,"Include"
"RS2009_e1","RS2009_e1_1",27,1251,1,"HighF",2,811,"Include"
"RS2009_e1","RS2009_e1_1",27,1252,0,"LowF",5,604,"Include"
"RS2009_e1","RS2009_e1_1",27,1253,1,"LowF",2,633,"Include"
"RS2009_e1","RS2009_e1_1",27,1254,0,"LowF",1,585,"Include"
"RS2009_e1","RS2009_e1_1",27,1255,0,"HighF",1,625,"Include"
"RS2009_e1","RS2009_e1_1",27,1256,0,"HighF",1,748,"Include"
"RS2009_e1","RS2009_e1_1",27,1257,0,"HighF",2,792,"Include"
"RS2009_e1","RS2009_e1_1",27,1258,1,"LowF",5,793,"Include"
"RS2009_e1","RS2009_e1_1",27,1259,1,"HighF",5,666,"Include"
"RS2009_e1","RS2009_e1_1",27,1260,1,"HighF",5,634,"Include"
"RS2009_e1","RS2009_e1_1",27,1261,0,"HighF",5,697,"Include"
"RS2009_e1","RS2009_e1_1",27,1262,0,"LowF",2,596,"Include"
"RS2009_e1","RS2009_e1_1",27,1263,0,"LowF",2,500,"Include"
"RS2009_e1","RS2009_e1_1",27,1264,1,"LowF",5,720,"Include"
"RS2009_e1","RS2009_e1_1",27,1265,1,"LowF",5,634,"Include"
"RS2009_e1","RS2009_e1_1",27,1266,1,"LowF",5,644,"Include"
"RS2009_e1","RS2009_e1_1",27,1267,1,"HighF",5,549,"Include"
"RS2009_e1","RS2009_e1_1",27,1268,0,"HighF",6,474,"Include"
"RS2009_e1","RS2009_e1_1",27,1269,0,"LowF",1,717,"Include"
"RS2009_e1","RS2009_e1_1",27,1270,0,"LowF",2,825,"Include"
"RS2009_e1","RS2009_e1_1",27,1271,1,"LowF",2,583,"Include"
"RS2009_e1","RS2009_e1_1",27,1272,1,"HighF",5,593,"Include"
"RS2009_e1","RS2009_e1_1",27,1273,1,"HighF",2,569,"Include"
"RS2009_e1","RS2009_e1_1",27,1274,0,"LowF",5,487,"Include"
"RS2009_e1","RS2009_e1_1",27,1275,0,"LowF",5,506,"Include"
"RS2009_e1","RS2009_e1_1",27,1276,1,"LowF",2,885,"Include"
"RS2009_e1","RS2009_e1_1",27,1277,0,"HighF",1,520,"Include"
"RS2009_e1","RS2009_e1_1",27,1278,0,"HighF",1,677,"Include"
"RS2009_e1","RS2009_e1_1",27,1279,1,"HighF",5,1119,"Include"
"RS2009_e1","RS2009_e1_1",27,1280,1,"HighF",5,929,"Include"
"RS2009_e1","RS2009_e1_1",27,1281,0,"LowF",5,718,"Include"
"RS2009_e1","RS2009_e1_1",27,1282,1,"LowF",4,793,"Include"
"RS2009_e1","RS2009_e1_1",27,1283,1,"HighF",6,749,"Include"
"RS2009_e1","RS2009_e1_1",27,1284,0,"HighF",3,697,"Include"
"RS2009_e1","RS2009_e1_1",27,1285,0,"HighF",3,739,"Include"
"RS2009_e1","RS2009_e1_1",27,1286,0,"LowF",3,805,"Include"
"RS2009_e1","RS2009_e1_1",27,1287,0,"HighF",1,563,"Include"
"RS2009_e1","RS2009_e1_1",27,1288,1,"LowF",5,809,"Include"
"RS2009_e1","RS2009_e1_1",27,1289,1,"LowF",5,698,"Include"
"RS2009_e1","RS2009_e1_1",27,1290,0,"HighF",5,655,"Include"
"RS2009_e1","RS2009_e1_1",27,1291,1,"LowF",4,613,"Include"
"RS2009_e1","RS2009_e1_1",27,1292,0,"LowF",5,631,"Include"
"RS2009_e1","RS2009_e1_1",27,1293,1,"HighF",1,456,"Include"
"RS2009_e1","RS2009_e1_1",27,1294,1,"HighF",6,647,"Include"
"RS2009_e1","RS2009_e1_1",27,1295,0,"HighF",1,730,"Include"
"RS2009_e1","RS2009_e1_1",27,1296,0,"LowF",2,647,"Include"
"RS2009_e1","RS2009_e1_1",28,1297,0,"HighF",1,642,"Include"
"RS2009_e1","RS2009_e1_1",28,1298,0,"HighF",2,477,"Include"
"RS2009_e1","RS2009_e1_1",28,1299,1,"LowF",2,477,"Include"
"RS2009_e1","RS2009_e1_1",28,1300,0,"HighF",2,814,"Include"
"RS2009_e1","RS2009_e1_1",28,1301,0,"LowF",2,625,"Include"
"RS2009_e1","RS2009_e1_1",28,1302,1,"LowF",5,571,"Include"
"RS2009_e1","RS2009_e1_1",28,1303,1,"HighF",5,542,"Include"
"RS2009_e1","RS2009_e1_1",28,1304,1,"HighF",5,530,"Include"
"RS2009_e1","RS2009_e1_1",28,1305,1,"HighF",5,593,"Include"
"RS2009_e1","RS2009_e1_1",28,1306,1,"HighF",6,496,"Include"
"RS2009_e1","RS2009_e1_1",28,1307,1,"LowF",6,696,"Include"
"RS2009_e1","RS2009_e1_1",28,1308,0,"HighF",1,749,"Include"
"RS2009_e1","RS2009_e1_1",28,1309,1,"LowF",2,741,"Include"
"RS2009_e1","RS2009_e1_1",28,1310,1,"HighF",1,528,"Include"
"RS2009_e1","RS2009_e1_1",28,1311,0,"LowF",6,393,"Include"
"RS2009_e1","RS2009_e1_1",28,1312,1,"LowF",5,496,"Include"
"RS2009_e1","RS2009_e1_1",28,1313,0,"LowF",2,497,"Include"
"RS2009_e1","RS2009_e1_1",28,1314,0,"HighF",2,611,"Include"
"RS2009_e1","RS2009_e1_1",28,1315,1,"HighF",5,604,"Include"
"RS2009_e1","RS2009_e1_1",28,1316,1,"LowF",5,604,"Include"
"RS2009_e1","RS2009_e1_1",28,1317,0,"HighF",1,655,"Include"
"RS2009_e1","RS2009_e1_1",28,1318,1,"LowF",1,625,"Include"
"RS2009_e1","RS2009_e1_1",28,1319,0,"HighF",1,698,"Include"
"RS2009_e1","RS2009_e1_1",28,1320,1,"LowF",5,626,"Include"
"RS2009_e1","RS2009_e1_1",28,1321,1,"HighF",1,708,"Include"
"RS2009_e1","RS2009_e1_1",28,1322,1,"LowF",5,719,"Include"
"RS2009_e1","RS2009_e1_1",28,1323,0,"LowF",5,665,"Include"
"RS2009_e1","RS2009_e1_1",28,1324,0,"HighF",1,559,"Include"
"RS2009_e1","RS2009_e1_1",28,1325,1,"HighF",6,781,"Include"
"RS2009_e1","RS2009_e1_1",28,1326,0,"LowF",1,533,"Include"
"RS2009_e1","RS2009_e1_1",28,1327,1,"LowF",6,540,"Include"
"RS2009_e1","RS2009_e1_1",28,1328,0,"LowF",1,374,"Include"
"RS2009_e1","RS2009_e1_1",28,1329,0,"LowF",1,594,"Include"
"RS2009_e1","RS2009_e1_1",28,1330,1,"HighF",2,436,"Include"
"RS2009_e1","RS2009_e1_1",28,1331,0,"LowF",5,835,"Include"
"RS2009_e1","RS2009_e1_1",28,1332,1,"LowF",3,562,"Include"
"RS2009_e1","RS2009_e1_1",28,1333,0,"HighF",4,560,"Include"
"RS2009_e1","RS2009_e1_1",28,1334,0,"LowF",3,465,"Include"
"RS2009_e1","RS2009_e1_1",28,1335,0,"LowF",3,810,"Include"
"RS2009_e1","RS2009_e1_1",28,1336,0,"HighF",3,621,"Include"
"RS2009_e1","RS2009_e1_1",28,1337,1,"LowF",3,538,"Include"
"RS2009_e1","RS2009_e1_1",28,1338,1,"HighF",3,550,"Include"
"RS2009_e1","RS2009_e1_1",28,1339,0,"LowF",1,569,"Include"
"RS2009_e1","RS2009_e1_1",28,1340,0,"HighF",1,847,"Include"
"RS2009_e1","RS2009_e1_1",28,1341,1,"HighF",5,794,"Include"
"RS2009_e1","RS2009_e1_1",28,1342,0,"LowF",5,643,"Include"
"RS2009_e1","RS2009_e1_1",28,1343,1,"HighF",2,581,"Include"
"RS2009_e1","RS2009_e1_1",28,1344,0,"HighF",2,581,"Include"
"RS2009_e1","RS2009_e1_1",29,1345,1,"LowF",6,638,"Include"
"RS2009_e1","RS2009_e1_1",29,1346,1,"HighF",6,443,"Include"
"RS2009_e1","RS2009_e1_1",29,1347,1,"HighF",6,484,"Include"
"RS2009_e1","RS2009_e1_1",29,1348,1,"LowF",5,633,"Include"
"RS2009_e1","RS2009_e1_1",29,1349,1,"LowF",5,526,"Include"
"RS2009_e1","RS2009_e1_1",29,1350,1,"LowF",5,548,"Include"
"RS2009_e1","RS2009_e1_1",29,1351,0,"HighF",5,547,"Include"
"RS2009_e1","RS2009_e1_1",29,1352,0,"LowF",5,645,"Include"
"RS2009_e1","RS2009_e1_1",29,1353,0,"HighF",2,486,"Include"
"RS2009_e1","RS2009_e1_1",29,1354,1,"LowF",2,571,"Include"
"RS2009_e1","RS2009_e1_1",29,1355,0,"LowF",3,740,"Include"
"RS2009_e1","RS2009_e1_1",29,1356,1,"LowF",5,623,"Include"
"RS2009_e1","RS2009_e1_1",29,1357,1,"HighF",5,539,"Include"
"RS2009_e1","RS2009_e1_1",29,1358,0,"LowF",5,507,"Include"
"RS2009_e1","RS2009_e1_1",29,1359,0,"LowF",6,526,"Include"
"RS2009_e1","RS2009_e1_1",29,1360,0,"HighF",5,738,"Include"
"RS2009_e1","RS2009_e1_1",29,1361,1,"LowF",2,803,"Include"
"RS2009_e1","RS2009_e1_1",29,1362,1,"HighF",1,1055,"Include"
"RS2009_e1","RS2009_e1_1",29,1363,0,"LowF",1,678,"Include"
"RS2009_e1","RS2009_e1_1",29,1364,0,"HighF",1,741,"Include"
"RS2009_e1","RS2009_e1_1",29,1365,1,"HighF",6,720,"Include"
"RS2009_e1","RS2009_e1_1",29,1366,0,"LowF",5,961,"Include"
"RS2009_e1","RS2009_e1_1",29,1367,0,"HighF",5,648,"Include"
"RS2009_e1","RS2009_e1_1",29,1368,1,"HighF",3,624,"Include"
"RS2009_e1","RS2009_e1_1",29,1369,1,"HighF",6,643,"Include"
"RS2009_e1","RS2009_e1_1",29,1370,0,"LowF",5,684,"Include"
"RS2009_e1","RS2009_e1_1",29,1371,1,"HighF",5,549,"Include"
"RS2009_e1","RS2009_e1_1",29,1372,1,"HighF",6,624,"Include"
"RS2009_e1","RS2009_e1_1",29,1373,0,"HighF",5,825,"Include"
"RS2009_e1","RS2009_e1_1",29,1374,0,"LowF",3,686,"Include"
"RS2009_e1","RS2009_e1_1",29,1375,1,"HighF",6,844,"Include"
"RS2009_e1","RS2009_e1_1",29,1376,0,"HighF",6,480,"Include"
"RS2009_e1","RS2009_e1_1",29,1377,0,"HighF",2,1382,"Include"
"RS2009_e1","RS2009_e1_1",29,1378,1,"LowF",5,591,"Include"
"RS2009_e1","RS2009_e1_1",29,1379,1,"LowF",5,520,"Include"
"RS2009_e1","RS2009_e1_1",29,1380,0,"LowF",6,560,"Include"
"RS2009_e1","RS2009_e1_1",29,1381,0,"LowF",5,486,"Include"
"RS2009_e1","RS2009_e1_1",29,1382,0,"LowF",5,486,"Include"
"RS2009_e1","RS2009_e1_1",29,1383,0,"HighF",2,534,"Include"
"RS2009_e1","RS2009_e1_1",29,1384,0,"HighF",2,467,"Include"
"RS2009_e1","RS2009_e1_1",29,1385,1,"LowF",2,402,"Include"
"RS2009_e1","RS2009_e1_1",29,1386,0,"LowF",2,518,"Include"
"RS2009_e1","RS2009_e1_1",29,1387,0,"HighF",2,622,"Include"
"RS2009_e1","RS2009_e1_1",29,1388,1,"LowF",2,468,"Include"
"RS2009_e1","RS2009_e1_1",29,1389,0,"HighF",6,518,"Include"
"RS2009_e1","RS2009_e1_1",29,1390,1,"LowF",2,552,"Include"
"RS2009_e1","RS2009_e1_1",29,1391,1,"HighF",5,635,"Include"
"RS2009_e1","RS2009_e1_1",29,1392,1,"HighF",5,591,"Include"
"RS2009_e1","RS2009_e1_1",30,1393,1,"HighF",1,854,"Include"
"RS2009_e1","RS2009_e1_1",30,1394,1,"HighF",6,803,"Include"
"RS2009_e1","RS2009_e1_1",30,1395,1,"LowF",5,497,"Include"
"RS2009_e1","RS2009_e1_1",30,1396,1,"LowF",5,728,"Include"
"RS2009_e1","RS2009_e1_1",30,1397,1,"HighF",5,647,"Include"
"RS2009_e1","RS2009_e1_1",30,1398,1,"LowF",5,648,"Include"
"RS2009_e1","RS2009_e1_1",30,1399,1,"LowF",2,563,"Include"
"RS2009_e1","RS2009_e1_1",30,1400,0,"HighF",2,753,"Include"
"RS2009_e1","RS2009_e1_1",30,1401,1,"LowF",5,690,"Include"
"RS2009_e1","RS2009_e1_1",30,1402,0,"HighF",2,699,"Include"
"RS2009_e1","RS2009_e1_1",30,1403,0,"HighF",2,655,"Include"
"RS2009_e1","RS2009_e1_1",30,1404,1,"LowF",2,654,"Include"
"RS2009_e1","RS2009_e1_1",30,1405,0,"HighF",1,928,"Include"
"RS2009_e1","RS2009_e1_1",30,1406,0,"LowF",1,686,"Include"
"RS2009_e1","RS2009_e1_1",30,1407,0,"HighF",1,667,"Include"
"RS2009_e1","RS2009_e1_1",30,1408,0,"HighF",1,572,"Include"
"RS2009_e1","RS2009_e1_1",30,1409,1,"HighF",6,501,"Include"
"RS2009_e1","RS2009_e1_1",30,1410,0,"LowF",1,732,"Include"
"RS2009_e1","RS2009_e1_1",30,1411,0,"LowF",2,595,"Include"
"RS2009_e1","RS2009_e1_1",30,1412,0,"HighF",2,563,"Include"
"RS2009_e1","RS2009_e1_1",30,1413,1,"HighF",5,518,"Include"
"RS2009_e1","RS2009_e1_1",30,1414,1,"LowF",5,638,"Include"
"RS2009_e1","RS2009_e1_1",30,1415,0,"LowF",5,520,"Include"
"RS2009_e1","RS2009_e1_1",30,1416,0,"LowF",6,646,"Include"
"RS2009_e1","RS2009_e1_1",30,1417,0,"LowF",4,697,"Include"
"RS2009_e1","RS2009_e1_1",30,1418,0,"LowF",3,559,"Include"
"RS2009_e1","RS2009_e1_1",30,1419,1,"HighF",5,824,"Include"
"RS2009_e1","RS2009_e1_1",30,1420,0,"LowF",5,648,"Include"
"RS2009_e1","RS2009_e1_1",30,1421,1,"HighF",4,571,"Include"
"RS2009_e1","RS2009_e1_1",30,1422,1,"LowF",4,655,"Include"
"RS2009_e1","RS2009_e1_1",30,1423,0,"LowF",2,641,"Include"
"RS2009_e1","RS2009_e1_1",30,1424,1,"HighF",5,981,"Include"
"RS2009_e1","RS2009_e1_1",30,1425,0,"HighF",1,668,"Include"
"RS2009_e1","RS2009_e1_1",30,1426,1,"LowF",6,604,"Include"
"RS2009_e1","RS2009_e1_1",30,1427,1,"HighF",6,875,"Include"
"RS2009_e1","RS2009_e1_1",30,1428,1,"HighF",6,508,"Include"
"RS2009_e1","RS2009_e1_1",30,1429,0,"LowF",6,571,"Include"
"RS2009_e1","RS2009_e1_1",30,1430,0,"HighF",5,859,"Include"
"RS2009_e1","RS2009_e1_1",30,1431,1,"HighF",5,908,"Include"
"RS2009_e1","RS2009_e1_1",30,1432,1,"HighF",5,541,"Include"
"RS2009_e1","RS2009_e1_1",30,1433,0,"LowF",2,782,"Include"
"RS2009_e1","RS2009_e1_1",30,1434,1,"LowF",2,720,"Include"
"RS2009_e1","RS2009_e1_1",30,1435,1,"LowF",2,760,"Include"
"RS2009_e1","RS2009_e1_1",30,1436,1,"LowF",2,685,"Include"
"RS2009_e1","RS2009_e1_1",30,1437,0,"HighF",2,667,"Include"
"RS2009_e1","RS2009_e1_1",30,1438,0,"LowF",5,511,"Include"
"RS2009_e1","RS2009_e1_1",30,1439,0,"HighF",1,813,"Include"
"RS2009_e1","RS2009_e1_1",30,1440,0,"HighF",1,867,"Include"
"RS2009_e1","RS2009_e1_1",31,1441,1,"LowF",1,746,"Include"
"RS2009_e1","RS2009_e1_1",31,1442,1,"HighF",6,644,"Include"
"RS2009_e1","RS2009_e1_1",31,1443,0,"LowF",5,426,"Include"
"RS2009_e1","RS2009_e1_1",31,1444,1,"HighF",2,1016,"Include"
"RS2009_e1","RS2009_e1_1",31,1445,0,"LowF",5,878,"Include"
"RS2009_e1","RS2009_e1_1",31,1446,0,"LowF",5,756,"Include"
"RS2009_e1","RS2009_e1_1",31,1447,0,"LowF",2,773,"Include"
"RS2009_e1","RS2009_e1_1",31,1448,0,"LowF",2,800,"Include"
"RS2009_e1","RS2009_e1_1",31,1449,1,"HighF",5,599,"Include"
"RS2009_e1","RS2009_e1_1",31,1450,0,"HighF",2,773,"Include"
"RS2009_e1","RS2009_e1_1",31,1451,0,"HighF",2,1103,"Include"
"RS2009_e1","RS2009_e1_1",31,1452,1,"LowF",6,826,"Include"
"RS2009_e1","RS2009_e1_1",31,1453,0,"LowF",2,827,"Include"
"RS2009_e1","RS2009_e1_1",31,1454,0,"HighF",2,738,"Include"
"RS2009_e1","RS2009_e1_1",31,1455,1,"HighF",6,574,"Include"
"RS2009_e1","RS2009_e1_1",31,1456,0,"HighF",2,617,"Include"
"RS2009_e1","RS2009_e1_1",31,1457,1,"LowF",6,912,"Include"
"RS2009_e1","RS2009_e1_1",31,1458,1,"LowF",6,809,"Include"
"RS2009_e1","RS2009_e1_1",31,1459,1,"LowF",2,643,"Include"
"RS2009_e1","RS2009_e1_1",31,1460,1,"LowF",6,495,"Include"
"RS2009_e1","RS2009_e1_1",31,1461,0,"LowF",5,816,"Include"
"RS2009_e1","RS2009_e1_1",31,1462,0,"HighF",2,799,"Include"
"RS2009_e1","RS2009_e1_1",31,1463,0,"HighF",2,792,"Include"
"RS2009_e1","RS2009_e1_1",31,1464,0,"LowF",2,626,"Include"
"RS2009_e1","RS2009_e1_1",31,1465,0,"HighF",2,626,"Include"
"RS2009_e1","RS2009_e1_1",31,1466,1,"LowF",6,591,"Include"
"RS2009_e1","RS2009_e1_1",31,1467,0,"HighF",2,721,"Include"
"RS2009_e1","RS2009_e1_1",31,1468,1,"LowF",6,721,"Include"
"RS2009_e1","RS2009_e1_1",31,1469,1,"HighF",6,668,"Include"
"RS2009_e1","RS2009_e1_1",31,1470,0,"LowF",5,973,"Include"
"RS2009_e1","RS2009_e1_1",31,1471,0,"LowF",1,1461,"Include"
"RS2009_e1","RS2009_e1_1",31,1472,1,"LowF",2,1009,"Include"
"RS2009_e1","RS2009_e1_1",31,1473,1,"HighF",6,687,"Include"
"RS2009_e1","RS2009_e1_1",31,1474,0,"HighF",2,842,"Include"
"RS2009_e1","RS2009_e1_1",31,1475,1,"LowF",2,765,"Include"
"RS2009_e1","RS2009_e1_1",31,1476,1,"LowF",5,444,"Include"
"RS2009_e1","RS2009_e1_1",31,1477,1,"HighF",5,547,"Include"
"RS2009_e1","RS2009_e1_1",31,1478,0,"HighF",2,772,"Include"
"RS2009_e1","RS2009_e1_1",31,1479,1,"HighF",2,565,"Include"
"RS2009_e1","RS2009_e1_1",31,1480,1,"HighF",5,703,"Include"
"RS2009_e1","RS2009_e1_1",31,1481,1,"LowF",5,616,"Include"
"RS2009_e1","RS2009_e1_1",31,1482,0,"LowF",2,563,"Include"
"RS2009_e1","RS2009_e1_1",31,1483,1,"HighF",5,529,"Include"
"RS2009_e1","RS2009_e1_1",31,1484,0,"LowF",2,695,"Include"
"RS2009_e1","RS2009_e1_1",31,1485,1,"HighF",5,557,"Include"
"RS2009_e1","RS2009_e1_1",31,1486,0,"HighF",2,600,"Include"
"RS2009_e1","RS2009_e1_1",31,1487,1,"HighF",5,550,"Include"
"RS2009_e1","RS2009_e1_1",31,1488,0,"HighF",2,817,"Include"
"RS2009_e1","RS2009_e1_1",32,1489,1,"HighF",1,850,"Include"
"RS2009_e1","RS2009_e1_1",32,1490,1,"LowF",6,590,"Include"
"RS2009_e1","RS2009_e1_1",32,1491,0,"HighF",2,634,"Include"
"RS2009_e1","RS2009_e1_1",32,1492,0,"LowF",2,530,"Include"
"RS2009_e1","RS2009_e1_1",32,1493,1,"LowF",5,556,"Include"
"RS2009_e1","RS2009_e1_1",32,1494,0,"LowF",2,555,"Include"
"RS2009_e1","RS2009_e1_1",32,1495,1,"LowF",5,538,"Include"
"RS2009_e1","RS2009_e1_1",32,1496,1,"HighF",6,755,"Include"
"RS2009_e1","RS2009_e1_1",32,1497,0,"LowF",2,721,"Include"
"RS2009_e1","RS2009_e1_1",32,1498,1,"LowF",5,547,"Include"
"RS2009_e1","RS2009_e1_1",32,1499,0,"LowF",2,530,"Include"
"RS2009_e1","RS2009_e1_1",32,1500,0,"HighF",2,816,"Include"
"RS2009_e1","RS2009_e1_1",32,1501,1,"LowF",5,618,"Include"
"RS2009_e1","RS2009_e1_1",32,1502,0,"HighF",2,825,"Include"
"RS2009_e1","RS2009_e1_1",32,1503,1,"LowF",5,600,"Include"
"RS2009_e1","RS2009_e1_1",32,1504,1,"LowF",5,547,"Include"
"RS2009_e1","RS2009_e1_1",32,1505,0,"HighF",2,477,"Include"
"RS2009_e1","RS2009_e1_1",32,1506,1,"LowF",5,445,"Include"
"RS2009_e1","RS2009_e1_1",32,1507,0,"LowF",5,425,"Include"
"RS2009_e1","RS2009_e1_1",32,1508,0,"HighF",2,468,"Include"
"RS2009_e1","RS2009_e1_1",32,1509,1,"HighF",5,599,"Include"
"RS2009_e1","RS2009_e1_1",32,1510,1,"LowF",5,564,"Include"
"RS2009_e1","RS2009_e1_1",32,1511,0,"HighF",2,451,"Include"
"RS2009_e1","RS2009_e1_1",32,1512,1,"HighF",5,591,"Include"
"RS2009_e1","RS2009_e1_1",32,1513,0,"HighF",2,529,"Include"
"RS2009_e1","RS2009_e1_1",32,1514,1,"HighF",5,512,"Include"
"RS2009_e1","RS2009_e1_1",32,1515,1,"HighF",2,670,"Include"
"RS2009_e1","RS2009_e1_1",32,1516,1,"HighF",5,502,"Include"
"RS2009_e1","RS2009_e1_1",32,1517,1,"HighF",5,529,"Include"
"RS2009_e1","RS2009_e1_1",32,1518,1,"LowF",2,495,"Include"
"RS2009_e1","RS2009_e1_1",32,1519,0,"HighF",5,512,"Include"
"RS2009_e1","RS2009_e1_1",32,1520,1,"HighF",5,808,"Include"
"RS2009_e1","RS2009_e1_1",32,1521,1,"LowF",5,643,"Include"
"RS2009_e1","RS2009_e1_1",32,1522,0,"HighF",5,660,"Include"
"RS2009_e1","RS2009_e1_1",32,1523,0,"LowF",5,617,"Include"
"RS2009_e1","RS2009_e1_1",32,1524,1,"HighF",2,582,"Include"
"RS2009_e1","RS2009_e1_1",32,1525,0,"LowF",3,1547,"Include"
"RS2009_e1","RS2009_e1_1",32,1526,1,"HighF",4,1016,"Include"
"RS2009_e1","RS2009_e1_1",32,1527,0,"HighF",4,852,"Include"
"RS2009_e1","RS2009_e1_1",32,1528,0,"LowF",3,790,"Include"
"RS2009_e1","RS2009_e1_1",32,1529,0,"LowF",3,999,"Include"
"RS2009_e1","RS2009_e1_1",32,1530,0,"HighF",3,730,"Include"
"RS2009_e1","RS2009_e1_1",32,1531,0,"LowF",3,783,"Include"
"RS2009_e1","RS2009_e1_1",32,1532,1,"LowF",3,1226,"Include"
"RS2009_e1","RS2009_e1_1",32,1533,0,"LowF",2,912,"Include"
"RS2009_e1","RS2009_e1_1",32,1534,0,"HighF",5,818,"Include"
"RS2009_e1","RS2009_e1_1",32,1535,0,"LowF",5,1035,"Include"
"RS2009_e1","RS2009_e1_1",32,1536,1,"HighF",5,843,"Include"
"RS2009_e1","RS2009_e1_1",33,1537,0,"LowF",1,1371,"Include"
"RS2009_e1","RS2009_e1_1",33,1538,0,"HighF",2,538,"Include"
"RS2009_e1","RS2009_e1_1",33,1539,1,"HighF",5,496,"Include"
"RS2009_e1","RS2009_e1_1",33,1540,0,"LowF",5,678,"Include"
"RS2009_e1","RS2009_e1_1",33,1541,1,"LowF",5,591,"Include"
"RS2009_e1","RS2009_e1_1",33,1542,1,"HighF",5,530,"Include"
"RS2009_e1","RS2009_e1_1",33,1543,1,"LowF",5,521,"Include"
"RS2009_e1","RS2009_e1_1",33,1544,0,"LowF",2,573,"Include"
"RS2009_e1","RS2009_e1_1",33,1545,1,"HighF",5,469,"Include"
"RS2009_e1","RS2009_e1_1",33,1546,0,"HighF",2,548,"Include"
"RS2009_e1","RS2009_e1_1",33,1547,1,"HighF",5,512,"Include"
"RS2009_e1","RS2009_e1_1",33,1548,0,"LowF",5,644,"Include"
"RS2009_e1","RS2009_e1_1",33,1549,1,"LowF",5,469,"Include"
"RS2009_e1","RS2009_e1_1",33,1550,0,"HighF",2,738,"Include"
"RS2009_e1","RS2009_e1_1",33,1551,1,"LowF",5,548,"Include"
"RS2009_e1","RS2009_e1_1",33,1552,1,"HighF",5,669,"Include"
"RS2009_e1","RS2009_e1_1",33,1553,1,"LowF",5,609,"Include"
"RS2009_e1","RS2009_e1_1",33,1554,1,"HighF",5,557,"Include"
"RS2009_e1","RS2009_e1_1",33,1555,0,"HighF",5,547,"Include"
"RS2009_e1","RS2009_e1_1",33,1556,1,"HighF",5,564,"Include"
"RS2009_e1","RS2009_e1_1",33,1557,0,"LowF",2,390,"Include"
"RS2009_e1","RS2009_e1_1",33,1558,1,"LowF",2,905,"Include"
"RS2009_e1","RS2009_e1_1",33,1559,0,"HighF",5,826,"Include"
"RS2009_e1","RS2009_e1_1",33,1560,1,"LowF",5,521,"Include"
"RS2009_e1","RS2009_e1_1",33,1561,1,"LowF",5,505,"Include"
"RS2009_e1","RS2009_e1_1",33,1562,1,"HighF",5,652,"Include"
"RS2009_e1","RS2009_e1_1",33,1563,1,"HighF",5,557,"Include"
"RS2009_e1","RS2009_e1_1",33,1564,0,"LowF",2,574,"Include"
"RS2009_e1","RS2009_e1_1",33,1565,0,"HighF",2,558,"Include"
"RS2009_e1","RS2009_e1_1",33,1566,1,"HighF",5,695,"Include"
"RS2009_e1","RS2009_e1_1",33,1567,0,"HighF",2,574,"Include"
"RS2009_e1","RS2009_e1_1",33,1568,1,"LowF",5,774,"Include"
"RS2009_e1","RS2009_e1_1",33,1569,0,"HighF",5,548,"Include"
"RS2009_e1","RS2009_e1_1",33,1570,0,"HighF",5,513,"Include"
"RS2009_e1","RS2009_e1_1",33,1571,0,"LowF",2,470,"Include"
"RS2009_e1","RS2009_e1_1",33,1572,0,"LowF",2,538,"Include"
"RS2009_e1","RS2009_e1_1",33,1573,1,"LowF",2,599,"Include"
"RS2009_e1","RS2009_e1_1",33,1574,0,"LowF",5,522,"Include"
"RS2009_e1","RS2009_e1_1",33,1575,0,"HighF",2,739,"Include"
"RS2009_e1","RS2009_e1_1",33,1576,0,"HighF",2,755,"Include"
"RS2009_e1","RS2009_e1_1",33,1577,0,"LowF",5,565,"Include"
"RS2009_e1","RS2009_e1_1",33,1578,1,"HighF",5,1033,"Include"
"RS2009_e1","RS2009_e1_1",33,1579,0,"LowF",4,711,"Include"
"RS2009_e1","RS2009_e1_1",33,1580,1,"LowF",3,546,"Include"
"RS2009_e1","RS2009_e1_1",33,1581,1,"HighF",5,661,"Include"
"RS2009_e1","RS2009_e1_1",33,1582,0,"LowF",5,774,"Include"
"RS2009_e1","RS2009_e1_1",33,1583,0,"HighF",2,747,"Include"
"RS2009_e1","RS2009_e1_1",33,1584,1,"LowF",5,661,"Include"
"RS2009_e1","RS2009_e1_1",34,1585,1,"LowF",6,1320,"Include"
"RS2009_e1","RS2009_e1_1",34,1586,0,"HighF",1,896,"Include"
"RS2009_e1","RS2009_e1_1",34,1587,1,"LowF",5,810,"Include"
"RS2009_e1","RS2009_e1_1",34,1588,0,"LowF",2,635,"Include"
"RS2009_e1","RS2009_e1_1",34,1589,1,"HighF",5,956,"Include"
"RS2009_e1","RS2009_e1_1",34,1590,0,"HighF",2,922,"Include"
"RS2009_e1","RS2009_e1_1",34,1591,1,"LowF",5,713,"Include"
"RS2009_e1","RS2009_e1_1",34,1592,0,"LowF",2,573,"Include"
"RS2009_e1","RS2009_e1_1",34,1593,0,"HighF",5,513,"Include"
"RS2009_e1","RS2009_e1_1",34,1594,1,"HighF",2,564,"Include"
"RS2009_e1","RS2009_e1_1",34,1595,1,"HighF",5,564,"Include"
"RS2009_e1","RS2009_e1_1",34,1596,0,"LowF",5,451,"Include"
"RS2009_e1","RS2009_e1_1",34,1597,1,"LowF",5,520,"Include"
"RS2009_e1","RS2009_e1_1",34,1598,0,"LowF",5,487,"Include"
"RS2009_e1","RS2009_e1_1",34,1599,1,"LowF",5,608,"Include"
"RS2009_e1","RS2009_e1_1",34,1600,0,"LowF",2,330,"Include"
"RS2009_e1","RS2009_e1_1",34,1601,1,"HighF",2,547,"Include"
"RS2009_e1","RS2009_e1_1",34,1602,0,"HighF",2,727,"Include"
"RS2009_e1","RS2009_e1_1",34,1603,1,"HighF",5,556,"Include"
"RS2009_e1","RS2009_e1_1",34,1604,1,"LowF",2,617,"Include"
"RS2009_e1","RS2009_e1_1",34,1605,1,"LowF",5,347,"Include"
"RS2009_e1","RS2009_e1_1",34,1606,0,"LowF",5,461,"Include"
"RS2009_e1","RS2009_e1_1",34,1607,0,"HighF",2,633,"Include"
"RS2009_e1","RS2009_e1_1",34,1608,0,"HighF",2,452,"Include"
"RS2009_e1","RS2009_e1_1",34,1609,0,"LowF",5,436,"Include"
"RS2009_e1","RS2009_e1_1",34,1610,0,"HighF",5,522,"Include"
"RS2009_e1","RS2009_e1_1",34,1611,1,"HighF",3,1964,"Include"
"RS2009_e1","RS2009_e1_1",34,1612,0,"HighF",4,722,"Include"
"RS2009_e1","RS2009_e1_1",34,1613,0,"LowF",4,712,"Include"
"RS2009_e1","RS2009_e1_1",34,1614,0,"LowF",4,756,"Include"
"RS2009_e1","RS2009_e1_1",34,1615,0,"LowF",4,486,"Include"
"RS2009_e1","RS2009_e1_1",34,1616,1,"HighF",4,1008,"Include"
"RS2009_e1","RS2009_e1_1",34,1617,0,"LowF",2,590,"Include"
"RS2009_e1","RS2009_e1_1",34,1618,1,"HighF",5,573,"Include"
"RS2009_e1","RS2009_e1_1",34,1619,1,"HighF",5,556,"Include"
"RS2009_e1","RS2009_e1_1",34,1620,1,"LowF",5,634,"Include"
"RS2009_e1","RS2009_e1_1",34,1621,1,"HighF",5,625,"Include"
"RS2009_e1","RS2009_e1_1",34,1622,0,"HighF",5,938,"Include"
"RS2009_e1","RS2009_e1_1",34,1623,1,"HighF",5,590,"Include"
"RS2009_e1","RS2009_e1_1",34,1624,1,"LowF",5,495,"Include"
"RS2009_e1","RS2009_e1_1",34,1625,1,"HighF",5,530,"Include"
"RS2009_e1","RS2009_e1_1",34,1626,0,"LowF",2,730,"Include"
"RS2009_e1","RS2009_e1_1",34,1627,0,"HighF",2,652,"Include"
"RS2009_e1","RS2009_e1_1",34,1628,1,"LowF",2,948,"Include"
"RS2009_e1","RS2009_e1_1",34,1629,0,"HighF",2,747,"Include"
"RS2009_e1","RS2009_e1_1",34,1630,0,"HighF",5,479,"Include"
"RS2009_e1","RS2009_e1_1",34,1631,1,"LowF",2,574,"Include"
"RS2009_e1","RS2009_e1_1",34,1632,1,"LowF",4,408,"Include"
"RS2009_e1","RS2009_e1_1",35,1633,0,"HighF",1,799,"Include"
"RS2009_e1","RS2009_e1_1",35,1634,1,"LowF",1,974,"Include"
"RS2009_e1","RS2009_e1_1",35,1635,1,"HighF",2,871,"Include"
"RS2009_e1","RS2009_e1_1",35,1636,0,"HighF",2,1365,"Include"
"RS2009_e1","RS2009_e1_1",35,1637,1,"HighF",5,514,"Include"
"RS2009_e1","RS2009_e1_1",35,1638,0,"HighF",6,852,"Include"
"RS2009_e1","RS2009_e1_1",35,1639,1,"LowF",6,747,"Include"
"RS2009_e1","RS2009_e1_1",35,1640,0,"HighF",5,940,"Include"
"RS2009_e1","RS2009_e1_1",35,1641,0,"LowF",2,669,"Include"
"RS2009_e1","RS2009_e1_1",35,1642,1,"LowF",2,643,"Include"
"RS2009_e1","RS2009_e1_1",35,1643,1,"HighF",5,608,"Include"
"RS2009_e1","RS2009_e1_1",35,1644,0,"HighF",2,999,"Include"
"RS2009_e1","RS2009_e1_1",35,1645,1,"HighF",5,785,"Include"
"RS2009_e1","RS2009_e1_1",35,1646,0,"HighF",3,792,"Include"
"RS2009_e1","RS2009_e1_1",35,1647,1,"LowF",4,766,"Include"
"RS2009_e1","RS2009_e1_1",35,1648,1,"LowF",4,583,"Include"
"RS2009_e1","RS2009_e1_1",35,1649,0,"LowF",3,809,"Include"
"RS2009_e1","RS2009_e1_1",35,1650,1,"HighF",4,852,"Include"
"RS2009_e1","RS2009_e1_1",35,1651,1,"HighF",5,1087,"Include"
"RS2009_e1","RS2009_e1_1",35,1652,1,"LowF",5,913,"Include"
"RS2009_e1","RS2009_e1_1",35,1653,0,"LowF",5,661,"Include"
"RS2009_e1","RS2009_e1_1",35,1654,0,"LowF",2,757,"Include"
"RS2009_e1","RS2009_e1_1",35,1655,0,"LowF",2,669,"Include"
"RS2009_e1","RS2009_e1_1",35,1656,1,"HighF",5,722,"Include"
"RS2009_e1","RS2009_e1_1",35,1657,1,"LowF",5,600,"Include"
"RS2009_e1","RS2009_e1_1",35,1658,1,"LowF",2,461,"Include"
"RS2009_e1","RS2009_e1_1",35,1659,0,"LowF",5,462,"Include"
"RS2009_e1","RS2009_e1_1",35,1660,1,"HighF",5,598,"Include"
"RS2009_e1","RS2009_e1_1",35,1661,1,"LowF",5,609,"Include"
"RS2009_e1","RS2009_e1_1",35,1662,0,"LowF",5,686,"Include"
"RS2009_e1","RS2009_e1_1",35,1663,0,"LowF",2,443,"Include"
"RS2009_e1","RS2009_e1_1",35,1664,0,"HighF",5,574,"Include"
"RS2009_e1","RS2009_e1_1",35,1665,1,"LowF",5,452,"Include"
"RS2009_e1","RS2009_e1_1",35,1666,0,"LowF",5,487,"Include"
"RS2009_e1","RS2009_e1_1",35,1667,1,"LowF",5,643,"Include"
"RS2009_e1","RS2009_e1_1",35,1668,1,"HighF",5,547,"Include"
"RS2009_e1","RS2009_e1_1",35,1669,1,"HighF",5,565,"Include"
"RS2009_e1","RS2009_e1_1",35,1670,1,"HighF",5,791,"Include"
"RS2009_e1","RS2009_e1_1",35,1671,0,"LowF",5,774,"Include"
"RS2009_e1","RS2009_e1_1",35,1672,0,"HighF",5,712,"Include"
"RS2009_e1","RS2009_e1_1",35,1673,0,"LowF",3,600,"Include"
"RS2009_e1","RS2009_e1_1",35,1674,0,"HighF",4,774,"Include"
"RS2009_e1","RS2009_e1_1",35,1675,0,"HighF",3,669,"Include"
"RS2009_e1","RS2009_e1_1",35,1676,1,"LowF",2,625,"Include"
"RS2009_e1","RS2009_e1_1",35,1677,0,"HighF",3,555,"Include"
"RS2009_e1","RS2009_e1_1",35,1678,1,"HighF",4,738,"Include"
"RS2009_e1","RS2009_e1_1",35,1679,0,"LowF",4,513,"Include"
"RS2009_e1","RS2009_e1_1",35,1680,0,"HighF",6,625,"Include"
"RS2009_e1","RS2009_e1_1",36,1681,1,"HighF",6,703,"Include"
"RS2009_e1","RS2009_e1_1",36,1682,0,"LowF",1,1155,"Include"
"RS2009_e1","RS2009_e1_1",36,1683,1,"LowF",5,957,"Include"
"RS2009_e1","RS2009_e1_1",36,1684,1,"HighF",5,625,"Include"
"RS2009_e1","RS2009_e1_1",36,1685,1,"LowF",5,556,"Include"
"RS2009_e1","RS2009_e1_1",36,1686,1,"LowF",5,522,"Include"
"RS2009_e1","RS2009_e1_1",36,1687,1,"LowF",5,539,"Include"
"RS2009_e1","RS2009_e1_1",36,1688,1,"LowF",5,694,"Include"
"RS2009_e1","RS2009_e1_1",36,1689,0,"LowF",2,843,"Include"
"RS2009_e1","RS2009_e1_1",36,1690,1,"HighF",5,626,"Include"
"RS2009_e1","RS2009_e1_1",36,1691,0,"HighF",2,696,"Include"
"RS2009_e1","RS2009_e1_1",36,1692,0,"LowF",2,670,"Include"
"RS2009_e1","RS2009_e1_1",36,1693,0,"HighF",2,747,"Include"
"RS2009_e1","RS2009_e1_1",36,1694,1,"HighF",5,931,"Include"
"RS2009_e1","RS2009_e1_1",36,1695,0,"LowF",2,531,"Include"
"RS2009_e1","RS2009_e1_1",36,1696,0,"HighF",2,634,"Include"
"RS2009_e1","RS2009_e1_1",36,1697,1,"LowF",5,583,"Include"
"RS2009_e1","RS2009_e1_1",36,1698,1,"LowF",5,599,"Include"
"RS2009_e1","RS2009_e1_1",36,1699,1,"HighF",5,843,"Include"
"RS2009_e1","RS2009_e1_1",36,1700,0,"LowF",5,643,"Include"
"RS2009_e1","RS2009_e1_1",36,1701,0,"LowF",2,748,"Include"
