"exp","id","block","item","trial","isold","condition","rating","RT","excluding"
"SB2020_e3","SB2020_e3_1",1,"tempo",1,1,"FixedFrequency",3,3897,"Include"
"SB2020_e3","SB2020_e3_1",1,"slang",2,0,"FixedFrequency",1,2984,"Include"
"SB2020_e3","SB2020_e3_1",1,"joker",3,1,"FixedFrequency",5,1809,"Include"
"SB2020_e3","SB2020_e3_1",1,"manic",4,0,"FixedFrequency",3,3379,"Include"
"SB2020_e3","SB2020_e3_1",1,"pumps",5,0,"FixedFrequency",2,1599,"Include"
"SB2020_e3","SB2020_e3_1",1,"wares",6,1,"FixedFrequency",6,2842,"Include"
"SB2020_e3","SB2020_e3_1",1,"abide",7,1,"FixedFrequency",6,1298,"Include"
"SB2020_e3","SB2020_e3_1",1,"debit",8,0,"FixedFrequency",1,1325,"Include"
"SB2020_e3","SB2020_e3_1",1,"birch",9,1,"FixedFrequency",6,2171,"Include"
"SB2020_e3","SB2020_e3_1",1,"boast",10,1,"FixedFrequency",6,1928,"Include"
"SB2020_e3","SB2020_e3_1",1,"dwarf",11,1,"FixedFrequency",6,1337,"Include"
"SB2020_e3","SB2020_e3_1",1,"tally",12,0,"FixedFrequency",2,3487,"Include"
"SB2020_e3","SB2020_e3_1",1,"sheds",13,1,"FixedFrequency",5,3044,"Include"
"SB2020_e3","SB2020_e3_1",1,"goody",14,0,"FixedFrequency",2,2943,"Include"
"SB2020_e3","SB2020_e3_1",1,"tonic",15,1,"FixedFrequency",2,2146,"Include"
"SB2020_e3","SB2020_e3_1",1,"teeny",16,0,"FixedFrequency",4,3932,"Include"
"SB2020_e3","SB2020_e3_1",1,"annoy",17,0,"FixedFrequency",2,4594,"Include"
"SB2020_e3","SB2020_e3_1",1,"canon",18,0,"FixedFrequency",2,3729,"Include"
"SB2020_e3","SB2020_e3_1",1,"brunt",19,1,"FixedFrequency",2,5158,"Include"
"SB2020_e3","SB2020_e3_1",1,"melts",20,0,"FixedFrequency",3,1535,"Include"
"SB2020_e3","SB2020_e3_1",1,"fakes",21,1,"FixedFrequency",4,2200,"Include"
"SB2020_e3","SB2020_e3_1",1,"cigar",22,0,"FixedFrequency",1,2331,"Include"
"SB2020_e3","SB2020_e3_1",1,"exile",23,1,"FixedFrequency",6,1208,"Include"
"SB2020_e3","SB2020_e3_1",1,"wakes",24,1,"FixedFrequency",6,3422,"Include"
"SB2020_e3","SB2020_e3_1",1,"lamps",25,1,"FixedFrequency",6,807,"Include"
"SB2020_e3","SB2020_e3_1",1,"bolts",26,1,"FixedFrequency",6,1016,"Include"
"SB2020_e3","SB2020_e3_1",1,"decay",27,1,"FixedFrequency",6,710,"Include"
"SB2020_e3","SB2020_e3_1",1,"cluck",28,0,"FixedFrequency",1,1805,"Include"
"SB2020_e3","SB2020_e3_1",1,"chime",29,1,"FixedFrequency",2,2948,"Include"
"SB2020_e3","SB2020_e3_1",1,"spear",30,0,"FixedFrequency",2,2462,"Include"
"SB2020_e3","SB2020_e3_1",1,"twigs",31,1,"FixedFrequency",2,1044,"Include"
"SB2020_e3","SB2020_e3_1",1,"hymns",32,1,"FixedFrequency",6,1442,"Include"
"SB2020_e3","SB2020_e3_1",1,"essay",33,1,"FixedFrequency",3,1107,"Include"
"SB2020_e3","SB2020_e3_1",1,"yolks",34,0,"FixedFrequency",3,1264,"Include"
"SB2020_e3","SB2020_e3_1",1,"grate",35,1,"FixedFrequency",2,3437,"Include"
"SB2020_e3","SB2020_e3_1",1,"fatty",36,1,"FixedFrequency",1,2040,"Include"
"SB2020_e3","SB2020_e3_1",1,"cents",37,0,"FixedFrequency",1,1006,"Include"
"SB2020_e3","SB2020_e3_1",1,"nudge",38,0,"FixedFrequency",1,2371,"Include"
"SB2020_e3","SB2020_e3_1",1,"biker",39,0,"FixedFrequency",3,3892,"Include"
"SB2020_e3","SB2020_e3_1",1,"flask",40,0,"FixedFrequency",1,9777,"Include"
"SB2020_e3","SB2020_e3_1",1,"quota",41,0,"FixedFrequency",2,994,"Include"
"SB2020_e3","SB2020_e3_1",1,"scams",42,0,"FixedFrequency",6,1502,"Include"
"SB2020_e3","SB2020_e3_1",1,"skins",43,1,"FixedFrequency",3,1647,"Include"
"SB2020_e3","SB2020_e3_1",1,"bland",44,0,"FixedFrequency",3,2690,"Include"
"SB2020_e3","SB2020_e3_1",1,"apron",45,1,"FixedFrequency",2,1780,"Include"
"SB2020_e3","SB2020_e3_1",1,"dunes",46,0,"FixedFrequency",4,2928,"Include"
"SB2020_e3","SB2020_e3_1",1,"slack",47,0,"FixedFrequency",6,1571,"Include"
"SB2020_e3","SB2020_e3_1",1,"stump",48,1,"FixedFrequency",2,1240,"Include"
"SB2020_e3","SB2020_e3_1",1,"cubes",49,0,"FixedFrequency",5,2571,"Include"
"SB2020_e3","SB2020_e3_1",1,"algae",50,0,"FixedFrequency",2,1443,"Include"
"SB2020_e3","SB2020_e3_1",1,"bowel",51,0,"FixedFrequency",1,1210,"Include"
"SB2020_e3","SB2020_e3_1",1,"munch",52,1,"FixedFrequency",2,1067,"Include"
"SB2020_e3","SB2020_e3_1",1,"broom",53,0,"FixedFrequency",2,6857,"Include"
"SB2020_e3","SB2020_e3_1",1,"linen",54,0,"FixedFrequency",3,2272,"Include"
"SB2020_e3","SB2020_e3_1",1,"deeds",55,0,"FixedFrequency",1,1105,"Include"
"SB2020_e3","SB2020_e3_1",1,"miner",56,0,"FixedFrequency",4,1876,"Include"
"SB2020_e3","SB2020_e3_1",1,"tides",57,1,"FixedFrequency",2,1251,"Include"
"SB2020_e3","SB2020_e3_1",1,"leafy",58,1,"FixedFrequency",1,3460,"Include"
"SB2020_e3","SB2020_e3_1",1,"slugs",59,1,"FixedFrequency",6,3644,"Include"
"SB2020_e3","SB2020_e3_1",1,"spade",60,1,"FixedFrequency",6,1057,"Include"
"SB2020_e3","SB2020_e3_1",1,"germs",61,1,"FixedFrequency",5,1715,"Include"
"SB2020_e3","SB2020_e3_1",1,"graph",62,1,"FixedFrequency",3,1707,"Include"
"SB2020_e3","SB2020_e3_1",1,"notch",63,0,"FixedFrequency",3,1493,"Include"
"SB2020_e3","SB2020_e3_1",1,"tweak",64,0,"FixedFrequency",3,730,"Include"
"SB2020_e3","SB2020_e3_1",1,"cello",65,1,"FixedFrequency",3,857,"Include"
"SB2020_e3","SB2020_e3_1",1,"necks",66,1,"FixedFrequency",3,773,"Include"
"SB2020_e3","SB2020_e3_1",1,"filth",67,1,"FixedFrequency",4,755,"Include"
"SB2020_e3","SB2020_e3_1",1,"tapes",68,1,"FixedFrequency",2,2427,"Include"
"SB2020_e3","SB2020_e3_1",1,"voter",69,1,"FixedFrequency",6,1341,"Include"
"SB2020_e3","SB2020_e3_1",1,"crest",70,1,"FixedFrequency",3,5658,"Include"
"SB2020_e3","SB2020_e3_1",1,"grape",71,0,"FixedFrequency",2,2634,"Include"
"SB2020_e3","SB2020_e3_1",1,"flute",72,1,"FixedFrequency",5,1777,"Include"
"SB2020_e3","SB2020_e3_1",1,"ethos",73,1,"FixedFrequency",3,2072,"Include"
"SB2020_e3","SB2020_e3_1",1,"inter",74,0,"FixedFrequency",5,2284,"Include"
"SB2020_e3","SB2020_e3_1",1,"baulk",75,0,"FixedFrequency",1,1556,"Include"
"SB2020_e3","SB2020_e3_1",1,"craze",76,0,"FixedFrequency",2,1240,"Include"
"SB2020_e3","SB2020_e3_1",1,"beers",77,0,"FixedFrequency",2,2355,"Include"
"SB2020_e3","SB2020_e3_1",1,"genie",78,0,"FixedFrequency",2,1326,"Include"
"SB2020_e3","SB2020_e3_1",1,"masks",79,1,"FixedFrequency",3,1453,"Include"
"SB2020_e3","SB2020_e3_1",1,"tenor",80,0,"FixedFrequency",1,976,"Include"
"SB2020_e3","SB2020_e3_1",1,"finer",81,0,"FixedFrequency",1,705,"Include"
"SB2020_e3","SB2020_e3_1",1,"aunts",82,1,"FixedFrequency",6,850,"Include"
"SB2020_e3","SB2020_e3_1",1,"gorge",83,1,"FixedFrequency",6,1126,"Include"
"SB2020_e3","SB2020_e3_1",1,"quail",84,0,"FixedFrequency",3,4248,"Include"
"SB2020_e3","SB2020_e3_1",1,"perch",85,1,"FixedFrequency",6,2269,"Include"
"SB2020_e3","SB2020_e3_1",1,"budge",86,1,"FixedFrequency",5,2492,"Include"
"SB2020_e3","SB2020_e3_1",1,"mixer",87,1,"FixedFrequency",3,1310,"Include"
"SB2020_e3","SB2020_e3_1",1,"wrath",88,0,"FixedFrequency",3,1487,"Include"
"SB2020_e3","SB2020_e3_1",1,"porch",89,0,"FixedFrequency",4,1912,"Include"
"SB2020_e3","SB2020_e3_1",1,"probe",90,1,"FixedFrequency",2,789,"Include"
"SB2020_e3","SB2020_e3_1",1,"panto",91,0,"FixedFrequency",1,3654,"Include"
"SB2020_e3","SB2020_e3_1",1,"myths",92,0,"FixedFrequency",4,2388,"Include"
"SB2020_e3","SB2020_e3_1",1,"moths",93,1,"FixedFrequency",3,2166,"Include"
"SB2020_e3","SB2020_e3_1",1,"cling",94,0,"FixedFrequency",2,1721,"Include"
"SB2020_e3","SB2020_e3_1",1,"fairs",95,0,"FixedFrequency",1,929,"Include"
"SB2020_e3","SB2020_e3_1",1,"tutor",96,0,"FixedFrequency",2,891,"Include"
"SB2020_e3","SB2020_e3_1",1,"cloak",97,0,"FixedFrequency",2,992,"Include"
"SB2020_e3","SB2020_e3_1",1,"pagan",98,0,"FixedFrequency",2,1952,"Include"
"SB2020_e3","SB2020_e3_1",1,"belts",99,0,"FixedFrequency",1,885,"Include"
"SB2020_e3","SB2020_e3_1",1,"rehab",100,0,"FixedFrequency",1,907,"Include"
"SB2020_e3","SB2020_e3_1",1,"troop",101,1,"FixedFrequency",2,685,"Include"
"SB2020_e3","SB2020_e3_1",1,"leaks",102,1,"FixedFrequency",1,828,"Include"
"SB2020_e3","SB2020_e3_1",1,"shone",103,0,"FixedFrequency",2,799,"Include"
"SB2020_e3","SB2020_e3_1",1,"tramp",104,1,"FixedFrequency",6,995,"Include"
"SB2020_e3","SB2020_e3_1",1,"sworn",105,0,"FixedFrequency",3,1608,"Include"
"SB2020_e3","SB2020_e3_1",1,"sewer",106,1,"FixedFrequency",2,3460,"Include"
"SB2020_e3","SB2020_e3_1",1,"roofs",107,0,"FixedFrequency",1,2067,"Include"
"SB2020_e3","SB2020_e3_1",1,"baths",108,0,"FixedFrequency",1,1368,"Include"
"SB2020_e3","SB2020_e3_1",1,"stomp",109,0,"FixedFrequency",2,1915,"Include"
"SB2020_e3","SB2020_e3_1",1,"sucks",110,1,"FixedFrequency",3,1544,"Include"
"SB2020_e3","SB2020_e3_1",1,"cumin",111,1,"FixedFrequency",6,1221,"Include"
"SB2020_e3","SB2020_e3_1",1,"basin",112,0,"FixedFrequency",4,1441,"Include"
"SB2020_e3","SB2020_e3_1",1,"slime",113,1,"FixedFrequency",5,1575,"Include"
"SB2020_e3","SB2020_e3_1",1,"bangs",114,0,"FixedFrequency",2,1799,"Include"
"SB2020_e3","SB2020_e3_1",1,"comin",115,0,"FixedFrequency",1,1625,"Include"
"SB2020_e3","SB2020_e3_1",1,"vogue",116,0,"FixedFrequency",2,1331,"Include"
"SB2020_e3","SB2020_e3_1",1,"tarts",117,1,"FixedFrequency",1,1515,"Include"
"SB2020_e3","SB2020_e3_1",1,"stead",118,0,"FixedFrequency",2,675,"Include"
"SB2020_e3","SB2020_e3_1",1,"caddy",119,1,"FixedFrequency",4,1430,"Include"
"SB2020_e3","SB2020_e3_1",1,"gypsy",120,1,"FixedFrequency",3,2126,"Include"
"SB2020_e3","SB2020_e3_1",1,"flair",121,0,"FixedFrequency",2,2129,"Include"
"SB2020_e3","SB2020_e3_1",1,"crook",122,1,"FixedFrequency",1,1258,"Include"
"SB2020_e3","SB2020_e3_1",1,"vomit",123,1,"FixedFrequency",2,3960,"Include"
"SB2020_e3","SB2020_e3_1",1,"broth",124,0,"FixedFrequency",3,2566,"Include"
"SB2020_e3","SB2020_e3_1",1,"ratio",125,1,"FixedFrequency",6,1914,"Include"
"SB2020_e3","SB2020_e3_1",1,"booty",126,1,"FixedFrequency",4,1809,"Include"
"SB2020_e3","SB2020_e3_1",1,"slash",127,0,"FixedFrequency",2,1749,"Include"
"SB2020_e3","SB2020_e3_1",1,"poets",128,1,"FixedFrequency",6,1058,"Include"
"SB2020_e3","SB2020_e3_1",1,"demon",129,1,"FixedFrequency",2,3014,"Include"
"SB2020_e3","SB2020_e3_1",1,"obese",130,0,"FixedFrequency",3,1109,"Include"
"SB2020_e3","SB2020_e3_1",1,"plums",131,1,"FixedFrequency",2,1556,"Include"
"SB2020_e3","SB2020_e3_1",1,"moody",132,1,"FixedFrequency",4,1636,"Include"
"SB2020_e3","SB2020_e3_1",1,"warns",133,0,"FixedFrequency",2,1101,"Include"
"SB2020_e3","SB2020_e3_1",1,"cuppa",134,0,"FixedFrequency",3,938,"Include"
"SB2020_e3","SB2020_e3_1",1,"moons",135,0,"FixedFrequency",1,1183,"Include"
"SB2020_e3","SB2020_e3_1",1,"remit",136,1,"FixedFrequency",1,2038,"Include"
"SB2020_e3","SB2020_e3_1",1,"lager",137,1,"FixedFrequency",6,992,"Include"
"SB2020_e3","SB2020_e3_1",1,"baton",138,0,"FixedFrequency",2,1349,"Include"
"SB2020_e3","SB2020_e3_1",1,"hints",139,0,"FixedFrequency",2,2106,"Include"
"SB2020_e3","SB2020_e3_1",1,"fries",140,0,"FixedFrequency",1,1241,"Include"
"SB2020_e3","SB2020_e3_1",1,"gavel",141,0,"FixedFrequency",1,1318,"Include"
"SB2020_e3","SB2020_e3_1",1,"whiff",142,1,"FixedFrequency",5,2029,"Include"
"SB2020_e3","SB2020_e3_1",1,"fudge",143,1,"FixedFrequency",6,1265,"Include"
"SB2020_e3","SB2020_e3_1",1,"ounce",144,0,"FixedFrequency",4,3321,"Include"
"SB2020_e3","SB2020_e3_1",1,"midst",145,0,"FixedFrequency",3,988,"Include"
"SB2020_e3","SB2020_e3_1",1,"bossy",146,0,"FixedFrequency",2,826,"Include"
"SB2020_e3","SB2020_e3_1",1,"siren",147,1,"FixedFrequency",2,2114,"Include"
"SB2020_e3","SB2020_e3_1",1,"tease",148,1,"FixedFrequency",6,983,"Include"
"SB2020_e3","SB2020_e3_1",1,"menus",149,1,"FixedFrequency",2,1228,"Include"
"SB2020_e3","SB2020_e3_1",1,"wills",150,0,"FixedFrequency",3,1524,"Include"
"SB2020_e3","SB2020_e3_1",1,"misty",151,1,"FixedFrequency",2,1370,"Include"
"SB2020_e3","SB2020_e3_1",1,"macho",152,1,"FixedFrequency",1,1037,"Include"
"SB2020_e3","SB2020_e3_1",1,"swine",153,1,"FixedFrequency",5,921,"Include"
"SB2020_e3","SB2020_e3_1",1,"clamp",154,1,"FixedFrequency",2,2859,"Include"
"SB2020_e3","SB2020_e3_1",1,"buggy",155,1,"FixedFrequency",4,994,"Include"
"SB2020_e3","SB2020_e3_1",1,"manly",156,1,"FixedFrequency",2,1415,"Include"
"SB2020_e3","SB2020_e3_1",1,"plots",157,0,"FixedFrequency",3,994,"Include"
"SB2020_e3","SB2020_e3_1",1,"mound",158,0,"FixedFrequency",1,1267,"Include"
"SB2020_e3","SB2020_e3_1",1,"cones",159,0,"FixedFrequency",3,1679,"Include"
"SB2020_e3","SB2020_e3_1",1,"swamp",160,1,"FixedFrequency",3,839,"Include"
"SB2020_e3","SB2020_e3_1",1,"scans",161,1,"FixedFrequency",6,1016,"Include"
"SB2020_e3","SB2020_e3_1",1,"spins",162,1,"FixedFrequency",2,1216,"Include"
"SB2020_e3","SB2020_e3_1",1,"babes",163,1,"FixedFrequency",6,996,"Include"
"SB2020_e3","SB2020_e3_1",1,"comet",164,1,"FixedFrequency",1,1202,"Include"
"SB2020_e3","SB2020_e3_1",1,"girly",165,0,"FixedFrequency",1,1047,"Include"
"SB2020_e3","SB2020_e3_1",1,"merit",166,1,"FixedFrequency",5,2012,"Include"
"SB2020_e3","SB2020_e3_1",1,"sieve",167,1,"FixedFrequency",2,950,"Include"
"SB2020_e3","SB2020_e3_1",1,"canoe",168,0,"FixedFrequency",3,1178,"Include"
"SB2020_e3","SB2020_e3_1",1,"altar",169,1,"FixedFrequency",5,2221,"Include"
"SB2020_e3","SB2020_e3_1",1,"depot",170,1,"FixedFrequency",6,3198,"Include"
"SB2020_e3","SB2020_e3_1",1,"bumps",171,1,"FixedFrequency",3,1529,"Include"
"SB2020_e3","SB2020_e3_1",1,"spiky",172,0,"FixedFrequency",2,2278,"Include"
"SB2020_e3","SB2020_e3_1",1,"fleas",173,1,"FixedFrequency",6,918,"Include"
"SB2020_e3","SB2020_e3_1",1,"codes",174,1,"FixedFrequency",1,1487,"Include"
"SB2020_e3","SB2020_e3_1",1,"realm",175,1,"FixedFrequency",4,1434,"Include"
"SB2020_e3","SB2020_e3_1",1,"thigh",176,1,"FixedFrequency",4,2037,"Include"
"SB2020_e3","SB2020_e3_1",1,"fizzy",177,0,"FixedFrequency",2,1179,"Include"
"SB2020_e3","SB2020_e3_1",1,"melon",178,0,"FixedFrequency",3,1428,"Include"
"SB2020_e3","SB2020_e3_1",1,"hitch",179,0,"FixedFrequency",2,960,"Include"
"SB2020_e3","SB2020_e3_1",1,"arise",180,0,"FixedFrequency",1,1011,"Include"
"SB2020_e3","SB2020_e3_1",1,"whizz",181,0,"FixedFrequency",1,975,"Include"
"SB2020_e3","SB2020_e3_1",1,"gulls",182,0,"FixedFrequency",2,1021,"Include"
"SB2020_e3","SB2020_e3_1",1,"dandy",183,0,"FixedFrequency",1,825,"Include"
"SB2020_e3","SB2020_e3_1",1,"niche",184,1,"FixedFrequency",6,1293,"Include"
"SB2020_e3","SB2020_e3_1",1,"snaps",185,0,"FixedFrequency",5,1940,"Include"
"SB2020_e3","SB2020_e3_1",1,"rents",186,0,"FixedFrequency",4,4791,"Include"
"SB2020_e3","SB2020_e3_1",1,"genre",187,0,"FixedFrequency",3,1023,"Include"
"SB2020_e3","SB2020_e3_1",1,"wedge",188,1,"FixedFrequency",2,6515,"Include"
"SB2020_e3","SB2020_e3_1",1,"beads",189,1,"FixedFrequency",3,6524,"Include"
"SB2020_e3","SB2020_e3_1",1,"hoops",190,0,"FixedFrequency",2,830,"Include"
"SB2020_e3","SB2020_e3_1",1,"smoky",191,1,"FixedFrequency",3,6990,"Include"
"SB2020_e3","SB2020_e3_1",1,"bends",192,0,"FixedFrequency",2,4042,"Include"
"SB2020_e3","SB2020_e3_1",1,"dares",193,0,"FixedFrequency",2,1539,"Include"
"SB2020_e3","SB2020_e3_1",1,"ultra",194,1,"FixedFrequency",3,1431,"Include"
"SB2020_e3","SB2020_e3_1",1,"clams",195,0,"FixedFrequency",4,2161,"Include"
"SB2020_e3","SB2020_e3_1",1,"hunch",196,1,"FixedFrequency",5,1675,"Include"
"SB2020_e3","SB2020_e3_1",1,"clerk",197,0,"FixedFrequency",3,1488,"Include"
"SB2020_e3","SB2020_e3_1",1,"discs",198,1,"FixedFrequency",2,744,"Include"
"SB2020_e3","SB2020_e3_1",1,"slips",199,0,"FixedFrequency",2,1562,"Include"
"SB2020_e3","SB2020_e3_1",1,"swore",200,0,"FixedFrequency",1,1111,"Include"
"SB2020_e3","SB2020_e3_1",2,"moths",1,1,"VariableFrequency",1,2210,"Include"
"SB2020_e3","SB2020_e3_1",2,"biker",2,0,"VariableFrequency",2,1288,"Include"
"SB2020_e3","SB2020_e3_1",2,"rehab",3,0,"VariableFrequency",2,817,"Include"
"SB2020_e3","SB2020_e3_1",2,"sucks",4,1,"VariableFrequency",1,871,"Include"
"SB2020_e3","SB2020_e3_1",2,"codes",5,1,"VariableFrequency",2,1031,"Include"
"SB2020_e3","SB2020_e3_1",2,"skins",6,1,"VariableFrequency",6,867,"Include"
"SB2020_e3","SB2020_e3_1",2,"wrath",7,0,"VariableFrequency",1,1110,"Include"
"SB2020_e3","SB2020_e3_1",2,"flute",8,1,"VariableFrequency",5,1163,"Include"
"SB2020_e3","SB2020_e3_1",2,"baths",9,0,"VariableFrequency",2,576,"Include"
"SB2020_e3","SB2020_e3_1",2,"rents",10,0,"VariableFrequency",4,905,"Include"
"SB2020_e3","SB2020_e3_1",2,"germs",11,1,"VariableFrequency",5,934,"Include"
"SB2020_e3","SB2020_e3_1",2,"tides",12,1,"VariableFrequency",2,774,"Include"
"SB2020_e3","SB2020_e3_1",2,"boast",13,1,"VariableFrequency",3,2743,"Include"
"SB2020_e3","SB2020_e3_1",2,"quail",14,0,"VariableFrequency",1,796,"Include"
"SB2020_e3","SB2020_e3_1",2,"deeds",15,0,"VariableFrequency",2,980,"Include"
"SB2020_e3","SB2020_e3_1",2,"basin",16,0,"VariableFrequency",1,645,"Include"
"SB2020_e3","SB2020_e3_1",2,"melon",17,0,"VariableFrequency",3,743,"Include"
"SB2020_e3","SB2020_e3_1",2,"booty",18,1,"VariableFrequency",2,507,"Include"
"SB2020_e3","SB2020_e3_1",2,"graph",19,1,"VariableFrequency",3,675,"Include"
"SB2020_e3","SB2020_e3_1",2,"spear",20,0,"VariableFrequency",1,384,"Include"
"SB2020_e3","SB2020_e3_1",2,"tenor",21,0,"VariableFrequency",1,1115,"Include"
"SB2020_e3","SB2020_e3_1",2,"plots",22,0,"VariableFrequency",2,783,"Include"
"SB2020_e3","SB2020_e3_1",2,"cubes",23,0,"VariableFrequency",1,890,"Include"
"SB2020_e3","SB2020_e3_1",2,"joker",24,1,"VariableFrequency",1,873,"Include"
"SB2020_e3","SB2020_e3_1",2,"masks",25,1,"VariableFrequency",1,638,"Include"
"SB2020_e3","SB2020_e3_1",2,"bowel",26,0,"VariableFrequency",2,786,"Include"
"SB2020_e3","SB2020_e3_1",2,"bossy",27,0,"VariableFrequency",1,712,"Include"
"SB2020_e3","SB2020_e3_1",2,"fatty",28,1,"VariableFrequency",1,692,"Include"
"SB2020_e3","SB2020_e3_1",2,"fudge",29,1,"VariableFrequency",2,918,"Include"
"SB2020_e3","SB2020_e3_1",2,"girly",30,0,"VariableFrequency",3,846,"Include"
"SB2020_e3","SB2020_e3_1",2,"teeny",31,0,"VariableFrequency",4,1196,"Include"
"SB2020_e3","SB2020_e3_1",2,"tally",32,0,"VariableFrequency",2,682,"Include"
"SB2020_e3","SB2020_e3_1",2,"roofs",33,0,"VariableFrequency",3,1198,"Include"
"SB2020_e3","SB2020_e3_1",2,"abide",34,1,"VariableFrequency",2,608,"Include"
"SB2020_e3","SB2020_e3_1",2,"bumps",35,1,"VariableFrequency",3,1172,"Include"
"SB2020_e3","SB2020_e3_1",2,"wakes",36,1,"VariableFrequency",5,837,"Include"
"SB2020_e3","SB2020_e3_1",2,"merit",37,1,"VariableFrequency",2,477,"Include"
"SB2020_e3","SB2020_e3_1",2,"tramp",38,1,"VariableFrequency",2,830,"Include"
"SB2020_e3","SB2020_e3_1",2,"lager",39,1,"VariableFrequency",2,795,"Include"
"SB2020_e3","SB2020_e3_1",2,"twigs",40,1,"VariableFrequency",2,1125,"Include"
"SB2020_e3","SB2020_e3_1",2,"dares",41,0,"VariableFrequency",1,1425,"Include"
"SB2020_e3","SB2020_e3_1",2,"fairs",42,0,"VariableFrequency",1,827,"Include"
"SB2020_e3","SB2020_e3_1",2,"pumps",43,0,"VariableFrequency",1,844,"Include"
"SB2020_e3","SB2020_e3_1",2,"spiky",44,0,"VariableFrequency",2,628,"Include"
"SB2020_e3","SB2020_e3_1",2,"spins",45,1,"VariableFrequency",5,1750,"Include"
"SB2020_e3","SB2020_e3_1",2,"inter",46,0,"VariableFrequency",2,896,"Include"
"SB2020_e3","SB2020_e3_1",2,"fizzy",47,0,"VariableFrequency",4,1563,"Include"
"SB2020_e3","SB2020_e3_1",2,"sworn",48,0,"VariableFrequency",2,767,"Include"
"SB2020_e3","SB2020_e3_1",2,"flask",49,0,"VariableFrequency",3,845,"Include"
"SB2020_e3","SB2020_e3_1",2,"baulk",50,0,"VariableFrequency",2,582,"Include"
"SB2020_e3","SB2020_e3_1",2,"stump",51,1,"VariableFrequency",1,882,"Include"
"SB2020_e3","SB2020_e3_1",2,"quota",52,0,"VariableFrequency",2,893,"Include"
"SB2020_e3","SB2020_e3_1",2,"sheds",53,1,"VariableFrequency",3,756,"Include"
"SB2020_e3","SB2020_e3_1",2,"comet",54,1,"VariableFrequency",2,801,"Include"
"SB2020_e3","SB2020_e3_1",2,"porch",55,0,"VariableFrequency",1,1061,"Include"
"SB2020_e3","SB2020_e3_1",2,"poets",56,1,"VariableFrequency",2,770,"Include"
"SB2020_e3","SB2020_e3_1",2,"grate",57,1,"VariableFrequency",5,1107,"Include"
"SB2020_e3","SB2020_e3_1",2,"arise",58,0,"VariableFrequency",2,728,"Include"
"SB2020_e3","SB2020_e3_1",2,"depot",59,1,"VariableFrequency",6,889,"Include"
"SB2020_e3","SB2020_e3_1",2,"cling",60,0,"VariableFrequency",6,863,"Include"
"SB2020_e3","SB2020_e3_1",2,"broom",61,0,"VariableFrequency",4,1738,"Include"
"SB2020_e3","SB2020_e3_1",2,"yolks",62,0,"VariableFrequency",3,879,"Include"
"SB2020_e3","SB2020_e3_1",2,"siren",63,1,"VariableFrequency",2,790,"Include"
"SB2020_e3","SB2020_e3_1",2,"pagan",64,0,"VariableFrequency",1,1722,"Include"
"SB2020_e3","SB2020_e3_1",2,"slips",65,0,"VariableFrequency",1,1511,"Include"
"SB2020_e3","SB2020_e3_1",2,"dwarf",66,1,"VariableFrequency",5,2117,"Include"
"SB2020_e3","SB2020_e3_1",2,"buggy",67,1,"VariableFrequency",2,952,"Include"
"SB2020_e3","SB2020_e3_1",2,"slang",68,0,"VariableFrequency",2,774,"Include"
"SB2020_e3","SB2020_e3_1",2,"perch",69,1,"VariableFrequency",5,1013,"Include"
"SB2020_e3","SB2020_e3_1",2,"slack",70,0,"VariableFrequency",1,743,"Include"
"SB2020_e3","SB2020_e3_1",2,"cuppa",71,0,"VariableFrequency",2,761,"Include"
"SB2020_e3","SB2020_e3_1",2,"probe",72,1,"VariableFrequency",3,728,"Include"
"SB2020_e3","SB2020_e3_1",2,"goody",73,0,"VariableFrequency",2,716,"Include"
"SB2020_e3","SB2020_e3_1",2,"filth",74,1,"VariableFrequency",4,1300,"Include"
"SB2020_e3","SB2020_e3_1",2,"stomp",75,0,"VariableFrequency",2,833,"Include"
"SB2020_e3","SB2020_e3_1",2,"moody",76,1,"VariableFrequency",4,1019,"Include"
"SB2020_e3","SB2020_e3_1",2,"voter",77,1,"VariableFrequency",2,1551,"Include"
"SB2020_e3","SB2020_e3_1",2,"canon",78,0,"VariableFrequency",1,838,"Include"
"SB2020_e3","SB2020_e3_1",2,"swamp",79,1,"VariableFrequency",1,1119,"Include"
"SB2020_e3","SB2020_e3_1",2,"whiff",80,1,"VariableFrequency",6,1137,"Include"
"SB2020_e3","SB2020_e3_1",2,"chime",81,1,"VariableFrequency",2,820,"Include"
"SB2020_e3","SB2020_e3_1",2,"smoky",82,1,"VariableFrequency",3,960,"Include"
"SB2020_e3","SB2020_e3_1",2,"fakes",83,1,"VariableFrequency",2,617,"Include"
"SB2020_e3","SB2020_e3_1",2,"annoy",84,0,"VariableFrequency",2,743,"Include"
"SB2020_e3","SB2020_e3_1",2,"beads",85,1,"VariableFrequency",1,748,"Include"
"SB2020_e3","SB2020_e3_1",2,"bangs",86,0,"VariableFrequency",5,1270,"Include"
"SB2020_e3","SB2020_e3_1",2,"dunes",87,0,"VariableFrequency",4,861,"Include"
"SB2020_e3","SB2020_e3_1",2,"gulls",88,0,"VariableFrequency",4,1329,"Include"
"SB2020_e3","SB2020_e3_1",2,"clerk",89,0,"VariableFrequency",3,813,"Include"
"SB2020_e3","SB2020_e3_1",2,"fleas",90,1,"VariableFrequency",6,1113,"Include"
"SB2020_e3","SB2020_e3_1",2,"decay",91,1,"VariableFrequency",2,674,"Include"
"SB2020_e3","SB2020_e3_1",2,"altar",92,1,"VariableFrequency",6,880,"Include"
"SB2020_e3","SB2020_e3_1",2,"ratio",93,1,"VariableFrequency",1,783,"Include"
"SB2020_e3","SB2020_e3_1",2,"slime",94,1,"VariableFrequency",3,720,"Include"
"SB2020_e3","SB2020_e3_1",2,"canoe",95,0,"VariableFrequency",2,921,"Include"
"SB2020_e3","SB2020_e3_1",2,"crest",96,1,"VariableFrequency",3,908,"Include"
"SB2020_e3","SB2020_e3_1",2,"crook",97,1,"VariableFrequency",2,452,"Include"
"SB2020_e3","SB2020_e3_1",2,"hoops",98,0,"VariableFrequency",1,525,"Include"
"SB2020_e3","SB2020_e3_1",2,"necks",99,1,"VariableFrequency",4,1527,"Include"
"SB2020_e3","SB2020_e3_1",2,"vomit",100,1,"VariableFrequency",2,1053,"Include"
"SB2020_e3","SB2020_e3_1",2,"tapes",101,1,"VariableFrequency",4,1414,"Include"
"SB2020_e3","SB2020_e3_1",2,"sewer",102,1,"VariableFrequency",3,872,"Include"
"SB2020_e3","SB2020_e3_1",2,"algae",103,0,"VariableFrequency",3,976,"Include"
"SB2020_e3","SB2020_e3_1",2,"notch",104,0,"VariableFrequency",2,611,"Include"
"SB2020_e3","SB2020_e3_1",2,"manic",105,0,"VariableFrequency",2,887,"Include"
"SB2020_e3","SB2020_e3_1",2,"cloak",106,0,"VariableFrequency",4,1176,"Include"
"SB2020_e3","SB2020_e3_1",2,"baton",107,0,"VariableFrequency",2,976,"Include"
"SB2020_e3","SB2020_e3_1",2,"belts",108,0,"VariableFrequency",1,1031,"Include"
"SB2020_e3","SB2020_e3_1",2,"broth",109,0,"VariableFrequency",3,898,"Include"
"SB2020_e3","SB2020_e3_1",2,"snaps",110,0,"VariableFrequency",5,1403,"Include"
"SB2020_e3","SB2020_e3_1",2,"essay",111,1,"VariableFrequency",4,1917,"Include"
"SB2020_e3","SB2020_e3_1",2,"clamp",112,1,"VariableFrequency",6,1362,"Include"
"SB2020_e3","SB2020_e3_1",2,"comin",113,0,"VariableFrequency",6,1110,"Include"
"SB2020_e3","SB2020_e3_1",2,"clams",114,0,"VariableFrequency",1,955,"Include"
"SB2020_e3","SB2020_e3_1",2,"debit",115,0,"VariableFrequency",1,654,"Include"
"SB2020_e3","SB2020_e3_1",2,"linen",116,0,"VariableFrequency",2,860,"Include"
"SB2020_e3","SB2020_e3_1",2,"scams",117,0,"VariableFrequency",5,1014,"Include"
"SB2020_e3","SB2020_e3_1",2,"gorge",118,1,"VariableFrequency",1,1169,"Include"
"SB2020_e3","SB2020_e3_1",2,"ethos",119,1,"VariableFrequency",2,810,"Include"
"SB2020_e3","SB2020_e3_1",2,"munch",120,1,"VariableFrequency",3,1644,"Include"
"SB2020_e3","SB2020_e3_1",2,"gypsy",121,1,"VariableFrequency",3,1500,"Include"
"SB2020_e3","SB2020_e3_1",2,"fries",122,0,"VariableFrequency",2,4118,"Include"
"SB2020_e3","SB2020_e3_1",2,"apron",123,1,"VariableFrequency",2,2627,"Include"
"SB2020_e3","SB2020_e3_1",2,"demon",124,1,"VariableFrequency",5,1197,"Include"
"SB2020_e3","SB2020_e3_1",2,"tarts",125,1,"VariableFrequency",6,1412,"Include"
"SB2020_e3","SB2020_e3_1",2,"finer",126,0,"VariableFrequency",2,1346,"Include"
"SB2020_e3","SB2020_e3_1",2,"plums",127,1,"VariableFrequency",1,880,"Include"
"SB2020_e3","SB2020_e3_1",2,"realm",128,1,"VariableFrequency",1,880,"Include"
"SB2020_e3","SB2020_e3_1",2,"hymns",129,1,"VariableFrequency",5,1334,"Include"
"SB2020_e3","SB2020_e3_1",2,"spade",130,1,"VariableFrequency",2,874,"Include"
"SB2020_e3","SB2020_e3_1",2,"babes",131,1,"VariableFrequency",2,921,"Include"
"SB2020_e3","SB2020_e3_1",2,"leafy",132,1,"VariableFrequency",3,929,"Include"
"SB2020_e3","SB2020_e3_1",2,"tonic",133,1,"VariableFrequency",6,855,"Include"
"SB2020_e3","SB2020_e3_1",2,"dandy",134,0,"VariableFrequency",5,1472,"Include"
"SB2020_e3","SB2020_e3_1",2,"ultra",135,1,"VariableFrequency",6,1481,"Include"
"SB2020_e3","SB2020_e3_1",2,"miner",136,0,"VariableFrequency",2,971,"Include"
"SB2020_e3","SB2020_e3_1",2,"moons",137,0,"VariableFrequency",1,886,"Include"
"SB2020_e3","SB2020_e3_1",2,"brunt",138,1,"VariableFrequency",1,968,"Include"
"SB2020_e3","SB2020_e3_1",2,"scans",139,1,"VariableFrequency",2,965,"Include"
"SB2020_e3","SB2020_e3_1",2,"beers",140,0,"VariableFrequency",1,845,"Include"
"SB2020_e3","SB2020_e3_1",2,"myths",141,0,"VariableFrequency",1,984,"Include"
"SB2020_e3","SB2020_e3_1",2,"remit",142,1,"VariableFrequency",1,940,"Include"
"SB2020_e3","SB2020_e3_1",2,"caddy",143,1,"VariableFrequency",1,1186,"Include"
"SB2020_e3","SB2020_e3_1",2,"thigh",144,1,"VariableFrequency",6,1070,"Include"
"SB2020_e3","SB2020_e3_1",2,"wills",145,0,"VariableFrequency",2,789,"Include"
"SB2020_e3","SB2020_e3_1",2,"troop",146,1,"VariableFrequency",1,1240,"Include"
"SB2020_e3","SB2020_e3_1",2,"ounce",147,0,"VariableFrequency",5,1216,"Include"
"SB2020_e3","SB2020_e3_1",2,"cluck",148,0,"VariableFrequency",2,1137,"Include"
"SB2020_e3","SB2020_e3_1",2,"misty",149,1,"VariableFrequency",3,2590,"Include"
"SB2020_e3","SB2020_e3_1",2,"menus",150,1,"VariableFrequency",2,1311,"Include"
"SB2020_e3","SB2020_e3_1",2,"birch",151,1,"VariableFrequency",3,857,"Include"
"SB2020_e3","SB2020_e3_1",2,"wares",152,1,"VariableFrequency",4,1053,"Include"
"SB2020_e3","SB2020_e3_1",2,"bolts",153,1,"VariableFrequency",5,2540,"Include"
"SB2020_e3","SB2020_e3_1",2,"mixer",154,1,"VariableFrequency",5,1929,"Include"
"SB2020_e3","SB2020_e3_1",2,"swore",155,0,"VariableFrequency",2,1762,"Include"
"SB2020_e3","SB2020_e3_1",2,"lamps",156,1,"VariableFrequency",1,1110,"Include"
"SB2020_e3","SB2020_e3_1",2,"budge",157,1,"VariableFrequency",3,1302,"Include"
"SB2020_e3","SB2020_e3_1",2,"exile",158,1,"VariableFrequency",6,1407,"Include"
"SB2020_e3","SB2020_e3_1",2,"bland",159,0,"VariableFrequency",4,2037,"Include"
"SB2020_e3","SB2020_e3_1",2,"stead",160,0,"VariableFrequency",4,2184,"Include"
"SB2020_e3","SB2020_e3_1",2,"craze",161,0,"VariableFrequency",2,1263,"Include"
"SB2020_e3","SB2020_e3_1",2,"warns",162,0,"VariableFrequency",1,768,"Include"
"SB2020_e3","SB2020_e3_1",2,"cello",163,1,"VariableFrequency",1,1080,"Include"
"SB2020_e3","SB2020_e3_1",2,"wedge",164,1,"VariableFrequency",6,1083,"Include"
"SB2020_e3","SB2020_e3_1",2,"hunch",165,1,"VariableFrequency",5,1494,"Include"
"SB2020_e3","SB2020_e3_1",2,"genie",166,0,"VariableFrequency",2,1111,"Include"
"SB2020_e3","SB2020_e3_1",2,"obese",167,0,"VariableFrequency",1,718,"Include"
"SB2020_e3","SB2020_e3_1",2,"bends",168,0,"VariableFrequency",1,948,"Include"
"SB2020_e3","SB2020_e3_1",2,"grape",169,0,"VariableFrequency",2,789,"Include"
"SB2020_e3","SB2020_e3_1",2,"leaks",170,1,"VariableFrequency",1,845,"Include"
"SB2020_e3","SB2020_e3_1",2,"gavel",171,0,"VariableFrequency",2,742,"Include"
"SB2020_e3","SB2020_e3_1",2,"shone",172,0,"VariableFrequency",1,609,"Include"
"SB2020_e3","SB2020_e3_1",2,"tease",173,1,"VariableFrequency",2,688,"Include"
"SB2020_e3","SB2020_e3_1",2,"aunts",174,1,"VariableFrequency",3,1964,"Include"
"SB2020_e3","SB2020_e3_1",2,"swine",175,1,"VariableFrequency",4,949,"Include"
"SB2020_e3","SB2020_e3_1",2,"manly",176,1,"VariableFrequency",5,1158,"Include"
"SB2020_e3","SB2020_e3_1",2,"tempo",177,1,"VariableFrequency",2,910,"Include"
"SB2020_e3","SB2020_e3_1",2,"melts",178,0,"VariableFrequency",1,406,"Include"
"SB2020_e3","SB2020_e3_1",2,"tweak",179,0,"VariableFrequency",6,1574,"Include"
"SB2020_e3","SB2020_e3_1",2,"cents",180,0,"VariableFrequency",5,1773,"Include"
"SB2020_e3","SB2020_e3_1",2,"hitch",181,0,"VariableFrequency",4,1324,"Include"
"SB2020_e3","SB2020_e3_1",2,"genre",182,0,"VariableFrequency",2,1918,"Include"
"SB2020_e3","SB2020_e3_1",2,"cigar",183,0,"VariableFrequency",3,907,"Include"
"SB2020_e3","SB2020_e3_1",2,"hints",184,0,"VariableFrequency",1,1075,"Include"
"SB2020_e3","SB2020_e3_1",2,"discs",185,1,"VariableFrequency",1,1163,"Include"
"SB2020_e3","SB2020_e3_1",2,"sieve",186,1,"VariableFrequency",2,834,"Include"
"SB2020_e3","SB2020_e3_1",2,"macho",187,1,"VariableFrequency",1,726,"Include"
"SB2020_e3","SB2020_e3_1",2,"midst",188,0,"VariableFrequency",1,1226,"Include"
"SB2020_e3","SB2020_e3_1",2,"panto",189,0,"VariableFrequency",2,1760,"Include"
"SB2020_e3","SB2020_e3_1",2,"nudge",190,0,"VariableFrequency",2,2748,"Include"
"SB2020_e3","SB2020_e3_1",2,"whizz",191,0,"VariableFrequency",1,1468,"Include"
"SB2020_e3","SB2020_e3_1",2,"tutor",192,0,"VariableFrequency",5,2067,"Include"
"SB2020_e3","SB2020_e3_1",2,"vogue",193,0,"VariableFrequency",4,3829,"Include"
"SB2020_e3","SB2020_e3_1",2,"cumin",194,1,"VariableFrequency",3,1684,"Include"
"SB2020_e3","SB2020_e3_1",2,"slugs",195,1,"VariableFrequency",2,5762,"Include"
"SB2020_e3","SB2020_e3_1",2,"slash",196,0,"VariableFrequency",2,3046,"Include"
"SB2020_e3","SB2020_e3_1",2,"flair",197,0,"VariableFrequency",5,1726,"Include"
"SB2020_e3","SB2020_e3_1",2,"cones",198,0,"VariableFrequency",3,1320,"Include"
"SB2020_e3","SB2020_e3_1",2,"mound",199,0,"VariableFrequency",3,1329,"Include"
"SB2020_e3","SB2020_e3_1",2,"niche",200,1,"VariableFrequency",1,784,"Include"
"SB2020_e3","SB2020_e3_10",1,"whizz",1,0,"VariableFrequency",1,7711,"Include"
"SB2020_e3","SB2020_e3_10",1,"tapes",2,1,"VariableFrequency",5,6165,"Include"
"SB2020_e3","SB2020_e3_10",1,"spins",3,1,"VariableFrequency",2,4687,"Include"
"SB2020_e3","SB2020_e3_10",1,"bossy",4,0,"VariableFrequency",2,1647,"Include"
"SB2020_e3","SB2020_e3_10",1,"slips",5,0,"VariableFrequency",3,2377,"Include"
"SB2020_e3","SB2020_e3_10",1,"lager",6,1,"VariableFrequency",5,3742,"Include"
"SB2020_e3","SB2020_e3_10",1,"warns",7,0,"VariableFrequency",3,4974,"Include"
"SB2020_e3","SB2020_e3_10",1,"caddy",8,1,"VariableFrequency",6,2941,"Include"
"SB2020_e3","SB2020_e3_10",1,"sewer",9,1,"VariableFrequency",6,2858,"Include"
"SB2020_e3","SB2020_e3_10",1,"babes",10,1,"VariableFrequency",3,2581,"Include"
"SB2020_e3","SB2020_e3_10",1,"pumps",11,0,"VariableFrequency",3,1985,"Include"
"SB2020_e3","SB2020_e3_10",1,"graph",12,1,"VariableFrequency",2,2157,"Include"
"SB2020_e3","SB2020_e3_10",1,"fizzy",13,0,"VariableFrequency",2,1218,"Include"
"SB2020_e3","SB2020_e3_10",1,"hitch",14,0,"VariableFrequency",3,1019,"Include"
"SB2020_e3","SB2020_e3_10",1,"girly",15,0,"VariableFrequency",5,2708,"Include"
"SB2020_e3","SB2020_e3_10",1,"myths",16,0,"VariableFrequency",1,3274,"Include"
"SB2020_e3","SB2020_e3_10",1,"fudge",17,1,"VariableFrequency",5,1904,"Include"
"SB2020_e3","SB2020_e3_10",1,"tease",18,1,"VariableFrequency",6,1476,"Include"
"SB2020_e3","SB2020_e3_10",1,"misty",19,1,"VariableFrequency",6,1145,"Include"
"SB2020_e3","SB2020_e3_10",1,"booty",20,1,"VariableFrequency",6,900,"Include"
"SB2020_e3","SB2020_e3_10",1,"spear",21,0,"VariableFrequency",4,2189,"Include"
"SB2020_e3","SB2020_e3_10",1,"sworn",22,0,"VariableFrequency",3,1979,"Include"
"SB2020_e3","SB2020_e3_10",1,"gypsy",23,1,"VariableFrequency",6,1727,"Include"
"SB2020_e3","SB2020_e3_10",1,"genie",24,0,"VariableFrequency",2,2573,"Include"
"SB2020_e3","SB2020_e3_10",1,"masks",25,1,"VariableFrequency",1,2309,"Include"
"SB2020_e3","SB2020_e3_10",1,"ounce",26,0,"VariableFrequency",4,3938,"Include"
"SB2020_e3","SB2020_e3_10",1,"gulls",27,0,"VariableFrequency",3,1434,"Include"
"SB2020_e3","SB2020_e3_10",1,"slack",28,0,"VariableFrequency",4,4399,"Include"
"SB2020_e3","SB2020_e3_10",1,"nudge",29,0,"VariableFrequency",4,1766,"Include"
"SB2020_e3","SB2020_e3_10",1,"sheds",30,1,"VariableFrequency",4,1761,"Include"
"SB2020_e3","SB2020_e3_10",1,"slugs",31,1,"VariableFrequency",4,1163,"Include"
"SB2020_e3","SB2020_e3_10",1,"tarts",32,1,"VariableFrequency",6,1605,"Include"
"SB2020_e3","SB2020_e3_10",1,"sieve",33,1,"VariableFrequency",1,1925,"Include"
"SB2020_e3","SB2020_e3_10",1,"canoe",34,0,"VariableFrequency",4,1565,"Include"
"SB2020_e3","SB2020_e3_10",1,"broom",35,0,"VariableFrequency",6,1238,"Include"
"SB2020_e3","SB2020_e3_10",1,"decay",36,1,"VariableFrequency",5,1653,"Include"
"SB2020_e3","SB2020_e3_10",1,"cents",37,0,"VariableFrequency",5,1388,"Include"
"SB2020_e3","SB2020_e3_10",1,"plums",38,1,"VariableFrequency",5,1046,"Include"
"SB2020_e3","SB2020_e3_10",1,"canon",39,0,"VariableFrequency",2,1733,"Include"
"SB2020_e3","SB2020_e3_10",1,"debit",40,0,"VariableFrequency",2,1418,"Include"
"SB2020_e3","SB2020_e3_10",1,"belts",41,0,"VariableFrequency",2,1929,"Include"
"SB2020_e3","SB2020_e3_10",1,"tally",42,0,"VariableFrequency",3,1281,"Include"
"SB2020_e3","SB2020_e3_10",1,"cello",43,1,"VariableFrequency",6,1907,"Include"
"SB2020_e3","SB2020_e3_10",1,"algae",44,0,"VariableFrequency",6,739,"Include"
"SB2020_e3","SB2020_e3_10",1,"plots",45,0,"VariableFrequency",5,1227,"Include"
"SB2020_e3","SB2020_e3_10",1,"tonic",46,1,"VariableFrequency",6,997,"Include"
"SB2020_e3","SB2020_e3_10",1,"troop",47,1,"VariableFrequency",3,2660,"Include"
"SB2020_e3","SB2020_e3_10",1,"dandy",48,0,"VariableFrequency",4,1844,"Include"
"SB2020_e3","SB2020_e3_10",1,"bangs",49,0,"VariableFrequency",4,1384,"Include"
"SB2020_e3","SB2020_e3_10",1,"aunts",50,1,"VariableFrequency",2,6570,"Include"
"SB2020_e3","SB2020_e3_10",1,"leafy",51,1,"VariableFrequency",4,1539,"Include"
"SB2020_e3","SB2020_e3_10",1,"pagan",52,0,"VariableFrequency",4,1179,"Include"
"SB2020_e3","SB2020_e3_10",1,"swamp",53,1,"VariableFrequency",4,932,"Include"
"SB2020_e3","SB2020_e3_10",1,"baulk",54,0,"VariableFrequency",4,932,"Include"
"SB2020_e3","SB2020_e3_10",1,"fakes",55,1,"VariableFrequency",5,1078,"Include"
"SB2020_e3","SB2020_e3_10",1,"essay",56,1,"VariableFrequency",5,1133,"Include"
"SB2020_e3","SB2020_e3_10",1,"gavel",57,0,"VariableFrequency",5,906,"Include"
"SB2020_e3","SB2020_e3_10",1,"slash",58,0,"VariableFrequency",3,1763,"Include"
"SB2020_e3","SB2020_e3_10",1,"finer",59,0,"VariableFrequency",2,2765,"Include"
"SB2020_e3","SB2020_e3_10",1,"grate",60,1,"VariableFrequency",6,1379,"Include"
"SB2020_e3","SB2020_e3_10",1,"boast",61,1,"VariableFrequency",6,1010,"Include"
"SB2020_e3","SB2020_e3_10",1,"bland",62,0,"VariableFrequency",5,1054,"Include"
"SB2020_e3","SB2020_e3_10",1,"abide",63,1,"VariableFrequency",6,1480,"Include"
"SB2020_e3","SB2020_e3_10",1,"melts",64,0,"VariableFrequency",6,1756,"Include"
"SB2020_e3","SB2020_e3_10",1,"stump",65,1,"VariableFrequency",6,658,"Include"
"SB2020_e3","SB2020_e3_10",1,"joker",66,1,"VariableFrequency",6,636,"Include"
"SB2020_e3","SB2020_e3_10",1,"moons",67,0,"VariableFrequency",6,692,"Include"
"SB2020_e3","SB2020_e3_10",1,"fries",68,0,"VariableFrequency",1,2539,"Include"
"SB2020_e3","SB2020_e3_10",1,"quota",69,0,"VariableFrequency",2,1062,"Include"
"SB2020_e3","SB2020_e3_10",1,"twigs",70,1,"VariableFrequency",6,1550,"Include"
"SB2020_e3","SB2020_e3_10",1,"comet",71,1,"VariableFrequency",6,707,"Include"
"SB2020_e3","SB2020_e3_10",1,"filth",72,1,"VariableFrequency",3,2615,"Include"
"SB2020_e3","SB2020_e3_10",1,"clerk",73,0,"VariableFrequency",5,1232,"Include"
"SB2020_e3","SB2020_e3_10",1,"probe",74,1,"VariableFrequency",6,1226,"Include"
"SB2020_e3","SB2020_e3_10",1,"dunes",75,0,"VariableFrequency",4,1385,"Include"
"SB2020_e3","SB2020_e3_10",1,"roofs",76,0,"VariableFrequency",4,735,"Include"
"SB2020_e3","SB2020_e3_10",1,"annoy",77,0,"VariableFrequency",4,824,"Include"
"SB2020_e3","SB2020_e3_10",1,"bends",78,0,"VariableFrequency",3,1224,"Include"
"SB2020_e3","SB2020_e3_10",1,"demon",79,1,"VariableFrequency",6,1402,"Include"
"SB2020_e3","SB2020_e3_10",1,"tweak",80,0,"VariableFrequency",3,3681,"Include"
"SB2020_e3","SB2020_e3_10",1,"arise",81,0,"VariableFrequency",4,2276,"Include"
"SB2020_e3","SB2020_e3_10",1,"linen",82,0,"VariableFrequency",3,1397,"Include"
"SB2020_e3","SB2020_e3_10",1,"codes",83,1,"VariableFrequency",6,1802,"Include"
"SB2020_e3","SB2020_e3_10",1,"tempo",84,1,"VariableFrequency",4,1673,"Include"
"SB2020_e3","SB2020_e3_10",1,"discs",85,1,"VariableFrequency",6,1310,"Include"
"SB2020_e3","SB2020_e3_10",1,"slime",86,1,"VariableFrequency",6,915,"Include"
"SB2020_e3","SB2020_e3_10",1,"sucks",87,1,"VariableFrequency",4,2469,"Include"
"SB2020_e3","SB2020_e3_10",1,"mixer",88,1,"VariableFrequency",6,2875,"Include"
"SB2020_e3","SB2020_e3_10",1,"beads",89,1,"VariableFrequency",6,1503,"Include"
"SB2020_e3","SB2020_e3_10",1,"wedge",90,1,"VariableFrequency",5,1456,"Include"
"SB2020_e3","SB2020_e3_10",1,"budge",91,1,"VariableFrequency",6,1663,"Include"
"SB2020_e3","SB2020_e3_10",1,"menus",92,1,"VariableFrequency",4,3770,"Include"
"SB2020_e3","SB2020_e3_10",1,"wares",93,1,"VariableFrequency",6,1166,"Include"
"SB2020_e3","SB2020_e3_10",1,"scans",94,1,"VariableFrequency",6,740,"Include"
"SB2020_e3","SB2020_e3_10",1,"bowel",95,0,"VariableFrequency",6,870,"Include"
"SB2020_e3","SB2020_e3_10",1,"goody",96,0,"VariableFrequency",6,836,"Include"
"SB2020_e3","SB2020_e3_10",1,"stomp",97,0,"VariableFrequency",5,1107,"Include"
"SB2020_e3","SB2020_e3_10",1,"inter",98,0,"VariableFrequency",5,11424,"Include"
"SB2020_e3","SB2020_e3_10",1,"apron",99,1,"VariableFrequency",6,1701,"Include"
"SB2020_e3","SB2020_e3_10",1,"porch",100,0,"VariableFrequency",5,1478,"Include"
"SB2020_e3","SB2020_e3_10",1,"flask",101,0,"VariableFrequency",3,2950,"Include"
"SB2020_e3","SB2020_e3_10",1,"cuppa",102,0,"VariableFrequency",4,1703,"Include"
"SB2020_e3","SB2020_e3_10",1,"brunt",103,1,"VariableFrequency",4,1487,"Include"
"SB2020_e3","SB2020_e3_10",1,"basin",104,0,"VariableFrequency",4,1270,"Include"
"SB2020_e3","SB2020_e3_10",1,"cones",105,0,"VariableFrequency",6,1319,"Include"
"SB2020_e3","SB2020_e3_10",1,"tenor",106,0,"VariableFrequency",1,8609,"Include"
"SB2020_e3","SB2020_e3_10",1,"vogue",107,0,"VariableFrequency",3,1571,"Include"
"SB2020_e3","SB2020_e3_10",1,"biker",108,0,"VariableFrequency",3,1802,"Include"
"SB2020_e3","SB2020_e3_10",1,"midst",109,0,"VariableFrequency",3,1520,"Include"
"SB2020_e3","SB2020_e3_10",1,"moths",110,1,"VariableFrequency",4,1634,"Include"
"SB2020_e3","SB2020_e3_10",1,"scams",111,0,"VariableFrequency",3,1524,"Include"
"SB2020_e3","SB2020_e3_10",1,"swine",112,1,"VariableFrequency",3,1277,"Include"
"SB2020_e3","SB2020_e3_10",1,"merit",113,1,"VariableFrequency",3,742,"Include"
"SB2020_e3","SB2020_e3_10",1,"fairs",114,0,"VariableFrequency",2,1299,"Include"
"SB2020_e3","SB2020_e3_10",1,"birch",115,1,"VariableFrequency",4,1556,"Include"
"SB2020_e3","SB2020_e3_10",1,"comin",116,0,"VariableFrequency",5,3012,"Include"
"SB2020_e3","SB2020_e3_10",1,"slang",117,0,"VariableFrequency",4,1397,"Include"
"SB2020_e3","SB2020_e3_10",1,"cubes",118,0,"VariableFrequency",2,2183,"Include"
"SB2020_e3","SB2020_e3_10",1,"clams",119,0,"VariableFrequency",3,1898,"Include"
"SB2020_e3","SB2020_e3_10",1,"siren",120,1,"VariableFrequency",3,1263,"Include"
"SB2020_e3","SB2020_e3_10",1,"moody",121,1,"VariableFrequency",6,2381,"Include"
"SB2020_e3","SB2020_e3_10",1,"melon",122,0,"VariableFrequency",3,1400,"Include"
"SB2020_e3","SB2020_e3_10",1,"spiky",123,0,"VariableFrequency",4,1060,"Include"
"SB2020_e3","SB2020_e3_10",1,"wrath",124,0,"VariableFrequency",6,1934,"Include"
"SB2020_e3","SB2020_e3_10",1,"deeds",125,0,"VariableFrequency",6,845,"Include"
"SB2020_e3","SB2020_e3_10",1,"tramp",126,1,"VariableFrequency",4,1127,"Include"
"SB2020_e3","SB2020_e3_10",1,"fleas",127,1,"VariableFrequency",5,2267,"Include"
"SB2020_e3","SB2020_e3_10",1,"cumin",128,1,"VariableFrequency",6,957,"Include"
"SB2020_e3","SB2020_e3_10",1,"rents",129,0,"VariableFrequency",2,5070,"Include"
"SB2020_e3","SB2020_e3_10",1,"manly",130,1,"VariableFrequency",3,1317,"Include"
"SB2020_e3","SB2020_e3_10",1,"depot",131,1,"VariableFrequency",6,1480,"Include"
"SB2020_e3","SB2020_e3_10",1,"gorge",132,1,"VariableFrequency",6,1019,"Include"
"SB2020_e3","SB2020_e3_10",1,"buggy",133,1,"VariableFrequency",6,1871,"Include"
"SB2020_e3","SB2020_e3_10",1,"thigh",134,1,"VariableFrequency",6,659,"Include"
"SB2020_e3","SB2020_e3_10",1,"ultra",135,1,"VariableFrequency",6,742,"Include"
"SB2020_e3","SB2020_e3_10",1,"broth",136,0,"VariableFrequency",6,1107,"Include"
"SB2020_e3","SB2020_e3_10",1,"germs",137,1,"VariableFrequency",6,804,"Include"
"SB2020_e3","SB2020_e3_10",1,"panto",138,0,"VariableFrequency",2,1244,"Include"
"SB2020_e3","SB2020_e3_10",1,"clamp",139,1,"VariableFrequency",4,5859,"Include"
"SB2020_e3","SB2020_e3_10",1,"exile",140,1,"VariableFrequency",6,845,"Include"
"SB2020_e3","SB2020_e3_10",1,"ratio",141,1,"VariableFrequency",6,743,"Include"
"SB2020_e3","SB2020_e3_10",1,"fatty",142,1,"VariableFrequency",6,609,"Include"
"SB2020_e3","SB2020_e3_10",1,"genre",143,0,"VariableFrequency",4,861,"Include"
"SB2020_e3","SB2020_e3_10",1,"wakes",144,1,"VariableFrequency",5,1106,"Include"
"SB2020_e3","SB2020_e3_10",1,"voter",145,1,"VariableFrequency",5,1478,"Include"
"SB2020_e3","SB2020_e3_10",1,"ethos",146,1,"VariableFrequency",5,796,"Include"
"SB2020_e3","SB2020_e3_10",1,"baths",147,0,"VariableFrequency",5,863,"Include"
"SB2020_e3","SB2020_e3_10",1,"hunch",148,1,"VariableFrequency",6,1017,"Include"
"SB2020_e3","SB2020_e3_10",1,"niche",149,1,"VariableFrequency",6,812,"Include"
"SB2020_e3","SB2020_e3_10",1,"yolks",150,0,"VariableFrequency",2,1110,"Include"
"SB2020_e3","SB2020_e3_10",1,"hints",151,0,"VariableFrequency",1,947,"Include"
"SB2020_e3","SB2020_e3_10",1,"flair",152,0,"VariableFrequency",3,1790,"Include"
"SB2020_e3","SB2020_e3_10",1,"manic",153,0,"VariableFrequency",2,2325,"Include"
"SB2020_e3","SB2020_e3_10",1,"dares",154,0,"VariableFrequency",6,860,"Include"
"SB2020_e3","SB2020_e3_10",1,"snaps",155,0,"VariableFrequency",6,695,"Include"
"SB2020_e3","SB2020_e3_10",1,"dwarf",156,1,"VariableFrequency",6,1108,"Include"
"SB2020_e3","SB2020_e3_10",1,"lamps",157,1,"VariableFrequency",6,903,"Include"
"SB2020_e3","SB2020_e3_10",1,"crook",158,1,"VariableFrequency",6,1109,"Include"
"SB2020_e3","SB2020_e3_10",1,"obese",159,0,"VariableFrequency",5,1156,"Include"
"SB2020_e3","SB2020_e3_10",1,"quail",160,0,"VariableFrequency",6,941,"Include"
"SB2020_e3","SB2020_e3_10",1,"cling",161,0,"VariableFrequency",5,758,"Include"
"SB2020_e3","SB2020_e3_10",1,"craze",162,0,"VariableFrequency",6,8392,"Include"
"SB2020_e3","SB2020_e3_10",1,"macho",163,1,"VariableFrequency",6,761,"Include"
"SB2020_e3","SB2020_e3_10",1,"remit",164,1,"VariableFrequency",5,928,"Include"
"SB2020_e3","SB2020_e3_10",1,"rehab",165,0,"VariableFrequency",6,490,"Include"
"SB2020_e3","SB2020_e3_10",1,"wills",166,0,"VariableFrequency",4,1001,"Include"
"SB2020_e3","SB2020_e3_10",1,"smoky",167,1,"VariableFrequency",6,812,"Include"
"SB2020_e3","SB2020_e3_10",1,"bumps",168,1,"VariableFrequency",6,785,"Include"
"SB2020_e3","SB2020_e3_10",1,"beers",169,0,"VariableFrequency",2,1038,"Include"
"SB2020_e3","SB2020_e3_10",1,"necks",170,1,"VariableFrequency",3,1245,"Include"
"SB2020_e3","SB2020_e3_10",1,"poets",171,1,"VariableFrequency",3,2455,"Include"
"SB2020_e3","SB2020_e3_10",1,"munch",172,1,"VariableFrequency",6,738,"Include"
"SB2020_e3","SB2020_e3_10",1,"skins",173,1,"VariableFrequency",6,740,"Include"
"SB2020_e3","SB2020_e3_10",1,"hymns",174,1,"VariableFrequency",6,425,"Include"
"SB2020_e3","SB2020_e3_10",1,"altar",175,1,"VariableFrequency",6,609,"Include"
"SB2020_e3","SB2020_e3_10",1,"cluck",176,0,"VariableFrequency",2,1113,"Include"
"SB2020_e3","SB2020_e3_10",1,"flute",177,1,"VariableFrequency",3,1742,"Include"
"SB2020_e3","SB2020_e3_10",1,"cigar",178,0,"VariableFrequency",4,3790,"Include"
"SB2020_e3","SB2020_e3_10",1,"hoops",179,0,"VariableFrequency",6,768,"Include"
"SB2020_e3","SB2020_e3_10",1,"stead",180,0,"VariableFrequency",3,1136,"Include"
"SB2020_e3","SB2020_e3_10",1,"baton",181,0,"VariableFrequency",5,2080,"Include"
"SB2020_e3","SB2020_e3_10",1,"tutor",182,0,"VariableFrequency",1,1263,"Include"
"SB2020_e3","SB2020_e3_10",1,"swore",183,0,"VariableFrequency",6,1594,"Include"
"SB2020_e3","SB2020_e3_10",1,"notch",184,0,"VariableFrequency",5,4424,"Include"
"SB2020_e3","SB2020_e3_10",1,"tides",185,1,"VariableFrequency",6,683,"Include"
"SB2020_e3","SB2020_e3_10",1,"chime",186,1,"VariableFrequency",6,576,"Include"
"SB2020_e3","SB2020_e3_10",1,"crest",187,1,"VariableFrequency",1,755,"Include"
"SB2020_e3","SB2020_e3_10",1,"bolts",188,1,"VariableFrequency",2,567,"Include"
"SB2020_e3","SB2020_e3_10",1,"realm",189,1,"VariableFrequency",6,1001,"Include"
"SB2020_e3","SB2020_e3_10",1,"cloak",190,0,"VariableFrequency",5,665,"Include"
"SB2020_e3","SB2020_e3_10",1,"teeny",191,0,"VariableFrequency",4,670,"Include"
"SB2020_e3","SB2020_e3_10",1,"whiff",192,1,"VariableFrequency",6,876,"Include"
"SB2020_e3","SB2020_e3_10",1,"perch",193,1,"VariableFrequency",6,574,"Include"
"SB2020_e3","SB2020_e3_10",1,"grape",194,0,"VariableFrequency",6,1353,"Include"
"SB2020_e3","SB2020_e3_10",1,"miner",195,0,"VariableFrequency",5,2314,"Include"
"SB2020_e3","SB2020_e3_10",1,"shone",196,0,"VariableFrequency",5,1154,"Include"
"SB2020_e3","SB2020_e3_10",1,"mound",197,0,"VariableFrequency",6,1556,"Include"
"SB2020_e3","SB2020_e3_10",1,"leaks",198,1,"VariableFrequency",6,934,"Include"
"SB2020_e3","SB2020_e3_10",1,"spade",199,1,"VariableFrequency",6,478,"Include"
"SB2020_e3","SB2020_e3_10",1,"vomit",200,1,"VariableFrequency",6,586,"Include"
"SB2020_e3","SB2020_e3_10",2,"buggy",1,1,"FixedFrequency",2,2641,"Include"
"SB2020_e3","SB2020_e3_10",2,"quail",2,0,"FixedFrequency",2,773,"Include"
"SB2020_e3","SB2020_e3_10",2,"sheds",3,1,"FixedFrequency",1,707,"Include"
"SB2020_e3","SB2020_e3_10",2,"warns",4,0,"FixedFrequency",3,1079,"Include"
"SB2020_e3","SB2020_e3_10",2,"arise",5,0,"FixedFrequency",5,840,"Include"
"SB2020_e3","SB2020_e3_10",2,"melon",6,0,"FixedFrequency",5,651,"Include"
"SB2020_e3","SB2020_e3_10",2,"troop",7,1,"FixedFrequency",4,1406,"Include"
"SB2020_e3","SB2020_e3_10",2,"sieve",8,1,"FixedFrequency",2,231,"Include"
"SB2020_e3","SB2020_e3_10",2,"ounce",9,0,"FixedFrequency",3,384,"Include"
"SB2020_e3","SB2020_e3_10",2,"stead",10,0,"FixedFrequency",1,795,"Include"
"SB2020_e3","SB2020_e3_10",2,"melts",11,0,"FixedFrequency",2,828,"Include"
"SB2020_e3","SB2020_e3_10",2,"cello",12,1,"FixedFrequency",6,695,"Include"
"SB2020_e3","SB2020_e3_10",2,"smoky",13,1,"FixedFrequency",6,681,"Include"
"SB2020_e3","SB2020_e3_10",2,"biker",14,0,"FixedFrequency",6,645,"Include"
"SB2020_e3","SB2020_e3_10",2,"leaks",15,1,"FixedFrequency",6,1619,"Include"
"SB2020_e3","SB2020_e3_10",2,"booty",16,1,"FixedFrequency",6,609,"Include"
"SB2020_e3","SB2020_e3_10",2,"panto",17,0,"FixedFrequency",5,775,"Include"
"SB2020_e3","SB2020_e3_10",2,"grate",18,1,"FixedFrequency",4,807,"Include"
"SB2020_e3","SB2020_e3_10",2,"caddy",19,1,"FixedFrequency",4,508,"Include"
"SB2020_e3","SB2020_e3_10",2,"tramp",20,1,"FixedFrequency",5,1085,"Include"
"SB2020_e3","SB2020_e3_10",2,"codes",21,1,"FixedFrequency",2,869,"Include"
"SB2020_e3","SB2020_e3_10",2,"hints",22,0,"FixedFrequency",6,735,"Include"
"SB2020_e3","SB2020_e3_10",2,"siren",23,1,"FixedFrequency",6,747,"Include"
"SB2020_e3","SB2020_e3_10",2,"baton",24,0,"FixedFrequency",6,980,"Include"
"SB2020_e3","SB2020_e3_10",2,"filth",25,1,"FixedFrequency",6,959,"Include"
"SB2020_e3","SB2020_e3_10",2,"plots",26,0,"FixedFrequency",4,1358,"Include"
"SB2020_e3","SB2020_e3_10",2,"flask",27,0,"FixedFrequency",5,484,"Include"
"SB2020_e3","SB2020_e3_10",2,"boast",28,1,"FixedFrequency",6,969,"Include"
"SB2020_e3","SB2020_e3_10",2,"bland",29,0,"FixedFrequency",2,600,"Include"
"SB2020_e3","SB2020_e3_10",2,"realm",30,1,"FixedFrequency",3,4329,"Include"
"SB2020_e3","SB2020_e3_10",2,"baths",31,0,"FixedFrequency",6,705,"Include"
"SB2020_e3","SB2020_e3_10",2,"vogue",32,0,"FixedFrequency",6,317,"Include"
"SB2020_e3","SB2020_e3_10",2,"wills",33,0,"FixedFrequency",5,522,"Include"
"SB2020_e3","SB2020_e3_10",2,"comet",34,1,"FixedFrequency",2,258,"Include"
"SB2020_e3","SB2020_e3_10",2,"fudge",35,1,"FixedFrequency",3,303,"Include"
"SB2020_e3","SB2020_e3_10",2,"pagan",36,0,"FixedFrequency",1,144,"Include"
"SB2020_e3","SB2020_e3_10",2,"budge",37,1,"FixedFrequency",6,462,"Include"
"SB2020_e3","SB2020_e3_10",2,"canoe",38,0,"FixedFrequency",6,369,"Include"
"SB2020_e3","SB2020_e3_10",2,"hitch",39,0,"FixedFrequency",5,267,"Include"
"SB2020_e3","SB2020_e3_10",2,"quota",40,0,"FixedFrequency",2,324,"Include"
"SB2020_e3","SB2020_e3_10",2,"tease",41,1,"FixedFrequency",1,147,"Include"
"SB2020_e3","SB2020_e3_10",2,"gorge",42,1,"FixedFrequency",6,161,"Include"
"SB2020_e3","SB2020_e3_10",2,"algae",43,0,"FixedFrequency",6,346,"Include"
"SB2020_e3","SB2020_e3_10",2,"lager",44,1,"FixedFrequency",6,405,"Include"
"SB2020_e3","SB2020_e3_10",2,"slang",45,0,"FixedFrequency",6,552,"Include"
"SB2020_e3","SB2020_e3_10",2,"stomp",46,0,"FixedFrequency",5,588,"Include"
"SB2020_e3","SB2020_e3_10",2,"misty",47,1,"FixedFrequency",2,516,"Include"
"SB2020_e3","SB2020_e3_10",2,"tweak",48,0,"FixedFrequency",6,473,"Include"
"SB2020_e3","SB2020_e3_10",2,"cents",49,0,"FixedFrequency",6,868,"Include"
"SB2020_e3","SB2020_e3_10",2,"girly",50,0,"FixedFrequency",5,650,"Include"
"SB2020_e3","SB2020_e3_10",2,"obese",51,0,"FixedFrequency",5,1640,"Include"
"SB2020_e3","SB2020_e3_10",2,"merit",52,1,"FixedFrequency",5,572,"Include"
"SB2020_e3","SB2020_e3_10",2,"exile",53,1,"FixedFrequency",3,628,"Include"
"SB2020_e3","SB2020_e3_10",2,"abide",54,1,"FixedFrequency",6,508,"Include"
"SB2020_e3","SB2020_e3_10",2,"clamp",55,1,"FixedFrequency",6,851,"Include"
"SB2020_e3","SB2020_e3_10",2,"sworn",56,0,"FixedFrequency",6,1797,"Include"
"SB2020_e3","SB2020_e3_10",2,"whiff",57,1,"FixedFrequency",6,549,"Include"
"SB2020_e3","SB2020_e3_10",2,"sewer",58,1,"FixedFrequency",6,760,"Include"
"SB2020_e3","SB2020_e3_10",2,"linen",59,0,"FixedFrequency",2,742,"Include"
"SB2020_e3","SB2020_e3_10",2,"masks",60,1,"FixedFrequency",2,655,"Include"
"SB2020_e3","SB2020_e3_10",2,"wedge",61,1,"FixedFrequency",2,853,"Include"
"SB2020_e3","SB2020_e3_10",2,"slash",62,0,"FixedFrequency",3,737,"Include"
"SB2020_e3","SB2020_e3_10",2,"apron",63,1,"FixedFrequency",4,812,"Include"
"SB2020_e3","SB2020_e3_10",2,"slips",64,0,"FixedFrequency",6,542,"Include"
"SB2020_e3","SB2020_e3_10",2,"bowel",65,0,"FixedFrequency",6,835,"Include"
"SB2020_e3","SB2020_e3_10",2,"decay",66,1,"FixedFrequency",6,4483,"Include"
"SB2020_e3","SB2020_e3_10",2,"teeny",67,0,"FixedFrequency",6,986,"Include"
"SB2020_e3","SB2020_e3_10",2,"voter",68,1,"FixedFrequency",6,720,"Include"
"SB2020_e3","SB2020_e3_10",2,"cuppa",69,0,"FixedFrequency",6,731,"Include"
"SB2020_e3","SB2020_e3_10",2,"inter",70,0,"FixedFrequency",2,843,"Include"
"SB2020_e3","SB2020_e3_10",2,"leafy",71,1,"FixedFrequency",5,1950,"Include"
"SB2020_e3","SB2020_e3_10",2,"tally",72,0,"FixedFrequency",6,615,"Include"
"SB2020_e3","SB2020_e3_10",2,"ratio",73,1,"FixedFrequency",4,1197,"Include"
"SB2020_e3","SB2020_e3_10",2,"craze",74,0,"FixedFrequency",6,975,"Include"
"SB2020_e3","SB2020_e3_10",2,"cubes",75,0,"FixedFrequency",6,714,"Include"
"SB2020_e3","SB2020_e3_10",2,"cigar",76,0,"FixedFrequency",6,603,"Include"
"SB2020_e3","SB2020_e3_10",2,"bumps",77,1,"FixedFrequency",6,1287,"Include"
"SB2020_e3","SB2020_e3_10",2,"gavel",78,0,"FixedFrequency",5,420,"Include"
"SB2020_e3","SB2020_e3_10",2,"fakes",79,1,"FixedFrequency",3,924,"Include"
"SB2020_e3","SB2020_e3_10",2,"skins",80,1,"FixedFrequency",4,298,"Include"
"SB2020_e3","SB2020_e3_10",2,"fries",81,0,"FixedFrequency",6,257,"Include"
"SB2020_e3","SB2020_e3_10",2,"germs",82,1,"FixedFrequency",6,391,"Include"
"SB2020_e3","SB2020_e3_10",2,"manic",83,0,"FixedFrequency",6,438,"Include"
"SB2020_e3","SB2020_e3_10",2,"cones",84,0,"FixedFrequency",6,544,"Include"
"SB2020_e3","SB2020_e3_10",2,"essay",85,1,"FixedFrequency",6,195,"Include"
"SB2020_e3","SB2020_e3_10",2,"annoy",86,0,"FixedFrequency",5,447,"Include"
"SB2020_e3","SB2020_e3_10",2,"beads",87,1,"FixedFrequency",4,514,"Include"
"SB2020_e3","SB2020_e3_10",2,"thigh",88,1,"FixedFrequency",3,717,"Include"
"SB2020_e3","SB2020_e3_10",2,"altar",89,1,"FixedFrequency",2,543,"Include"
"SB2020_e3","SB2020_e3_10",2,"bossy",90,0,"FixedFrequency",6,5973,"Include"
"SB2020_e3","SB2020_e3_10",2,"macho",91,1,"FixedFrequency",6,957,"Include"
"SB2020_e3","SB2020_e3_10",2,"discs",92,1,"FixedFrequency",2,351,"Include"
"SB2020_e3","SB2020_e3_10",2,"demon",93,1,"FixedFrequency",6,340,"Include"
"SB2020_e3","SB2020_e3_10",2,"cling",94,0,"FixedFrequency",6,573,"Include"
"SB2020_e3","SB2020_e3_10",2,"ethos",95,1,"FixedFrequency",6,737,"Include"
"SB2020_e3","SB2020_e3_10",2,"fairs",96,0,"FixedFrequency",6,814,"Include"
"SB2020_e3","SB2020_e3_10",2,"manly",97,1,"FixedFrequency",6,13070,"Include"
"SB2020_e3","SB2020_e3_10",2,"slack",98,0,"FixedFrequency",5,70,"Include"
"SB2020_e3","SB2020_e3_10",2,"munch",99,1,"FixedFrequency",2,291,"Include"
"SB2020_e3","SB2020_e3_10",2,"tutor",100,0,"FixedFrequency",6,142,"Include"
"SB2020_e3","SB2020_e3_10",2,"tarts",101,1,"FixedFrequency",6,775,"Include"
"SB2020_e3","SB2020_e3_10",2,"goody",102,0,"FixedFrequency",2,623,"Include"
"SB2020_e3","SB2020_e3_10",2,"ultra",103,1,"FixedFrequency",6,207,"Include"
"SB2020_e3","SB2020_e3_10",2,"hunch",104,1,"FixedFrequency",6,113,"Include"
"SB2020_e3","SB2020_e3_10",2,"wrath",105,0,"FixedFrequency",5,300,"Include"
"SB2020_e3","SB2020_e3_10",2,"menus",106,1,"FixedFrequency",6,279,"Include"
"SB2020_e3","SB2020_e3_10",2,"cloak",107,0,"FixedFrequency",2,418,"Include"
"SB2020_e3","SB2020_e3_10",2,"chime",108,1,"FixedFrequency",6,557,"Include"
"SB2020_e3","SB2020_e3_10",2,"miner",109,0,"FixedFrequency",6,928,"Include"
"SB2020_e3","SB2020_e3_10",2,"genre",110,0,"FixedFrequency",6,291,"Include"
"SB2020_e3","SB2020_e3_10",2,"whizz",111,0,"FixedFrequency",5,309,"Include"
"SB2020_e3","SB2020_e3_10",2,"remit",112,1,"FixedFrequency",6,327,"Include"
"SB2020_e3","SB2020_e3_10",2,"myths",113,0,"FixedFrequency",6,501,"Include"
"SB2020_e3","SB2020_e3_10",2,"genie",114,0,"FixedFrequency",6,604,"Include"
"SB2020_e3","SB2020_e3_10",2,"canon",115,0,"FixedFrequency",2,574,"Include"
"SB2020_e3","SB2020_e3_10",2,"necks",116,1,"FixedFrequency",5,352,"Include"
"SB2020_e3","SB2020_e3_10",2,"swore",117,0,"FixedFrequency",4,303,"Include"
"SB2020_e3","SB2020_e3_10",2,"gulls",118,0,"FixedFrequency",3,305,"Include"
"SB2020_e3","SB2020_e3_10",2,"clams",119,0,"FixedFrequency",2,329,"Include"
"SB2020_e3","SB2020_e3_10",2,"snaps",120,0,"FixedFrequency",4,390,"Include"
"SB2020_e3","SB2020_e3_10",2,"dares",121,0,"FixedFrequency",5,417,"Include"
"SB2020_e3","SB2020_e3_10",2,"rehab",122,0,"FixedFrequency",3,1511,"Include"
"SB2020_e3","SB2020_e3_10",2,"twigs",123,1,"FixedFrequency",6,495,"Include"
"SB2020_e3","SB2020_e3_10",2,"tempo",124,1,"FixedFrequency",6,462,"Include"
"SB2020_e3","SB2020_e3_10",2,"grape",125,0,"FixedFrequency",6,494,"Include"
"SB2020_e3","SB2020_e3_10",2,"spade",126,1,"FixedFrequency",6,449,"Include"
"SB2020_e3","SB2020_e3_10",2,"baulk",127,0,"FixedFrequency",6,837,"Include"
"SB2020_e3","SB2020_e3_10",2,"birch",128,1,"FixedFrequency",6,659,"Include"
"SB2020_e3","SB2020_e3_10",2,"nudge",129,0,"FixedFrequency",5,839,"Include"
"SB2020_e3","SB2020_e3_10",2,"scams",130,0,"FixedFrequency",3,1988,"Include"
"SB2020_e3","SB2020_e3_10",2,"debit",131,0,"FixedFrequency",2,3896,"Include"
"SB2020_e3","SB2020_e3_10",2,"crest",132,1,"FixedFrequency",4,1156,"Include"
"SB2020_e3","SB2020_e3_10",2,"dwarf",133,1,"FixedFrequency",5,398,"Include"
"SB2020_e3","SB2020_e3_10",2,"joker",134,1,"FixedFrequency",6,549,"Include"
"SB2020_e3","SB2020_e3_10",2,"porch",135,0,"FixedFrequency",6,747,"Include"
"SB2020_e3","SB2020_e3_10",2,"cumin",136,1,"FixedFrequency",6,705,"Include"
"SB2020_e3","SB2020_e3_10",2,"beers",137,0,"FixedFrequency",6,562,"Include"
"SB2020_e3","SB2020_e3_10",2,"deeds",138,0,"FixedFrequency",2,959,"Include"
"SB2020_e3","SB2020_e3_10",2,"fizzy",139,0,"FixedFrequency",1,1128,"Include"
"SB2020_e3","SB2020_e3_10",2,"hoops",140,0,"FixedFrequency",2,359,"Include"
"SB2020_e3","SB2020_e3_10",2,"spins",141,1,"FixedFrequency",1,522,"Include"
"SB2020_e3","SB2020_e3_10",2,"bends",142,0,"FixedFrequency",1,633,"Include"
"SB2020_e3","SB2020_e3_10",2,"mound",143,0,"FixedFrequency",6,1678,"Include"
"SB2020_e3","SB2020_e3_10",2,"wares",144,1,"FixedFrequency",5,293,"Include"
"SB2020_e3","SB2020_e3_10",2,"rents",145,0,"FixedFrequency",6,349,"Include"
"SB2020_e3","SB2020_e3_10",2,"spiky",146,0,"FixedFrequency",2,538,"Include"
"SB2020_e3","SB2020_e3_10",2,"bolts",147,1,"FixedFrequency",3,333,"Include"
"SB2020_e3","SB2020_e3_10",2,"aunts",148,1,"FixedFrequency",4,342,"Include"
"SB2020_e3","SB2020_e3_10",2,"poets",149,1,"FixedFrequency",6,417,"Include"
"SB2020_e3","SB2020_e3_10",2,"sucks",150,1,"FixedFrequency",6,956,"Include"
"SB2020_e3","SB2020_e3_10",2,"yolks",151,0,"FixedFrequency",2,2570,"Include"
"SB2020_e3","SB2020_e3_10",2,"dandy",152,0,"FixedFrequency",4,1338,"Include"
"SB2020_e3","SB2020_e3_10",2,"broom",153,0,"FixedFrequency",6,376,"Include"
"SB2020_e3","SB2020_e3_10",2,"graph",154,1,"FixedFrequency",6,381,"Include"
"SB2020_e3","SB2020_e3_10",2,"fleas",155,1,"FixedFrequency",6,507,"Include"
"SB2020_e3","SB2020_e3_10",2,"wakes",156,1,"FixedFrequency",6,142,"Include"
"SB2020_e3","SB2020_e3_10",2,"roofs",157,0,"FixedFrequency",6,470,"Include"
"SB2020_e3","SB2020_e3_10",2,"cluck",158,0,"FixedFrequency",6,1466,"Include"
"SB2020_e3","SB2020_e3_10",2,"comin",159,0,"FixedFrequency",6,2224,"Include"
"SB2020_e3","SB2020_e3_10",2,"bangs",160,0,"FixedFrequency",5,389,"Include"
"SB2020_e3","SB2020_e3_10",2,"gypsy",161,1,"FixedFrequency",4,65,"Include"
"SB2020_e3","SB2020_e3_10",2,"clerk",162,0,"FixedFrequency",6,281,"Include"
"SB2020_e3","SB2020_e3_10",2,"fatty",163,1,"FixedFrequency",6,505,"Include"
"SB2020_e3","SB2020_e3_10",2,"mixer",164,1,"FixedFrequency",1,569,"Include"
"SB2020_e3","SB2020_e3_10",2,"plums",165,1,"FixedFrequency",2,574,"Include"
"SB2020_e3","SB2020_e3_10",2,"tenor",166,0,"FixedFrequency",3,1352,"Include"
"SB2020_e3","SB2020_e3_10",2,"swine",167,1,"FixedFrequency",6,498,"Include"
"SB2020_e3","SB2020_e3_10",2,"shone",168,0,"FixedFrequency",6,2288,"Include"
"SB2020_e3","SB2020_e3_10",2,"moths",169,1,"FixedFrequency",6,393,"Include"
"SB2020_e3","SB2020_e3_10",2,"tides",170,1,"FixedFrequency",6,2349,"Include"
"SB2020_e3","SB2020_e3_10",2,"pumps",171,0,"FixedFrequency",6,494,"Include"
"SB2020_e3","SB2020_e3_10",2,"basin",172,0,"FixedFrequency",5,335,"Include"
"SB2020_e3","SB2020_e3_10",2,"niche",173,1,"FixedFrequency",6,532,"Include"
"SB2020_e3","SB2020_e3_10",2,"moons",174,0,"FixedFrequency",2,1605,"Include"
"SB2020_e3","SB2020_e3_10",2,"dunes",175,0,"FixedFrequency",2,1030,"Include"
"SB2020_e3","SB2020_e3_10",2,"brunt",176,1,"FixedFrequency",2,555,"Include"
"SB2020_e3","SB2020_e3_10",2,"probe",177,1,"FixedFrequency",2,3158,"Include"
"SB2020_e3","SB2020_e3_10",2,"finer",178,0,"FixedFrequency",6,354,"Include"
"SB2020_e3","SB2020_e3_10",2,"vomit",179,1,"FixedFrequency",5,429,"Include"
"SB2020_e3","SB2020_e3_10",2,"stump",180,1,"FixedFrequency",5,366,"Include"
"SB2020_e3","SB2020_e3_10",2,"broth",181,0,"FixedFrequency",5,297,"Include"
"SB2020_e3","SB2020_e3_10",2,"depot",182,1,"FixedFrequency",5,682,"Include"
"SB2020_e3","SB2020_e3_10",2,"babes",183,1,"FixedFrequency",5,907,"Include"
"SB2020_e3","SB2020_e3_10",2,"midst",184,0,"FixedFrequency",6,395,"Include"
"SB2020_e3","SB2020_e3_10",2,"swamp",185,1,"FixedFrequency",6,3191,"Include"
"SB2020_e3","SB2020_e3_10",2,"spear",186,0,"FixedFrequency",6,502,"Include"
"SB2020_e3","SB2020_e3_10",2,"hymns",187,1,"FixedFrequency",6,966,"Include"
"SB2020_e3","SB2020_e3_10",2,"perch",188,1,"FixedFrequency",6,699,"Include"
"SB2020_e3","SB2020_e3_10",2,"flute",189,1,"FixedFrequency",6,1427,"Include"
"SB2020_e3","SB2020_e3_10",2,"lamps",190,1,"FixedFrequency",6,622,"Include"
"SB2020_e3","SB2020_e3_10",2,"moody",191,1,"FixedFrequency",6,461,"Include"
"SB2020_e3","SB2020_e3_10",2,"belts",192,0,"FixedFrequency",6,527,"Include"
"SB2020_e3","SB2020_e3_10",2,"flair",193,0,"FixedFrequency",6,941,"Include"
"SB2020_e3","SB2020_e3_10",2,"notch",194,0,"FixedFrequency",3,1576,"Include"
"SB2020_e3","SB2020_e3_10",2,"tapes",195,1,"FixedFrequency",2,3931,"Include"
"SB2020_e3","SB2020_e3_10",2,"crook",196,1,"FixedFrequency",6,780,"Include"
"SB2020_e3","SB2020_e3_10",2,"slime",197,1,"FixedFrequency",6,549,"Include"
"SB2020_e3","SB2020_e3_10",2,"tonic",198,1,"FixedFrequency",6,773,"Include"
"SB2020_e3","SB2020_e3_10",2,"slugs",199,1,"FixedFrequency",6,501,"Include"
"SB2020_e3","SB2020_e3_10",2,"scans",200,1,"FixedFrequency",6,335,"Include"
"SB2020_e3","SB2020_e3_11",1,"front",1,0,"FixedFrequency",5,3367,"Include"
"SB2020_e3","SB2020_e3_11",1,"snipe",2,1,"FixedFrequency",6,6321,"Include"
"SB2020_e3","SB2020_e3_11",1,"ticks",3,1,"FixedFrequency",6,1588,"Include"
"SB2020_e3","SB2020_e3_11",1,"blast",4,1,"FixedFrequency",3,4476,"Include"
"SB2020_e3","SB2020_e3_11",1,"eagle",5,1,"FixedFrequency",6,1564,"Include"
"SB2020_e3","SB2020_e3_11",1,"woozy",6,1,"FixedFrequency",6,868,"Include"
"SB2020_e3","SB2020_e3_11",1,"annul",7,0,"FixedFrequency",2,1996,"Include"
"SB2020_e3","SB2020_e3_11",1,"verve",8,0,"FixedFrequency",2,1778,"Include"
"SB2020_e3","SB2020_e3_11",1,"tests",9,1,"FixedFrequency",1,1166,"Include"
"SB2020_e3","SB2020_e3_11",1,"plead",10,1,"FixedFrequency",6,1334,"Include"
"SB2020_e3","SB2020_e3_11",1,"carry",11,1,"FixedFrequency",6,1646,"Include"
"SB2020_e3","SB2020_e3_11",1,"doble",12,1,"FixedFrequency",6,669,"Include"
"SB2020_e3","SB2020_e3_11",1,"daubs",13,0,"FixedFrequency",1,1235,"Include"
"SB2020_e3","SB2020_e3_11",1,"bases",14,1,"FixedFrequency",2,1324,"Include"
"SB2020_e3","SB2020_e3_11",1,"shoot",15,0,"FixedFrequency",1,1330,"Include"
"SB2020_e3","SB2020_e3_11",1,"putty",16,0,"FixedFrequency",2,1882,"Include"
"SB2020_e3","SB2020_e3_11",1,"avoid",17,0,"FixedFrequency",3,1964,"Include"
"SB2020_e3","SB2020_e3_11",1,"phone",18,0,"FixedFrequency",1,995,"Include"
"SB2020_e3","SB2020_e3_11",1,"chimp",19,1,"FixedFrequency",5,2590,"Include"
"SB2020_e3","SB2020_e3_11",1,"salts",20,0,"FixedFrequency",2,1643,"Include"
"SB2020_e3","SB2020_e3_11",1,"lives",21,0,"FixedFrequency",3,1737,"Include"
"SB2020_e3","SB2020_e3_11",1,"flyer",22,0,"FixedFrequency",1,1288,"Include"
"SB2020_e3","SB2020_e3_11",1,"issue",23,1,"FixedFrequency",6,1371,"Include"
"SB2020_e3","SB2020_e3_11",1,"reads",24,0,"FixedFrequency",1,1379,"Include"
"SB2020_e3","SB2020_e3_11",1,"trend",25,0,"FixedFrequency",2,947,"Include"
"SB2020_e3","SB2020_e3_11",1,"scone",26,0,"FixedFrequency",2,830,"Include"
"SB2020_e3","SB2020_e3_11",1,"elbow",27,0,"FixedFrequency",2,814,"Include"
"SB2020_e3","SB2020_e3_11",1,"havin",28,1,"FixedFrequency",6,1281,"Include"
"SB2020_e3","SB2020_e3_11",1,"prawn",29,1,"FixedFrequency",6,787,"Include"
"SB2020_e3","SB2020_e3_11",1,"cairn",30,1,"FixedFrequency",6,633,"Include"
"SB2020_e3","SB2020_e3_11",1,"easel",31,0,"FixedFrequency",1,1184,"Include"
"SB2020_e3","SB2020_e3_11",1,"style",32,0,"FixedFrequency",1,1626,"Include"
"SB2020_e3","SB2020_e3_11",1,"voice",33,1,"FixedFrequency",3,1125,"Include"
"SB2020_e3","SB2020_e3_11",1,"snarl",34,0,"FixedFrequency",3,1050,"Include"
"SB2020_e3","SB2020_e3_11",1,"sweat",35,1,"FixedFrequency",2,831,"Include"
"SB2020_e3","SB2020_e3_11",1,"bully",36,1,"FixedFrequency",6,1299,"Include"
"SB2020_e3","SB2020_e3_11",1,"sings",37,1,"FixedFrequency",6,717,"Include"
"SB2020_e3","SB2020_e3_11",1,"abuse",38,1,"FixedFrequency",6,738,"Include"
"SB2020_e3","SB2020_e3_11",1,"booze",39,1,"FixedFrequency",1,1413,"Include"
"SB2020_e3","SB2020_e3_11",1,"grief",40,0,"FixedFrequency",2,2258,"Include"
"SB2020_e3","SB2020_e3_11",1,"sinus",41,0,"FixedFrequency",2,754,"Include"
"SB2020_e3","SB2020_e3_11",1,"hands",42,1,"FixedFrequency",6,1291,"Include"
"SB2020_e3","SB2020_e3_11",1,"money",43,0,"FixedFrequency",1,1932,"Include"
"SB2020_e3","SB2020_e3_11",1,"class",44,1,"FixedFrequency",6,1178,"Include"
"SB2020_e3","SB2020_e3_11",1,"lever",45,0,"FixedFrequency",1,1220,"Include"
"SB2020_e3","SB2020_e3_11",1,"dirty",46,0,"FixedFrequency",1,2053,"Include"
"SB2020_e3","SB2020_e3_11",1,"brake",47,1,"FixedFrequency",2,3955,"Include"
"SB2020_e3","SB2020_e3_11",1,"valve",48,0,"FixedFrequency",1,1861,"Include"
"SB2020_e3","SB2020_e3_11",1,"gusto",49,1,"FixedFrequency",6,1763,"Include"
"SB2020_e3","SB2020_e3_11",1,"decal",50,1,"FixedFrequency",6,911,"Include"
"SB2020_e3","SB2020_e3_11",1,"rowdy",51,1,"FixedFrequency",6,635,"Include"
"SB2020_e3","SB2020_e3_11",1,"tonne",52,0,"FixedFrequency",3,1317,"Include"
"SB2020_e3","SB2020_e3_11",1,"wools",53,0,"FixedFrequency",1,1237,"Include"
"SB2020_e3","SB2020_e3_11",1,"whine",54,1,"FixedFrequency",6,1364,"Include"
"SB2020_e3","SB2020_e3_11",1,"havoc",55,1,"FixedFrequency",6,988,"Include"
"SB2020_e3","SB2020_e3_11",1,"steer",56,0,"FixedFrequency",3,1190,"Include"
"SB2020_e3","SB2020_e3_11",1,"sicko",57,0,"FixedFrequency",2,1270,"Include"
"SB2020_e3","SB2020_e3_11",1,"hinds",58,0,"FixedFrequency",1,993,"Include"
"SB2020_e3","SB2020_e3_11",1,"carat",59,0,"FixedFrequency",1,1064,"Include"
"SB2020_e3","SB2020_e3_11",1,"ropey",60,0,"FixedFrequency",1,998,"Include"
"SB2020_e3","SB2020_e3_11",1,"clash",61,0,"FixedFrequency",1,1001,"Include"
"SB2020_e3","SB2020_e3_11",1,"pizza",62,0,"FixedFrequency",1,966,"Include"
"SB2020_e3","SB2020_e3_11",1,"court",63,0,"FixedFrequency",3,1304,"Include"
"SB2020_e3","SB2020_e3_11",1,"maths",64,0,"FixedFrequency",3,687,"Include"
"SB2020_e3","SB2020_e3_11",1,"frost",65,1,"FixedFrequency",6,1418,"Include"
"SB2020_e3","SB2020_e3_11",1,"fifty",66,0,"FixedFrequency",3,1496,"Include"
"SB2020_e3","SB2020_e3_11",1,"choke",67,0,"FixedFrequency",2,1483,"Include"
"SB2020_e3","SB2020_e3_11",1,"honky",68,0,"FixedFrequency",2,639,"Include"
"SB2020_e3","SB2020_e3_11",1,"chavs",69,0,"FixedFrequency",2,802,"Include"
"SB2020_e3","SB2020_e3_11",1,"kebab",70,1,"FixedFrequency",3,1718,"Include"
"SB2020_e3","SB2020_e3_11",1,"crush",71,0,"FixedFrequency",2,1838,"Include"
"SB2020_e3","SB2020_e3_11",1,"sleep",72,0,"FixedFrequency",2,810,"Include"
"SB2020_e3","SB2020_e3_11",1,"drawn",73,1,"FixedFrequency",6,1325,"Include"
"SB2020_e3","SB2020_e3_11",1,"groin",74,1,"FixedFrequency",6,791,"Include"
"SB2020_e3","SB2020_e3_11",1,"piles",75,0,"FixedFrequency",3,1095,"Include"
"SB2020_e3","SB2020_e3_11",1,"jowls",76,0,"FixedFrequency",2,1292,"Include"
"SB2020_e3","SB2020_e3_11",1,"breed",77,1,"FixedFrequency",3,2039,"Include"
"SB2020_e3","SB2020_e3_11",1,"least",78,1,"FixedFrequency",6,1241,"Include"
"SB2020_e3","SB2020_e3_11",1,"house",79,1,"FixedFrequency",2,1636,"Include"
"SB2020_e3","SB2020_e3_11",1,"farms",80,0,"FixedFrequency",1,1157,"Include"
"SB2020_e3","SB2020_e3_11",1,"major",81,0,"FixedFrequency",3,1421,"Include"
"SB2020_e3","SB2020_e3_11",1,"knave",82,0,"FixedFrequency",2,1622,"Include"
"SB2020_e3","SB2020_e3_11",1,"optic",83,1,"FixedFrequency",2,1713,"Include"
"SB2020_e3","SB2020_e3_11",1,"matey",84,0,"FixedFrequency",1,1256,"Include"
"SB2020_e3","SB2020_e3_11",1,"taker",85,1,"FixedFrequency",6,1155,"Include"
"SB2020_e3","SB2020_e3_11",1,"beams",86,0,"FixedFrequency",3,1262,"Include"
"SB2020_e3","SB2020_e3_11",1,"canes",87,1,"FixedFrequency",3,717,"Include"
"SB2020_e3","SB2020_e3_11",1,"ergot",88,1,"FixedFrequency",5,1562,"Include"
"SB2020_e3","SB2020_e3_11",1,"sling",89,0,"FixedFrequency",2,1170,"Include"
"SB2020_e3","SB2020_e3_11",1,"buffs",90,0,"FixedFrequency",2,1107,"Include"
"SB2020_e3","SB2020_e3_11",1,"spell",91,1,"FixedFrequency",6,1241,"Include"
"SB2020_e3","SB2020_e3_11",1,"oases",92,1,"FixedFrequency",6,1119,"Include"
"SB2020_e3","SB2020_e3_11",1,"bough",93,0,"FixedFrequency",2,1730,"Include"
"SB2020_e3","SB2020_e3_11",1,"snowy",94,1,"FixedFrequency",3,1269,"Include"
"SB2020_e3","SB2020_e3_11",1,"leaps",95,0,"FixedFrequency",1,1551,"Include"
"SB2020_e3","SB2020_e3_11",1,"curio",96,1,"FixedFrequency",3,1404,"Include"
"SB2020_e3","SB2020_e3_11",1,"spire",97,0,"FixedFrequency",2,1097,"Include"
"SB2020_e3","SB2020_e3_11",1,"intro",98,1,"FixedFrequency",3,1259,"Include"
"SB2020_e3","SB2020_e3_11",1,"gauze",99,1,"FixedFrequency",6,1503,"Include"
"SB2020_e3","SB2020_e3_11",1,"holds",100,1,"FixedFrequency",2,1664,"Include"
"SB2020_e3","SB2020_e3_11",1,"beach",101,1,"FixedFrequency",6,1326,"Include"
"SB2020_e3","SB2020_e3_11",1,"posit",102,1,"FixedFrequency",6,608,"Include"
"SB2020_e3","SB2020_e3_11",1,"dingy",103,0,"FixedFrequency",1,1663,"Include"
"SB2020_e3","SB2020_e3_11",1,"qualm",104,0,"FixedFrequency",1,969,"Include"
"SB2020_e3","SB2020_e3_11",1,"casks",105,0,"FixedFrequency",1,854,"Include"
"SB2020_e3","SB2020_e3_11",1,"click",106,1,"FixedFrequency",1,1091,"Include"
"SB2020_e3","SB2020_e3_11",1,"haven",107,0,"FixedFrequency",2,1695,"Include"
"SB2020_e3","SB2020_e3_11",1,"cords",108,0,"FixedFrequency",1,1137,"Include"
"SB2020_e3","SB2020_e3_11",1,"paces",109,0,"FixedFrequency",1,881,"Include"
"SB2020_e3","SB2020_e3_11",1,"punch",110,0,"FixedFrequency",1,735,"Include"
"SB2020_e3","SB2020_e3_11",1,"trans",111,1,"FixedFrequency",1,924,"Include"
"SB2020_e3","SB2020_e3_11",1,"swill",112,0,"FixedFrequency",1,817,"Include"
"SB2020_e3","SB2020_e3_11",1,"cheap",113,1,"FixedFrequency",6,1340,"Include"
"SB2020_e3","SB2020_e3_11",1,"dutch",114,0,"FixedFrequency",2,1193,"Include"
"SB2020_e3","SB2020_e3_11",1,"hides",115,0,"FixedFrequency",2,995,"Include"
"SB2020_e3","SB2020_e3_11",1,"swots",116,1,"FixedFrequency",5,1449,"Include"
"SB2020_e3","SB2020_e3_11",1,"clogs",117,0,"FixedFrequency",1,1503,"Include"
"SB2020_e3","SB2020_e3_11",1,"laces",118,1,"FixedFrequency",1,969,"Include"
"SB2020_e3","SB2020_e3_11",1,"highs",119,1,"FixedFrequency",6,2051,"Include"
"SB2020_e3","SB2020_e3_11",1,"skimp",120,1,"FixedFrequency",2,1343,"Include"
"SB2020_e3","SB2020_e3_11",1,"robot",121,1,"FixedFrequency",2,2361,"Include"
"SB2020_e3","SB2020_e3_11",1,"boomy",122,1,"FixedFrequency",2,1409,"Include"
"SB2020_e3","SB2020_e3_11",1,"itchy",123,0,"FixedFrequency",2,910,"Include"
"SB2020_e3","SB2020_e3_11",1,"dolts",124,0,"FixedFrequency",1,1035,"Include"
"SB2020_e3","SB2020_e3_11",1,"snugs",125,1,"FixedFrequency",6,1364,"Include"
"SB2020_e3","SB2020_e3_11",1,"blank",126,0,"FixedFrequency",2,1155,"Include"
"SB2020_e3","SB2020_e3_11",1,"nylon",127,0,"FixedFrequency",2,917,"Include"
"SB2020_e3","SB2020_e3_11",1,"weeks",128,0,"FixedFrequency",1,1289,"Include"
"SB2020_e3","SB2020_e3_11",1,"suits",129,1,"FixedFrequency",4,1974,"Include"
"SB2020_e3","SB2020_e3_11",1,"clear",130,1,"FixedFrequency",6,1208,"Include"
"SB2020_e3","SB2020_e3_11",1,"chasm",131,1,"FixedFrequency",6,1131,"Include"
"SB2020_e3","SB2020_e3_11",1,"hacks",132,1,"FixedFrequency",5,2441,"Include"
"SB2020_e3","SB2020_e3_11",1,"panel",133,1,"FixedFrequency",2,2976,"Include"
"SB2020_e3","SB2020_e3_11",1,"lyres",134,1,"FixedFrequency",5,1874,"Include"
"SB2020_e3","SB2020_e3_11",1,"rafts",135,1,"FixedFrequency",2,972,"Include"
"SB2020_e3","SB2020_e3_11",1,"canal",136,1,"FixedFrequency",6,1444,"Include"
"SB2020_e3","SB2020_e3_11",1,"light",137,1,"FixedFrequency",1,1424,"Include"
"SB2020_e3","SB2020_e3_11",1,"water",138,0,"FixedFrequency",1,758,"Include"
"SB2020_e3","SB2020_e3_11",1,"untie",139,0,"FixedFrequency",1,856,"Include"
"SB2020_e3","SB2020_e3_11",1,"reels",140,1,"FixedFrequency",6,1575,"Include"
"SB2020_e3","SB2020_e3_11",1,"foamy",141,0,"FixedFrequency",2,1688,"Include"
"SB2020_e3","SB2020_e3_11",1,"denim",142,1,"FixedFrequency",6,1115,"Include"
"SB2020_e3","SB2020_e3_11",1,"music",143,1,"FixedFrequency",3,1073,"Include"
"SB2020_e3","SB2020_e3_11",1,"stake",144,0,"FixedFrequency",1,1275,"Include"
"SB2020_e3","SB2020_e3_11",1,"bluff",145,1,"FixedFrequency",1,708,"Include"
"SB2020_e3","SB2020_e3_11",1,"cease",146,1,"FixedFrequency",6,2080,"Include"
"SB2020_e3","SB2020_e3_11",1,"hippo",147,0,"FixedFrequency",2,1113,"Include"
"SB2020_e3","SB2020_e3_11",1,"sperm",148,0,"FixedFrequency",2,1029,"Include"
"SB2020_e3","SB2020_e3_11",1,"liars",149,1,"FixedFrequency",6,1307,"Include"
"SB2020_e3","SB2020_e3_11",1,"moggy",150,1,"FixedFrequency",6,845,"Include"
"SB2020_e3","SB2020_e3_11",1,"fetch",151,0,"FixedFrequency",2,1422,"Include"
"SB2020_e3","SB2020_e3_11",1,"stems",152,0,"FixedFrequency",2,796,"Include"
"SB2020_e3","SB2020_e3_11",1,"opium",153,0,"FixedFrequency",1,1557,"Include"
"SB2020_e3","SB2020_e3_11",1,"songs",154,0,"FixedFrequency",1,870,"Include"
"SB2020_e3","SB2020_e3_11",1,"frizz",155,0,"FixedFrequency",1,1415,"Include"
"SB2020_e3","SB2020_e3_11",1,"hanky",156,0,"FixedFrequency",1,731,"Include"
"SB2020_e3","SB2020_e3_11",1,"twine",157,1,"FixedFrequency",6,1553,"Include"
"SB2020_e3","SB2020_e3_11",1,"bales",158,0,"FixedFrequency",1,1118,"Include"
"SB2020_e3","SB2020_e3_11",1,"tenth",159,1,"FixedFrequency",1,917,"Include"
"SB2020_e3","SB2020_e3_11",1,"spray",160,1,"FixedFrequency",6,1290,"Include"
"SB2020_e3","SB2020_e3_11",1,"bosom",161,1,"FixedFrequency",6,927,"Include"
"SB2020_e3","SB2020_e3_11",1,"meals",162,1,"FixedFrequency",6,2277,"Include"
"SB2020_e3","SB2020_e3_11",1,"vetos",163,0,"FixedFrequency",2,1448,"Include"
"SB2020_e3","SB2020_e3_11",1,"spoke",164,1,"FixedFrequency",6,1109,"Include"
"SB2020_e3","SB2020_e3_11",1,"rails",165,1,"FixedFrequency",1,1277,"Include"
"SB2020_e3","SB2020_e3_11",1,"quack",166,0,"FixedFrequency",1,717,"Include"
"SB2020_e3","SB2020_e3_11",1,"bezel",167,1,"FixedFrequency",1,653,"Include"
"SB2020_e3","SB2020_e3_11",1,"squab",168,0,"FixedFrequency",1,928,"Include"
"SB2020_e3","SB2020_e3_11",1,"lumps",169,1,"FixedFrequency",1,939,"Include"
"SB2020_e3","SB2020_e3_11",1,"ethic",170,1,"FixedFrequency",6,2390,"Include"
"SB2020_e3","SB2020_e3_11",1,"craps",171,1,"FixedFrequency",2,1565,"Include"
"SB2020_e3","SB2020_e3_11",1,"panko",172,0,"FixedFrequency",1,3556,"Include"
"SB2020_e3","SB2020_e3_11",1,"dopey",173,1,"FixedFrequency",6,2948,"Include"
"SB2020_e3","SB2020_e3_11",1,"fader",174,1,"FixedFrequency",6,846,"Include"
"SB2020_e3","SB2020_e3_11",1,"capos",175,1,"FixedFrequency",6,876,"Include"
"SB2020_e3","SB2020_e3_11",1,"stock",176,0,"FixedFrequency",2,1139,"Include"
"SB2020_e3","SB2020_e3_11",1,"tulip",177,1,"FixedFrequency",6,1387,"Include"
"SB2020_e3","SB2020_e3_11",1,"delay",178,0,"FixedFrequency",1,1205,"Include"
"SB2020_e3","SB2020_e3_11",1,"binge",179,1,"FixedFrequency",1,1143,"Include"
"SB2020_e3","SB2020_e3_11",1,"fifth",180,1,"FixedFrequency",6,1244,"Include"
"SB2020_e3","SB2020_e3_11",1,"fuses",181,1,"FixedFrequency",2,994,"Include"
"SB2020_e3","SB2020_e3_11",1,"chalk",182,1,"FixedFrequency",2,769,"Include"
"SB2020_e3","SB2020_e3_11",1,"blows",183,1,"FixedFrequency",6,1193,"Include"
"SB2020_e3","SB2020_e3_11",1,"tyres",184,0,"FixedFrequency",2,1235,"Include"
"SB2020_e3","SB2020_e3_11",1,"mains",185,1,"FixedFrequency",6,1694,"Include"
"SB2020_e3","SB2020_e3_11",1,"paedo",186,0,"FixedFrequency",1,1742,"Include"
"SB2020_e3","SB2020_e3_11",1,"biped",187,0,"FixedFrequency",1,682,"Include"
"SB2020_e3","SB2020_e3_11",1,"rains",188,0,"FixedFrequency",4,2590,"Include"
"SB2020_e3","SB2020_e3_11",1,"plain",189,0,"FixedFrequency",2,887,"Include"
"SB2020_e3","SB2020_e3_11",1,"socks",190,0,"FixedFrequency",1,1224,"Include"
"SB2020_e3","SB2020_e3_11",1,"align",191,0,"FixedFrequency",1,635,"Include"
"SB2020_e3","SB2020_e3_11",1,"outer",192,0,"FixedFrequency",1,641,"Include"
"SB2020_e3","SB2020_e3_11",1,"fayre",193,1,"FixedFrequency",6,1371,"Include"
"SB2020_e3","SB2020_e3_11",1,"reeds",194,0,"FixedFrequency",1,1805,"Include"
"SB2020_e3","SB2020_e3_11",1,"mates",195,0,"FixedFrequency",1,863,"Include"
"SB2020_e3","SB2020_e3_11",1,"order",196,1,"FixedFrequency",6,1216,"Include"
"SB2020_e3","SB2020_e3_11",1,"lifts",197,1,"FixedFrequency",2,4892,"Include"
"SB2020_e3","SB2020_e3_11",1,"stint",198,1,"FixedFrequency",6,1814,"Include"
"SB2020_e3","SB2020_e3_11",1,"refit",199,0,"FixedFrequency",2,1230,"Include"
"SB2020_e3","SB2020_e3_11",1,"bonks",200,0,"FixedFrequency",1,1080,"Include"
"SB2020_e3","SB2020_e3_11",2,"canal",1,0,"VariableFrequency",2,2610,"Include"
"SB2020_e3","SB2020_e3_11",2,"sling",2,1,"VariableFrequency",2,972,"Include"
"SB2020_e3","SB2020_e3_11",2,"frost",3,0,"VariableFrequency",2,628,"Include"
"SB2020_e3","SB2020_e3_11",2,"dutch",4,1,"VariableFrequency",5,1302,"Include"
"SB2020_e3","SB2020_e3_11",2,"court",5,1,"VariableFrequency",6,1406,"Include"
"SB2020_e3","SB2020_e3_11",2,"elbow",6,1,"VariableFrequency",6,731,"Include"
"SB2020_e3","SB2020_e3_11",2,"biped",7,1,"VariableFrequency",4,2541,"Include"
"SB2020_e3","SB2020_e3_11",2,"weeks",8,1,"VariableFrequency",2,1144,"Include"
"SB2020_e3","SB2020_e3_11",2,"cheap",9,0,"VariableFrequency",1,957,"Include"
"SB2020_e3","SB2020_e3_11",2,"grief",10,1,"VariableFrequency",6,1831,"Include"
"SB2020_e3","SB2020_e3_11",2,"squab",11,1,"VariableFrequency",5,1297,"Include"
"SB2020_e3","SB2020_e3_11",2,"least",12,0,"VariableFrequency",2,1099,"Include"
"SB2020_e3","SB2020_e3_11",2,"buffs",13,1,"VariableFrequency",2,1036,"Include"
"SB2020_e3","SB2020_e3_11",2,"itchy",14,1,"VariableFrequency",6,1829,"Include"
"SB2020_e3","SB2020_e3_11",2,"dopey",15,0,"VariableFrequency",1,1138,"Include"
"SB2020_e3","SB2020_e3_11",2,"chasm",16,0,"VariableFrequency",2,934,"Include"
"SB2020_e3","SB2020_e3_11",2,"dingy",17,1,"VariableFrequency",6,1455,"Include"
"SB2020_e3","SB2020_e3_11",2,"quack",18,1,"VariableFrequency",6,827,"Include"
"SB2020_e3","SB2020_e3_11",2,"mates",19,1,"VariableFrequency",6,711,"Include"
"SB2020_e3","SB2020_e3_11",2,"brake",20,0,"VariableFrequency",1,1339,"Include"
"SB2020_e3","SB2020_e3_11",2,"bosom",21,0,"VariableFrequency",1,738,"Include"
"SB2020_e3","SB2020_e3_11",2,"sings",22,0,"VariableFrequency",2,1717,"Include"
"SB2020_e3","SB2020_e3_11",2,"vetos",23,1,"VariableFrequency",1,919,"Include"
"SB2020_e3","SB2020_e3_11",2,"cease",24,0,"VariableFrequency",1,1052,"Include"
"SB2020_e3","SB2020_e3_11",2,"front",25,1,"VariableFrequency",1,772,"Include"
"SB2020_e3","SB2020_e3_11",2,"blows",26,0,"VariableFrequency",2,1309,"Include"
"SB2020_e3","SB2020_e3_11",2,"flyer",27,1,"VariableFrequency",6,1335,"Include"
"SB2020_e3","SB2020_e3_11",2,"scone",28,1,"VariableFrequency",3,1336,"Include"
"SB2020_e3","SB2020_e3_11",2,"tests",29,0,"VariableFrequency",2,1230,"Include"
"SB2020_e3","SB2020_e3_11",2,"delay",30,1,"VariableFrequency",1,1258,"Include"
"SB2020_e3","SB2020_e3_11",2,"hands",31,0,"VariableFrequency",1,750,"Include"
"SB2020_e3","SB2020_e3_11",2,"lifts",32,0,"VariableFrequency",1,716,"Include"
"SB2020_e3","SB2020_e3_11",2,"click",33,0,"VariableFrequency",2,871,"Include"
"SB2020_e3","SB2020_e3_11",2,"lever",34,1,"VariableFrequency",3,1057,"Include"
"SB2020_e3","SB2020_e3_11",2,"verve",35,1,"VariableFrequency",2,876,"Include"
"SB2020_e3","SB2020_e3_11",2,"prawn",36,0,"VariableFrequency",1,963,"Include"
"SB2020_e3","SB2020_e3_11",2,"blast",37,0,"VariableFrequency",1,661,"Include"
"SB2020_e3","SB2020_e3_11",2,"dolts",38,1,"VariableFrequency",1,1366,"Include"
"SB2020_e3","SB2020_e3_11",2,"capos",39,0,"VariableFrequency",4,1258,"Include"
"SB2020_e3","SB2020_e3_11",2,"stock",40,1,"VariableFrequency",3,799,"Include"
"SB2020_e3","SB2020_e3_11",2,"chalk",41,0,"VariableFrequency",1,814,"Include"
"SB2020_e3","SB2020_e3_11",2,"fayre",42,0,"VariableFrequency",3,599,"Include"
"SB2020_e3","SB2020_e3_11",2,"bough",43,1,"VariableFrequency",1,611,"Include"
"SB2020_e3","SB2020_e3_11",2,"moggy",44,0,"VariableFrequency",1,728,"Include"
"SB2020_e3","SB2020_e3_11",2,"hippo",45,1,"VariableFrequency",6,1393,"Include"
"SB2020_e3","SB2020_e3_11",2,"honky",46,1,"VariableFrequency",3,1019,"Include"
"SB2020_e3","SB2020_e3_11",2,"tulip",47,0,"VariableFrequency",1,993,"Include"
"SB2020_e3","SB2020_e3_11",2,"ticks",48,0,"VariableFrequency",2,1328,"Include"
"SB2020_e3","SB2020_e3_11",2,"robot",49,0,"VariableFrequency",1,889,"Include"
"SB2020_e3","SB2020_e3_11",2,"beams",50,1,"VariableFrequency",2,994,"Include"
"SB2020_e3","SB2020_e3_11",2,"putty",51,1,"VariableFrequency",6,1148,"Include"
"SB2020_e3","SB2020_e3_11",2,"fifth",52,0,"VariableFrequency",2,814,"Include"
"SB2020_e3","SB2020_e3_11",2,"foamy",53,1,"VariableFrequency",4,1162,"Include"
"SB2020_e3","SB2020_e3_11",2,"snowy",54,0,"VariableFrequency",3,1180,"Include"
"SB2020_e3","SB2020_e3_11",2,"hanky",55,1,"VariableFrequency",5,1665,"Include"
"SB2020_e3","SB2020_e3_11",2,"mains",56,0,"VariableFrequency",2,846,"Include"
"SB2020_e3","SB2020_e3_11",2,"ropey",57,1,"VariableFrequency",6,1490,"Include"
"SB2020_e3","SB2020_e3_11",2,"havoc",58,0,"VariableFrequency",1,1175,"Include"
"SB2020_e3","SB2020_e3_11",2,"rowdy",59,0,"VariableFrequency",1,745,"Include"
"SB2020_e3","SB2020_e3_11",2,"abuse",60,0,"VariableFrequency",2,751,"Include"
"SB2020_e3","SB2020_e3_11",2,"farms",61,1,"VariableFrequency",6,1040,"Include"
"SB2020_e3","SB2020_e3_11",2,"voice",62,0,"VariableFrequency",1,836,"Include"
"SB2020_e3","SB2020_e3_11",2,"lumps",63,0,"VariableFrequency",3,2379,"Include"
"SB2020_e3","SB2020_e3_11",2,"chimp",64,0,"VariableFrequency",1,1933,"Include"
"SB2020_e3","SB2020_e3_11",2,"stint",65,0,"VariableFrequency",1,698,"Include"
"SB2020_e3","SB2020_e3_11",2,"spire",66,1,"VariableFrequency",1,1102,"Include"
"SB2020_e3","SB2020_e3_11",2,"plain",67,1,"VariableFrequency",1,608,"Include"
"SB2020_e3","SB2020_e3_11",2,"swots",68,0,"VariableFrequency",1,608,"Include"
"SB2020_e3","SB2020_e3_11",2,"jowls",69,1,"VariableFrequency",1,1149,"Include"
"SB2020_e3","SB2020_e3_11",2,"fetch",70,1,"VariableFrequency",2,1440,"Include"
"SB2020_e3","SB2020_e3_11",2,"issue",71,0,"VariableFrequency",1,796,"Include"
"SB2020_e3","SB2020_e3_11",2,"house",72,0,"VariableFrequency",6,2232,"Include"
"SB2020_e3","SB2020_e3_11",2,"tonne",73,1,"VariableFrequency",6,899,"Include"
"SB2020_e3","SB2020_e3_11",2,"gusto",74,0,"VariableFrequency",2,887,"Include"
"SB2020_e3","SB2020_e3_11",2,"cairn",75,0,"VariableFrequency",2,740,"Include"
"SB2020_e3","SB2020_e3_11",2,"denim",76,0,"VariableFrequency",1,2010,"Include"
"SB2020_e3","SB2020_e3_11",2,"sleep",77,1,"VariableFrequency",2,1802,"Include"
"SB2020_e3","SB2020_e3_11",2,"bases",78,0,"VariableFrequency",1,874,"Include"
"SB2020_e3","SB2020_e3_11",2,"light",79,0,"VariableFrequency",1,906,"Include"
"SB2020_e3","SB2020_e3_11",2,"optic",80,0,"VariableFrequency",1,753,"Include"
"SB2020_e3","SB2020_e3_11",2,"bluff",81,0,"VariableFrequency",1,544,"Include"
"SB2020_e3","SB2020_e3_11",2,"frizz",82,1,"VariableFrequency",1,849,"Include"
"SB2020_e3","SB2020_e3_11",2,"intro",83,0,"VariableFrequency",1,1226,"Include"
"SB2020_e3","SB2020_e3_11",2,"rafts",84,0,"VariableFrequency",1,648,"Include"
"SB2020_e3","SB2020_e3_11",2,"spray",85,0,"VariableFrequency",2,962,"Include"
"SB2020_e3","SB2020_e3_11",2,"bezel",86,0,"VariableFrequency",1,732,"Include"
"SB2020_e3","SB2020_e3_11",2,"maths",87,1,"VariableFrequency",3,1541,"Include"
"SB2020_e3","SB2020_e3_11",2,"order",88,0,"VariableFrequency",2,948,"Include"
"SB2020_e3","SB2020_e3_11",2,"bully",89,0,"VariableFrequency",1,1302,"Include"
"SB2020_e3","SB2020_e3_11",2,"daubs",90,1,"VariableFrequency",2,948,"Include"
"SB2020_e3","SB2020_e3_11",2,"crush",91,1,"VariableFrequency",6,1169,"Include"
"SB2020_e3","SB2020_e3_11",2,"snipe",92,0,"VariableFrequency",2,1255,"Include"
"SB2020_e3","SB2020_e3_11",2,"posit",93,0,"VariableFrequency",1,909,"Include"
"SB2020_e3","SB2020_e3_11",2,"hacks",94,0,"VariableFrequency",3,933,"Include"
"SB2020_e3","SB2020_e3_11",2,"haven",95,1,"VariableFrequency",2,1355,"Include"
"SB2020_e3","SB2020_e3_11",2,"easel",96,1,"VariableFrequency",6,874,"Include"
"SB2020_e3","SB2020_e3_11",2,"carat",97,1,"VariableFrequency",6,873,"Include"
"SB2020_e3","SB2020_e3_11",2,"decal",98,0,"VariableFrequency",1,2319,"Include"
"SB2020_e3","SB2020_e3_11",2,"pizza",99,1,"VariableFrequency",6,871,"Include"
"SB2020_e3","SB2020_e3_11",2,"wools",100,1,"VariableFrequency",1,949,"Include"
"SB2020_e3","SB2020_e3_11",2,"style",101,1,"VariableFrequency",2,700,"Include"
"SB2020_e3","SB2020_e3_11",2,"hides",102,1,"VariableFrequency",1,686,"Include"
"SB2020_e3","SB2020_e3_11",2,"highs",103,0,"VariableFrequency",1,1203,"Include"
"SB2020_e3","SB2020_e3_11",2,"tyres",104,1,"VariableFrequency",6,1145,"Include"
"SB2020_e3","SB2020_e3_11",2,"eagle",105,0,"VariableFrequency",2,1058,"Include"
"SB2020_e3","SB2020_e3_11",2,"blank",106,1,"VariableFrequency",1,854,"Include"
"SB2020_e3","SB2020_e3_11",2,"reads",107,1,"VariableFrequency",2,847,"Include"
"SB2020_e3","SB2020_e3_11",2,"groin",108,0,"VariableFrequency",1,688,"Include"
"SB2020_e3","SB2020_e3_11",2,"hinds",109,1,"VariableFrequency",6,994,"Include"
"SB2020_e3","SB2020_e3_11",2,"paedo",110,1,"VariableFrequency",6,757,"Include"
"SB2020_e3","SB2020_e3_11",2,"shoot",111,1,"VariableFrequency",6,728,"Include"
"SB2020_e3","SB2020_e3_11",2,"chavs",112,1,"VariableFrequency",6,732,"Include"
"SB2020_e3","SB2020_e3_11",2,"holds",113,0,"VariableFrequency",2,1080,"Include"
"SB2020_e3","SB2020_e3_11",2,"boomy",114,0,"VariableFrequency",1,982,"Include"
"SB2020_e3","SB2020_e3_11",2,"water",115,1,"VariableFrequency",6,837,"Include"
"SB2020_e3","SB2020_e3_11",2,"curio",116,0,"VariableFrequency",1,909,"Include"
"SB2020_e3","SB2020_e3_11",2,"craps",117,0,"VariableFrequency",1,1266,"Include"
"SB2020_e3","SB2020_e3_11",2,"avoid",118,1,"VariableFrequency",2,851,"Include"
"SB2020_e3","SB2020_e3_11",2,"oases",119,0,"VariableFrequency",1,833,"Include"
"SB2020_e3","SB2020_e3_11",2,"clash",120,1,"VariableFrequency",3,1054,"Include"
"SB2020_e3","SB2020_e3_11",2,"annul",121,1,"VariableFrequency",6,1134,"Include"
"SB2020_e3","SB2020_e3_11",2,"swill",122,1,"VariableFrequency",2,1057,"Include"
"SB2020_e3","SB2020_e3_11",2,"binge",123,0,"VariableFrequency",2,802,"Include"
"SB2020_e3","SB2020_e3_11",2,"sinus",124,1,"VariableFrequency",6,1533,"Include"
"SB2020_e3","SB2020_e3_11",2,"carry",125,0,"VariableFrequency",3,1873,"Include"
"SB2020_e3","SB2020_e3_11",2,"refit",126,1,"VariableFrequency",1,1194,"Include"
"SB2020_e3","SB2020_e3_11",2,"snarl",127,1,"VariableFrequency",2,1589,"Include"
"SB2020_e3","SB2020_e3_11",2,"whine",128,0,"VariableFrequency",1,890,"Include"
"SB2020_e3","SB2020_e3_11",2,"casks",129,1,"VariableFrequency",1,907,"Include"
"SB2020_e3","SB2020_e3_11",2,"tenth",130,0,"VariableFrequency",1,672,"Include"
"SB2020_e3","SB2020_e3_11",2,"panel",131,0,"VariableFrequency",1,677,"Include"
"SB2020_e3","SB2020_e3_11",2,"snugs",132,0,"VariableFrequency",1,687,"Include"
"SB2020_e3","SB2020_e3_11",2,"meals",133,0,"VariableFrequency",1,879,"Include"
"SB2020_e3","SB2020_e3_11",2,"sweat",134,0,"VariableFrequency",1,618,"Include"
"SB2020_e3","SB2020_e3_11",2,"spoke",135,0,"VariableFrequency",2,662,"Include"
"SB2020_e3","SB2020_e3_11",2,"qualm",136,1,"VariableFrequency",3,605,"Include"
"SB2020_e3","SB2020_e3_11",2,"paces",137,1,"VariableFrequency",2,1791,"Include"
"SB2020_e3","SB2020_e3_11",2,"booze",138,0,"VariableFrequency",1,2100,"Include"
"SB2020_e3","SB2020_e3_11",2,"reels",139,0,"VariableFrequency",2,775,"Include"
"SB2020_e3","SB2020_e3_11",2,"ergot",140,0,"VariableFrequency",2,666,"Include"
"SB2020_e3","SB2020_e3_11",2,"fuses",141,0,"VariableFrequency",2,1072,"Include"
"SB2020_e3","SB2020_e3_11",2,"lives",142,1,"VariableFrequency",6,1832,"Include"
"SB2020_e3","SB2020_e3_11",2,"skimp",143,0,"VariableFrequency",3,1188,"Include"
"SB2020_e3","SB2020_e3_11",2,"phone",144,1,"VariableFrequency",6,1173,"Include"
"SB2020_e3","SB2020_e3_11",2,"class",145,0,"VariableFrequency",1,1220,"Include"
"SB2020_e3","SB2020_e3_11",2,"gauze",146,0,"VariableFrequency",1,716,"Include"
"SB2020_e3","SB2020_e3_11",2,"fifty",147,1,"VariableFrequency",1,1090,"Include"
"SB2020_e3","SB2020_e3_11",2,"havin",148,0,"VariableFrequency",1,723,"Include"
"SB2020_e3","SB2020_e3_11",2,"trans",149,0,"VariableFrequency",1,926,"Include"
"SB2020_e3","SB2020_e3_11",2,"fader",150,0,"VariableFrequency",1,773,"Include"
"SB2020_e3","SB2020_e3_11",2,"piles",151,1,"VariableFrequency",1,703,"Include"
"SB2020_e3","SB2020_e3_11",2,"laces",152,0,"VariableFrequency",2,920,"Include"
"SB2020_e3","SB2020_e3_11",2,"clear",153,0,"VariableFrequency",3,1277,"Include"
"SB2020_e3","SB2020_e3_11",2,"align",154,1,"VariableFrequency",6,1347,"Include"
"SB2020_e3","SB2020_e3_11",2,"punch",155,1,"VariableFrequency",4,3127,"Include"
"SB2020_e3","SB2020_e3_11",2,"sperm",156,1,"VariableFrequency",6,943,"Include"
"SB2020_e3","SB2020_e3_11",2,"salts",157,1,"VariableFrequency",6,705,"Include"
"SB2020_e3","SB2020_e3_11",2,"doble",158,0,"VariableFrequency",2,993,"Include"
"SB2020_e3","SB2020_e3_11",2,"bales",159,1,"VariableFrequency",2,684,"Include"
"SB2020_e3","SB2020_e3_11",2,"leaps",160,1,"VariableFrequency",6,952,"Include"
"SB2020_e3","SB2020_e3_11",2,"twine",161,0,"VariableFrequency",1,1507,"Include"
"SB2020_e3","SB2020_e3_11",2,"liars",162,0,"VariableFrequency",1,847,"Include"
"SB2020_e3","SB2020_e3_11",2,"kebab",163,0,"VariableFrequency",1,688,"Include"
"SB2020_e3","SB2020_e3_11",2,"suits",164,0,"VariableFrequency",1,845,"Include"
"SB2020_e3","SB2020_e3_11",2,"spell",165,0,"VariableFrequency",1,662,"Include"
"SB2020_e3","SB2020_e3_11",2,"stake",166,1,"VariableFrequency",1,779,"Include"
"SB2020_e3","SB2020_e3_11",2,"sicko",167,1,"VariableFrequency",2,1477,"Include"
"SB2020_e3","SB2020_e3_11",2,"songs",168,1,"VariableFrequency",1,947,"Include"
"SB2020_e3","SB2020_e3_11",2,"untie",169,1,"VariableFrequency",1,1292,"Include"
"SB2020_e3","SB2020_e3_11",2,"steer",170,1,"VariableFrequency",1,593,"Include"
"SB2020_e3","SB2020_e3_11",2,"socks",171,1,"VariableFrequency",1,889,"Include"
"SB2020_e3","SB2020_e3_11",2,"valve",172,1,"VariableFrequency",6,1479,"Include"
"SB2020_e3","SB2020_e3_11",2,"rains",173,1,"VariableFrequency",6,772,"Include"
"SB2020_e3","SB2020_e3_11",2,"music",174,0,"VariableFrequency",3,914,"Include"
"SB2020_e3","SB2020_e3_11",2,"trend",175,1,"VariableFrequency",2,629,"Include"
"SB2020_e3","SB2020_e3_11",2,"opium",176,1,"VariableFrequency",6,874,"Include"
"SB2020_e3","SB2020_e3_11",2,"lyres",177,0,"VariableFrequency",2,1036,"Include"
"SB2020_e3","SB2020_e3_11",2,"choke",178,1,"VariableFrequency",1,973,"Include"
"SB2020_e3","SB2020_e3_11",2,"knave",179,1,"VariableFrequency",4,2181,"Include"
"SB2020_e3","SB2020_e3_11",2,"taker",180,0,"VariableFrequency",3,812,"Include"
"SB2020_e3","SB2020_e3_11",2,"bonks",181,1,"VariableFrequency",1,915,"Include"
"SB2020_e3","SB2020_e3_11",2,"beach",182,0,"VariableFrequency",1,555,"Include"
"SB2020_e3","SB2020_e3_11",2,"drawn",183,0,"VariableFrequency",2,813,"Include"
"SB2020_e3","SB2020_e3_11",2,"clogs",184,1,"VariableFrequency",1,744,"Include"
"SB2020_e3","SB2020_e3_11",2,"major",185,1,"VariableFrequency",1,743,"Include"
"SB2020_e3","SB2020_e3_11",2,"cords",186,1,"VariableFrequency",2,907,"Include"
"SB2020_e3","SB2020_e3_11",2,"canes",187,0,"VariableFrequency",1,787,"Include"
"SB2020_e3","SB2020_e3_11",2,"ethic",188,0,"VariableFrequency",1,802,"Include"
"SB2020_e3","SB2020_e3_11",2,"rails",189,0,"VariableFrequency",1,826,"Include"
"SB2020_e3","SB2020_e3_11",2,"stems",190,1,"VariableFrequency",2,652,"Include"
"SB2020_e3","SB2020_e3_11",2,"woozy",191,0,"VariableFrequency",1,1582,"Include"
"SB2020_e3","SB2020_e3_11",2,"outer",192,1,"VariableFrequency",2,905,"Include"
"SB2020_e3","SB2020_e3_11",2,"breed",193,0,"VariableFrequency",1,725,"Include"
"SB2020_e3","SB2020_e3_11",2,"money",194,1,"VariableFrequency",2,793,"Include"
"SB2020_e3","SB2020_e3_11",2,"reeds",195,1,"VariableFrequency",2,956,"Include"
"SB2020_e3","SB2020_e3_11",2,"matey",196,1,"VariableFrequency",1,1936,"Include"
"SB2020_e3","SB2020_e3_11",2,"dirty",197,1,"VariableFrequency",6,1717,"Include"
"SB2020_e3","SB2020_e3_11",2,"plead",198,0,"VariableFrequency",2,984,"Include"
"SB2020_e3","SB2020_e3_11",2,"nylon",199,1,"VariableFrequency",1,1028,"Include"
"SB2020_e3","SB2020_e3_11",2,"panko",200,1,"VariableFrequency",3,752,"Include"
"SB2020_e3","SB2020_e3_12",1,"snugs",1,0,"VariableFrequency",1,3986,"Include"
"SB2020_e3","SB2020_e3_12",1,"sings",2,0,"VariableFrequency",6,6781,"Include"
"SB2020_e3","SB2020_e3_12",1,"farms",3,1,"VariableFrequency",6,593,"Include"
"SB2020_e3","SB2020_e3_12",1,"grief",4,1,"VariableFrequency",6,1354,"Include"
"SB2020_e3","SB2020_e3_12",1,"hippo",5,1,"VariableFrequency",6,2163,"Include"
"SB2020_e3","SB2020_e3_12",1,"liars",6,0,"VariableFrequency",6,429,"Include"
"SB2020_e3","SB2020_e3_12",1,"casks",7,1,"VariableFrequency",6,770,"Include"
"SB2020_e3","SB2020_e3_12",1,"hides",8,1,"VariableFrequency",6,508,"Include"
"SB2020_e3","SB2020_e3_12",1,"trans",9,0,"VariableFrequency",6,451,"Include"
"SB2020_e3","SB2020_e3_12",1,"taker",10,0,"VariableFrequency",6,546,"Include"
"SB2020_e3","SB2020_e3_12",1,"house",11,0,"VariableFrequency",6,940,"Include"
"SB2020_e3","SB2020_e3_12",1,"panko",12,1,"VariableFrequency",6,1319,"Include"
"SB2020_e3","SB2020_e3_12",1,"delay",13,1,"VariableFrequency",6,550,"Include"
"SB2020_e3","SB2020_e3_12",1,"socks",14,1,"VariableFrequency",6,1766,"Include"
"SB2020_e3","SB2020_e3_12",1,"biped",15,1,"VariableFrequency",6,1401,"Include"
"SB2020_e3","SB2020_e3_12",1,"bully",16,0,"VariableFrequency",6,520,"Include"
"SB2020_e3","SB2020_e3_12",1,"cairn",17,0,"VariableFrequency",6,905,"Include"
"SB2020_e3","SB2020_e3_12",1,"craps",18,0,"VariableFrequency",6,507,"Include"
"SB2020_e3","SB2020_e3_12",1,"court",19,1,"VariableFrequency",6,801,"Include"
"SB2020_e3","SB2020_e3_12",1,"gauze",20,0,"VariableFrequency",6,1508,"Include"
"SB2020_e3","SB2020_e3_12",1,"prawn",21,0,"VariableFrequency",6,765,"Include"
"SB2020_e3","SB2020_e3_12",1,"untie",22,1,"VariableFrequency",6,666,"Include"
"SB2020_e3","SB2020_e3_12",1,"blank",23,1,"VariableFrequency",6,664,"Include"
"SB2020_e3","SB2020_e3_12",1,"oases",24,0,"VariableFrequency",6,993,"Include"
"SB2020_e3","SB2020_e3_12",1,"sweat",25,0,"VariableFrequency",6,989,"Include"
"SB2020_e3","SB2020_e3_12",1,"buffs",26,1,"VariableFrequency",6,714,"Include"
"SB2020_e3","SB2020_e3_12",1,"meals",27,0,"VariableFrequency",6,520,"Include"
"SB2020_e3","SB2020_e3_12",1,"ergot",28,0,"VariableFrequency",6,807,"Include"
"SB2020_e3","SB2020_e3_12",1,"kebab",29,0,"VariableFrequency",6,793,"Include"
"SB2020_e3","SB2020_e3_12",1,"leaps",30,1,"VariableFrequency",6,772,"Include"
"SB2020_e3","SB2020_e3_12",1,"crush",31,1,"VariableFrequency",6,747,"Include"
"SB2020_e3","SB2020_e3_12",1,"twine",32,0,"VariableFrequency",6,540,"Include"
"SB2020_e3","SB2020_e3_12",1,"lever",33,1,"VariableFrequency",6,570,"Include"
"SB2020_e3","SB2020_e3_12",1,"fuses",34,0,"VariableFrequency",6,535,"Include"
"SB2020_e3","SB2020_e3_12",1,"phone",35,1,"VariableFrequency",6,536,"Include"
"SB2020_e3","SB2020_e3_12",1,"tenth",36,0,"VariableFrequency",6,804,"Include"
"SB2020_e3","SB2020_e3_12",1,"putty",37,1,"VariableFrequency",6,839,"Include"
"SB2020_e3","SB2020_e3_12",1,"lifts",38,0,"VariableFrequency",6,532,"Include"
"SB2020_e3","SB2020_e3_12",1,"stint",39,0,"VariableFrequency",6,662,"Include"
"SB2020_e3","SB2020_e3_12",1,"carat",40,1,"VariableFrequency",6,506,"Include"
"SB2020_e3","SB2020_e3_12",1,"verve",41,1,"VariableFrequency",6,703,"Include"
"SB2020_e3","SB2020_e3_12",1,"chavs",42,1,"VariableFrequency",6,1143,"Include"
"SB2020_e3","SB2020_e3_12",1,"snarl",43,1,"VariableFrequency",6,663,"Include"
"SB2020_e3","SB2020_e3_12",1,"paedo",44,1,"VariableFrequency",6,519,"Include"
"SB2020_e3","SB2020_e3_12",1,"spray",45,0,"VariableFrequency",6,6993,"Include"
"SB2020_e3","SB2020_e3_12",1,"drawn",46,0,"VariableFrequency",6,2833,"Include"
"SB2020_e3","SB2020_e3_12",1,"chasm",47,0,"VariableFrequency",6,5073,"Include"
"SB2020_e3","SB2020_e3_12",1,"avoid",48,1,"VariableFrequency",6,4148,"Include"
"SB2020_e3","SB2020_e3_12",1,"bosom",49,0,"VariableFrequency",6,2470,"Include"
"SB2020_e3","SB2020_e3_12",1,"mains",50,0,"VariableFrequency",6,1706,"Include"
"SB2020_e3","SB2020_e3_12",1,"bales",51,1,"VariableFrequency",4,4788,"Include"
"SB2020_e3","SB2020_e3_12",1,"skimp",52,0,"VariableFrequency",6,1093,"Include"
"SB2020_e3","SB2020_e3_12",1,"trend",53,1,"VariableFrequency",4,5717,"Include"
"SB2020_e3","SB2020_e3_12",1,"pizza",54,1,"VariableFrequency",4,1798,"Include"
"SB2020_e3","SB2020_e3_12",1,"fader",55,0,"VariableFrequency",4,1779,"Include"
"SB2020_e3","SB2020_e3_12",1,"tonne",56,1,"VariableFrequency",4,3554,"Include"
"SB2020_e3","SB2020_e3_12",1,"hands",57,0,"VariableFrequency",4,816,"Include"
"SB2020_e3","SB2020_e3_12",1,"robot",58,0,"VariableFrequency",6,2930,"Include"
"SB2020_e3","SB2020_e3_12",1,"quack",59,1,"VariableFrequency",4,908,"Include"
"SB2020_e3","SB2020_e3_12",1,"beams",60,1,"VariableFrequency",4,909,"Include"
"SB2020_e3","SB2020_e3_12",1,"whine",61,0,"VariableFrequency",6,1008,"Include"
"SB2020_e3","SB2020_e3_12",1,"frizz",62,1,"VariableFrequency",4,900,"Include"
"SB2020_e3","SB2020_e3_12",1,"chimp",63,0,"VariableFrequency",4,797,"Include"
"SB2020_e3","SB2020_e3_12",1,"squab",64,1,"VariableFrequency",4,1007,"Include"
"SB2020_e3","SB2020_e3_12",1,"laces",65,0,"VariableFrequency",4,1310,"Include"
"SB2020_e3","SB2020_e3_12",1,"carry",66,0,"VariableFrequency",4,912,"Include"
"SB2020_e3","SB2020_e3_12",1,"rails",67,0,"VariableFrequency",4,1946,"Include"
"SB2020_e3","SB2020_e3_12",1,"knave",68,1,"VariableFrequency",4,1520,"Include"
"SB2020_e3","SB2020_e3_12",1,"swill",69,1,"VariableFrequency",6,1054,"Include"
"SB2020_e3","SB2020_e3_12",1,"bases",70,0,"VariableFrequency",4,839,"Include"
"SB2020_e3","SB2020_e3_12",1,"bluff",71,0,"VariableFrequency",4,807,"Include"
"SB2020_e3","SB2020_e3_12",1,"light",72,0,"VariableFrequency",4,1077,"Include"
"SB2020_e3","SB2020_e3_12",1,"opium",73,1,"VariableFrequency",4,1544,"Include"
"SB2020_e3","SB2020_e3_12",1,"wools",74,1,"VariableFrequency",4,2207,"Include"
"SB2020_e3","SB2020_e3_12",1,"doble",75,0,"VariableFrequency",4,1132,"Include"
"SB2020_e3","SB2020_e3_12",1,"vetos",76,1,"VariableFrequency",4,649,"Include"
"SB2020_e3","SB2020_e3_12",1,"itchy",77,1,"VariableFrequency",4,2056,"Include"
"SB2020_e3","SB2020_e3_12",1,"capos",78,0,"VariableFrequency",4,2787,"Include"
"SB2020_e3","SB2020_e3_12",1,"order",79,0,"VariableFrequency",4,1695,"Include"
"SB2020_e3","SB2020_e3_12",1,"posit",80,0,"VariableFrequency",4,959,"Include"
"SB2020_e3","SB2020_e3_12",1,"canal",81,0,"VariableFrequency",6,993,"Include"
"SB2020_e3","SB2020_e3_12",1,"highs",82,0,"VariableFrequency",4,834,"Include"
"SB2020_e3","SB2020_e3_12",1,"dingy",83,1,"VariableFrequency",4,1583,"Include"
"SB2020_e3","SB2020_e3_12",1,"cords",84,1,"VariableFrequency",4,858,"Include"
"SB2020_e3","SB2020_e3_12",1,"snipe",85,0,"VariableFrequency",4,1853,"Include"
"SB2020_e3","SB2020_e3_12",1,"reeds",86,1,"VariableFrequency",4,839,"Include"
"SB2020_e3","SB2020_e3_12",1,"beach",87,0,"VariableFrequency",4,768,"Include"
"SB2020_e3","SB2020_e3_12",1,"valve",88,1,"VariableFrequency",6,1436,"Include"
"SB2020_e3","SB2020_e3_12",1,"panel",89,0,"VariableFrequency",4,1395,"Include"
"SB2020_e3","SB2020_e3_12",1,"chalk",90,0,"VariableFrequency",6,613,"Include"
"SB2020_e3","SB2020_e3_12",1,"lives",91,1,"VariableFrequency",4,833,"Include"
"SB2020_e3","SB2020_e3_12",1,"nylon",92,1,"VariableFrequency",4,815,"Include"
"SB2020_e3","SB2020_e3_12",1,"snowy",93,0,"VariableFrequency",4,765,"Include"
