"exp","id","block","item","trial","isold","condition","rating","RT","excluding"
"SB2020_e1","SB2020_e1_1",1,"compost",1,1,"FixedStudy",6,7543,"Include"
"SB2020_e1","SB2020_e1_1",1,"advisor",2,0,"FixedStudy",5,9002,"Include"
"SB2020_e1","SB2020_e1_1",1,"holiday",3,1,"FixedStudy",6,2070,"Include"
"SB2020_e1","SB2020_e1_1",1,"sandman",4,0,"FixedStudy",2,5526,"Include"
"SB2020_e1","SB2020_e1_1",1,"pottery",5,1,"FixedStudy",6,1485,"Include"
"SB2020_e1","SB2020_e1_1",1,"masseur",6,1,"FixedStudy",1,3874,"Include"
"SB2020_e1","SB2020_e1_1",1,"platoon",7,0,"FixedStudy",1,3377,"Include"
"SB2020_e1","SB2020_e1_1",1,"printer",8,0,"FixedStudy",3,6187,"Include"
"SB2020_e1","SB2020_e1_1",1,"drizzle",9,0,"FixedStudy",3,4050,"Include"
"SB2020_e1","SB2020_e1_1",1,"anatomy",10,1,"FixedStudy",5,5727,"Include"
"SB2020_e1","SB2020_e1_1",1,"aspirin",11,1,"FixedStudy",6,2411,"Include"
"SB2020_e1","SB2020_e1_1",1,"inverse",12,1,"FixedStudy",6,774,"Include"
"SB2020_e1","SB2020_e1_1",1,"overlap",13,1,"FixedStudy",6,1181,"Include"
"SB2020_e1","SB2020_e1_1",1,"fuchsia",14,0,"FixedStudy",5,2178,"Include"
"SB2020_e1","SB2020_e1_1",1,"tenancy",15,1,"FixedStudy",6,1115,"Include"
"SB2020_e1","SB2020_e1_1",1,"consent",16,1,"FixedStudy",5,3096,"Include"
"SB2020_e1","SB2020_e1_1",1,"dreamer",17,1,"FixedStudy",6,1480,"Include"
"SB2020_e1","SB2020_e1_1",1,"whiskey",18,1,"FixedStudy",6,1134,"Include"
"SB2020_e1","SB2020_e1_1",1,"showman",19,1,"FixedStudy",5,7023,"Include"
"SB2020_e1","SB2020_e1_1",1,"ruffian",20,1,"FixedStudy",6,1560,"Include"
"SB2020_e1","SB2020_e1_1",1,"asphalt",21,1,"FixedStudy",6,1078,"Include"
"SB2020_e1","SB2020_e1_1",1,"skinner",22,0,"FixedStudy",1,3372,"Include"
"SB2020_e1","SB2020_e1_1",1,"antique",23,1,"FixedStudy",6,2436,"Include"
"SB2020_e1","SB2020_e1_1",1,"goddess",24,0,"FixedStudy",2,3847,"Include"
"SB2020_e1","SB2020_e1_1",1,"hostage",25,1,"FixedStudy",2,1515,"Include"
"SB2020_e1","SB2020_e1_1",1,"synonym",26,1,"FixedStudy",6,2123,"Include"
"SB2020_e1","SB2020_e1_1",1,"caliper",27,1,"FixedStudy",6,946,"Include"
"SB2020_e1","SB2020_e1_1",1,"nurture",28,0,"FixedStudy",5,3841,"Include"
"SB2020_e1","SB2020_e1_1",1,"mastiff",29,1,"FixedStudy",6,2100,"Include"
"SB2020_e1","SB2020_e1_1",1,"postman",30,1,"FixedStudy",6,1085,"Include"
"SB2020_e1","SB2020_e1_1",1,"trimmer",31,0,"FixedStudy",3,4705,"Include"
"SB2020_e1","SB2020_e1_1",1,"foreman",32,0,"FixedStudy",4,7809,"Include"
"SB2020_e1","SB2020_e1_1",1,"liqueur",33,1,"FixedStudy",6,4751,"Include"
"SB2020_e1","SB2020_e1_1",1,"primate",34,1,"FixedStudy",6,1541,"Include"
"SB2020_e1","SB2020_e1_1",1,"malaise",35,0,"FixedStudy",1,3997,"Include"
"SB2020_e1","SB2020_e1_1",1,"skipper",36,0,"FixedStudy",2,1481,"Include"
"SB2020_e1","SB2020_e1_1",1,"hairpin",37,0,"FixedStudy",4,4886,"Include"
"SB2020_e1","SB2020_e1_1",1,"rapture ",38,1,"FixedStudy",6,1463,"Include"
"SB2020_e1","SB2020_e1_1",1,"vintage",39,0,"FixedStudy",1,1739,"Include"
"SB2020_e1","SB2020_e1_1",1,"insulin",40,1,"FixedStudy",6,1853,"Include"
"SB2020_e1","SB2020_e1_1",1,"chutney",41,1,"FixedStudy",6,904,"Include"
"SB2020_e1","SB2020_e1_1",1,"whisper",42,0,"FixedStudy",4,4729,"Include"
"SB2020_e1","SB2020_e1_1",1,"granite",43,0,"FixedStudy",1,1481,"Include"
"SB2020_e1","SB2020_e1_1",1,"hillman",44,0,"FixedStudy",1,1715,"Include"
"SB2020_e1","SB2020_e1_1",1,"floater",45,1,"FixedStudy",6,3073,"Include"
"SB2020_e1","SB2020_e1_1",1,"polemic",46,1,"FixedStudy",1,1468,"Include"
"SB2020_e1","SB2020_e1_1",1,"reverie",47,1,"FixedStudy",6,1230,"Include"
"SB2020_e1","SB2020_e1_1",1,"paragon",48,1,"FixedStudy",2,4995,"Include"
"SB2020_e1","SB2020_e1_1",1,"anguish",49,0,"FixedStudy",1,1825,"Include"
"SB2020_e1","SB2020_e1_1",1,"perjury",50,1,"FixedStudy",6,1524,"Include"
"SB2020_e1","SB2020_e1_1",1,"kinetic",51,0,"FixedStudy",4,4346,"Include"
"SB2020_e1","SB2020_e1_1",1,"passive",52,0,"FixedStudy",2,2971,"Include"
"SB2020_e1","SB2020_e1_1",1,"slumber",53,1,"FixedStudy",6,2281,"Include"
"SB2020_e1","SB2020_e1_1",1,"scuffle",54,0,"FixedStudy",3,4934,"Include"
"SB2020_e1","SB2020_e1_1",1,"cunning",55,0,"FixedStudy",1,3247,"Include"
"SB2020_e1","SB2020_e1_1",1,"bedtime",56,0,"FixedStudy",1,3139,"Include"
"SB2020_e1","SB2020_e1_1",1,"ocarina",57,0,"FixedStudy",3,4502,"Include"
"SB2020_e1","SB2020_e1_1",1,"mansion",58,0,"FixedStudy",3,1944,"Include"
"SB2020_e1","SB2020_e1_1",1,"spangle",59,1,"FixedStudy",6,1680,"Include"
"SB2020_e1","SB2020_e1_1",1,"cushion",60,0,"FixedStudy",2,5997,"Include"
"SB2020_e1","SB2020_e1_1",1,"chimney",61,0,"FixedStudy",2,2172,"Include"
"SB2020_e1","SB2020_e1_1",1,"regency",62,1,"FixedStudy",2,2557,"Include"
"SB2020_e1","SB2020_e1_1",1,"adviser",63,0,"FixedStudy",2,2893,"Include"
"SB2020_e1","SB2020_e1_1",1,"defence",64,0,"FixedStudy",1,1997,"Include"
"SB2020_e1","SB2020_e1_1",1,"devisee",65,0,"FixedStudy",1,1313,"Include"
"SB2020_e1","SB2020_e1_1",1,"pitfall",66,0,"FixedStudy",1,1205,"Include"
"SB2020_e1","SB2020_e1_1",1,"monarch",67,1,"FixedStudy",5,5185,"Include"
"SB2020_e1","SB2020_e1_1",1,"backlog",68,0,"FixedStudy",2,3126,"Include"
"SB2020_e1","SB2020_e1_1",1,"seminar",69,0,"FixedStudy",2,1367,"Include"
"SB2020_e1","SB2020_e1_1",1,"burglar",70,1,"FixedStudy",5,3072,"Include"
"SB2020_e1","SB2020_e1_1",1,"phoenix",71,1,"FixedStudy",6,1181,"Include"
"SB2020_e1","SB2020_e1_1",1,"stopper",72,1,"FixedStudy",1,2658,"Include"
"SB2020_e1","SB2020_e1_1",1,"trickle",73,1,"FixedStudy",4,6399,"Include"
"SB2020_e1","SB2020_e1_1",1,"vaccine",74,0,"FixedStudy",3,4879,"Include"
"SB2020_e1","SB2020_e1_1",1,"novelty",75,0,"FixedStudy",4,5229,"Include"
"SB2020_e1","SB2020_e1_1",1,"haddock",76,1,"FixedStudy",6,2323,"Include"
"SB2020_e1","SB2020_e1_1",1,"overlay",77,0,"FixedStudy",3,4778,"Include"
"SB2020_e1","SB2020_e1_1",1,"planter",78,0,"FixedStudy",2,2419,"Include"
"SB2020_e1","SB2020_e1_1",1,"fatigue",79,0,"FixedStudy",2,2448,"Include"
"SB2020_e1","SB2020_e1_1",1,"magenta",80,1,"FixedStudy",6,3228,"Include"
"SB2020_e1","SB2020_e1_1",1,"premise",81,0,"FixedStudy",5,2988,"Include"
"SB2020_e1","SB2020_e1_1",1,"lexicon",82,1,"FixedStudy",6,1397,"Include"
"SB2020_e1","SB2020_e1_1",1,"commune",83,1,"FixedStudy",6,3294,"Include"
"SB2020_e1","SB2020_e1_1",1,"impiety",84,0,"FixedStudy",1,1998,"Include"
"SB2020_e1","SB2020_e1_1",1,"parapet",85,1,"FixedStudy",6,1313,"Include"
"SB2020_e1","SB2020_e1_1",1,"hatchet",86,1,"FixedStudy",1,4652,"Include"
"SB2020_e1","SB2020_e1_1",1,"destiny",87,1,"FixedStudy",6,1164,"Include"
"SB2020_e1","SB2020_e1_1",1,"glimmer",88,1,"FixedStudy",6,846,"Include"
"SB2020_e1","SB2020_e1_1",1,"statute",89,1,"FixedStudy",6,887,"Include"
"SB2020_e1","SB2020_e1_1",1,"charmer",90,1,"FixedStudy",6,1194,"Include"
"SB2020_e1","SB2020_e1_1",1,"holland",91,0,"FixedStudy",1,1717,"Include"
"SB2020_e1","SB2020_e1_1",1,"texture",92,0,"FixedStudy",3,3139,"Include"
"SB2020_e1","SB2020_e1_1",1,"fixture",93,1,"FixedStudy",6,1536,"Include"
"SB2020_e1","SB2020_e1_1",1,"outline",94,1,"FixedStudy",6,1038,"Include"
"SB2020_e1","SB2020_e1_1",1,"diagram",95,1,"FixedStudy",5,2989,"Include"
"SB2020_e1","SB2020_e1_1",1,"lampoon",96,1,"FixedStudy",6,4448,"Include"
"SB2020_e1","SB2020_e1_1",1,"sleeper",97,1,"FixedStudy",6,1187,"Include"
"SB2020_e1","SB2020_e1_1",1,"suspect",98,0,"FixedStudy",2,1638,"Include"
"SB2020_e1","SB2020_e1_1",1,"outgrow",99,0,"FixedStudy",2,2178,"Include"
"SB2020_e1","SB2020_e1_1",1,"leasing",100,1,"FixedStudy",6,1374,"Include"
"SB2020_e1","SB2020_e1_1",1,"pleader",101,0,"FixedStudy",3,2142,"Include"
"SB2020_e1","SB2020_e1_1",1,"pickaxe",102,0,"FixedStudy",3,1782,"Include"
"SB2020_e1","SB2020_e1_1",1,"cognate",103,0,"FixedStudy",3,5318,"Include"
"SB2020_e1","SB2020_e1_1",1,"catcher",104,1,"FixedStudy",4,2389,"Include"
"SB2020_e1","SB2020_e1_1",1,"kingpin",105,0,"FixedStudy",1,2065,"Include"
"SB2020_e1","SB2020_e1_1",1,"jitters",106,0,"FixedStudy",1,1098,"Include"
"SB2020_e1","SB2020_e1_1",1,"thermos",107,0,"FixedStudy",2,2521,"Include"
"SB2020_e1","SB2020_e1_1",1,"steeple",108,1,"FixedStudy",6,1308,"Include"
"SB2020_e1","SB2020_e1_1",1,"crimean",109,0,"FixedStudy",4,4688,"Include"
"SB2020_e1","SB2020_e1_1",1,"cruelty",110,0,"FixedStudy",2,2448,"Include"
"SB2020_e1","SB2020_e1_1",1,"descent",111,1,"FixedStudy",2,1950,"Include"
"SB2020_e1","SB2020_e1_1",1,"impetus",112,1,"FixedStudy",6,1524,"Include"
"SB2020_e1","SB2020_e1_1",1,"animism",113,1,"FixedStudy",6,947,"Include"
"SB2020_e1","SB2020_e1_1",1,"discord",114,0,"FixedStudy",1,1968,"Include"
"SB2020_e1","SB2020_e1_1",1,"pioneer",115,0,"FixedStudy",2,7876,"Include"
"SB2020_e1","SB2020_e1_1",1,"protein",116,1,"FixedStudy",6,1518,"Include"
"SB2020_e1","SB2020_e1_1",1,"alumnae",117,1,"FixedStudy",5,1680,"Include"
"SB2020_e1","SB2020_e1_1",1,"potency",118,1,"FixedStudy",6,995,"Include"
"SB2020_e1","SB2020_e1_1",1,"bastion",119,0,"FixedStudy",6,1362,"Include"
"SB2020_e1","SB2020_e1_1",1,"postmen",120,1,"FixedStudy",6,790,"Include"
"SB2020_e1","SB2020_e1_1",1,"panther",121,0,"FixedStudy",4,3521,"Include"
"SB2020_e1","SB2020_e1_1",1,"trustee",122,0,"FixedStudy",3,3283,"Include"
"SB2020_e1","SB2020_e1_1",1,"pronoun",123,0,"FixedStudy",5,3835,"Include"
"SB2020_e1","SB2020_e1_1",1,"rivalry",124,1,"FixedStudy",5,1602,"Include"
"SB2020_e1","SB2020_e1_1",1,"servant",125,0,"FixedStudy",3,3565,"Include"
"SB2020_e1","SB2020_e1_1",1,"quibble",126,0,"FixedStudy",2,2262,"Include"
"SB2020_e1","SB2020_e1_1",1,"wayside",127,0,"FixedStudy",2,2215,"Include"
"SB2020_e1","SB2020_e1_1",1,"capture",128,1,"FixedStudy",6,2586,"Include"
"SB2020_e1","SB2020_e1_1",1,"carcass",129,1,"FixedStudy",6,1403,"Include"
"SB2020_e1","SB2020_e1_1",1,"kindred",130,1,"FixedStudy",6,815,"Include"
"SB2020_e1","SB2020_e1_1",1,"actress",131,0,"FixedStudy",1,2273,"Include"
"SB2020_e1","SB2020_e1_1",1,"witness",132,1,"FixedStudy",1,3726,"Include"
"SB2020_e1","SB2020_e1_1",1,"impulse",133,0,"FixedStudy",1,1565,"Include"
"SB2020_e1","SB2020_e1_1",1,"figment",134,1,"FixedStudy",2,1907,"Include"
"SB2020_e1","SB2020_e1_1",1,"glamour",135,1,"FixedStudy",3,3192,"Include"
"SB2020_e1","SB2020_e1_1",1,"foliage",136,1,"FixedStudy",3,2693,"Include"
"SB2020_e1","SB2020_e1_1",1,"curtain",137,0,"FixedStudy",1,2221,"Include"
"SB2020_e1","SB2020_e1_1",1,"muezzin",138,1,"FixedStudy",6,1446,"Include"
"SB2020_e1","SB2020_e1_1",1,"settler",139,0,"FixedStudy",1,1429,"Include"
"SB2020_e1","SB2020_e1_1",1,"boulder",140,0,"FixedStudy",3,4368,"Include"
"SB2020_e1","SB2020_e1_1",1,"cripple",141,0,"FixedStudy",5,2221,"Include"
"SB2020_e1","SB2020_e1_1",1,"stardom",142,1,"FixedStudy",3,3937,"Include"
"SB2020_e1","SB2020_e1_1",1,"slipper",143,1,"FixedStudy",6,1350,"Include"
"SB2020_e1","SB2020_e1_1",1,"sternum",144,0,"FixedStudy",1,1626,"Include"
"SB2020_e1","SB2020_e1_1",1,"bigotry",145,1,"FixedStudy",6,1098,"Include"
"SB2020_e1","SB2020_e1_1",1,"anchovy",146,1,"FixedStudy",6,929,"Include"
"SB2020_e1","SB2020_e1_1",1,"crudity",147,0,"FixedStudy",4,4058,"Include"
"SB2020_e1","SB2020_e1_1",1,"cleaner",148,0,"FixedStudy",6,1319,"Include"
"SB2020_e1","SB2020_e1_1",1,"pasture",149,0,"FixedStudy",1,1722,"Include"
"SB2020_e1","SB2020_e1_1",1,"rooster",150,1,"FixedStudy",3,5114,"Include"
"SB2020_e1","SB2020_e1_1",1,"urinary",151,1,"FixedStudy",5,2533,"Include"
"SB2020_e1","SB2020_e1_1",1,"lucifer",152,1,"FixedStudy",6,966,"Include"
"SB2020_e1","SB2020_e1_1",1,"penance",153,0,"FixedStudy",2,1830,"Include"
"SB2020_e1","SB2020_e1_1",1,"orderly",154,0,"FixedStudy",2,2436,"Include"
"SB2020_e1","SB2020_e1_1",1,"matting",155,1,"FixedStudy",1,1800,"Include"
"SB2020_e1","SB2020_e1_1",1,"booster",156,0,"FixedStudy",5,2527,"Include"
"SB2020_e1","SB2020_e1_1",1,"sleight",157,0,"FixedStudy",3,2767,"Include"
"SB2020_e1","SB2020_e1_1",1,"canvass",158,1,"FixedStudy",6,1374,"Include"
"SB2020_e1","SB2020_e1_1",1,"footman",159,1,"FixedStudy",1,1644,"Include"
"SB2020_e1","SB2020_e1_1",1,"tumbler",160,1,"FixedStudy",6,1981,"Include"
"SB2020_e1","SB2020_e1_1",1,"dualism",161,1,"FixedStudy",6,1146,"Include"
"SB2020_e1","SB2020_e1_1",1,"tobacco",162,0,"FixedStudy",1,1596,"Include"
"SB2020_e1","SB2020_e1_1",1,"suction",163,0,"FixedStudy",3,7023,"Include"
"SB2020_e1","SB2020_e1_1",1,"sulphur",164,1,"FixedStudy",6,1758,"Include"
"SB2020_e1","SB2020_e1_1",1,"digital",165,1,"FixedStudy",5,1614,"Include"
"SB2020_e1","SB2020_e1_1",1,"pastime",166,0,"FixedStudy",4,4598,"Include"
"SB2020_e1","SB2020_e1_1",1,"forfeit",167,0,"FixedStudy",2,2724,"Include"
"SB2020_e1","SB2020_e1_1",1,"perfume",168,1,"FixedStudy",4,7048,"Include"
"SB2020_e1","SB2020_e1_1",1,"analyst",169,0,"FixedStudy",3,2587,"Include"
"SB2020_e1","SB2020_e1_1",1,"rotunda",170,0,"FixedStudy",3,3631,"Include"
"SB2020_e1","SB2020_e1_1",1,"caution",171,0,"FixedStudy",2,942,"Include"
"SB2020_e1","SB2020_e1_1",1,"arbiter",172,1,"FixedStudy",1,3824,"Include"
"SB2020_e1","SB2020_e1_1",1,"perusal",173,0,"FixedStudy",2,4388,"Include"
"SB2020_e1","SB2020_e1_1",1,"pyramid",174,0,"FixedStudy",2,1182,"Include"
"SB2020_e1","SB2020_e1_1",1,"picking",175,0,"FixedStudy",2,1674,"Include"
"SB2020_e1","SB2020_e1_1",1,"outrage",176,0,"FixedStudy",1,1144,"Include"
"SB2020_e1","SB2020_e1_1",1,"abandon",177,0,"FixedStudy",2,1247,"Include"
"SB2020_e1","SB2020_e1_1",1,"trigger",178,0,"FixedStudy",1,1559,"Include"
"SB2020_e1","SB2020_e1_1",1,"quintet",179,1,"FixedStudy",6,1716,"Include"
"SB2020_e1","SB2020_e1_1",1,"typhoid",180,1,"FixedStudy",6,1655,"Include"
"SB2020_e1","SB2020_e1_1",1,"epitome",181,1,"FixedStudy",2,1379,"Include"
"SB2020_e1","SB2020_e1_1",1,"airport",182,0,"FixedStudy",1,1072,"Include"
"SB2020_e1","SB2020_e1_1",1,"lantern",183,0,"FixedStudy",2,1481,"Include"
"SB2020_e1","SB2020_e1_1",1,"fighter",184,0,"FixedStudy",4,3696,"Include"
"SB2020_e1","SB2020_e1_1",1,"shooter",185,0,"FixedStudy",2,2243,"Include"
"SB2020_e1","SB2020_e1_1",1,"workman",186,1,"FixedStudy",2,2064,"Include"
"SB2020_e1","SB2020_e1_1",1,"anomaly",187,1,"FixedStudy",6,1205,"Include"
"SB2020_e1","SB2020_e1_1",1,"theorem",188,0,"FixedStudy",3,4633,"Include"
"SB2020_e1","SB2020_e1_1",1,"quantum",189,0,"FixedStudy",2,2573,"Include"
"SB2020_e1","SB2020_e1_1",1,"shipper",190,0,"FixedStudy",1,1205,"Include"
"SB2020_e1","SB2020_e1_1",1,"salient",191,1,"FixedStudy",6,1084,"Include"
"SB2020_e1","SB2020_e1_1",1,"brigade",192,0,"FixedStudy",2,8590,"Include"
"SB2020_e1","SB2020_e1_1",1,"stadium",193,0,"FixedStudy",3,3153,"Include"
"SB2020_e1","SB2020_e1_1",1,"buffoon",194,1,"FixedStudy",6,1963,"Include"
"SB2020_e1","SB2020_e1_1",1,"surgeon",195,1,"FixedStudy",6,1152,"Include"
"SB2020_e1","SB2020_e1_1",1,"shuffle",196,1,"FixedStudy",6,761,"Include"
"SB2020_e1","SB2020_e1_1",1,"vinegar",197,1,"FixedStudy",6,1020,"Include"
"SB2020_e1","SB2020_e1_1",1,"hostler",198,1,"FixedStudy",6,768,"Include"
"SB2020_e1","SB2020_e1_1",1,"painter",199,1,"FixedStudy",5,3861,"Include"
"SB2020_e1","SB2020_e1_1",1,"grizzly",200,0,"FixedStudy",5,18778,"Include"
"SB2020_e1","SB2020_e1_1",1,"pilgrim",201,1,"FixedStudy",6,1181,"Include"
"SB2020_e1","SB2020_e1_1",1,"vanilla",202,0,"FixedStudy",3,4453,"Include"
"SB2020_e1","SB2020_e1_1",1,"spectre",203,0,"FixedStudy",3,1763,"Include"
"SB2020_e1","SB2020_e1_1",1,"handler",204,1,"FixedStudy",4,4454,"Include"
"SB2020_e1","SB2020_e1_1",1,"cricket",205,0,"FixedStudy",1,1679,"Include"
"SB2020_e1","SB2020_e1_1",1,"tableau",206,1,"FixedStudy",4,5846,"Include"
"SB2020_e1","SB2020_e1_1",1,"veteran",207,1,"FixedStudy",4,2250,"Include"
"SB2020_e1","SB2020_e1_1",1,"residue",208,0,"FixedStudy",2,2819,"Include"
"SB2020_e1","SB2020_e1_1",1,"arousal",209,1,"FixedStudy",6,1343,"Include"
"SB2020_e1","SB2020_e1_1",1,"viceroy",210,1,"FixedStudy",6,838,"Include"
"SB2020_e1","SB2020_e1_1",1,"warhead",211,1,"FixedStudy",5,1901,"Include"
"SB2020_e1","SB2020_e1_1",1,"dictate",212,0,"FixedStudy",2,2244,"Include"
"SB2020_e1","SB2020_e1_1",1,"discard",213,1,"FixedStudy",6,2280,"Include"
"SB2020_e1","SB2020_e1_1",1,"varnish",214,1,"FixedStudy",6,1127,"Include"
"SB2020_e1","SB2020_e1_1",1,"squeeze",215,1,"FixedStudy",6,778,"Include"
"SB2020_e1","SB2020_e1_1",1,"cavalry",216,1,"FixedStudy",6,755,"Include"
"SB2020_e1","SB2020_e1_1",1,"hacksaw",217,1,"FixedStudy",6,731,"Include"
"SB2020_e1","SB2020_e1_1",1,"consort",218,0,"FixedStudy",1,2327,"Include"
"SB2020_e1","SB2020_e1_1",1,"monsoon",219,0,"FixedStudy",2,2598,"Include"
"SB2020_e1","SB2020_e1_1",1,"cabinet",220,0,"FixedStudy",4,4952,"Include"
"SB2020_e1","SB2020_e1_1",1,"voyager",221,0,"FixedStudy",1,1541,"Include"
"SB2020_e1","SB2020_e1_1",1,"ticking",222,0,"FixedStudy",4,3048,"Include"
"SB2020_e1","SB2020_e1_1",1,"spiller",223,0,"FixedStudy",1,1757,"Include"
"SB2020_e1","SB2020_e1_1",1,"harness",224,0,"FixedStudy",1,1421,"Include"
"SB2020_e1","SB2020_e1_1",1,"patriot",225,1,"FixedStudy",6,1625,"Include"
"SB2020_e1","SB2020_e1_1",1,"stubble",226,0,"FixedStudy",1,1877,"Include"
"SB2020_e1","SB2020_e1_1",1,"weekday",227,1,"FixedStudy",5,1691,"Include"
"SB2020_e1","SB2020_e1_1",1,"recital",228,0,"FixedStudy",1,6752,"Include"
"SB2020_e1","SB2020_e1_1",1,"calorie",229,1,"FixedStudy",6,1907,"Include"
"SB2020_e1","SB2020_e1_1",1,"subsoil",230,0,"FixedStudy",3,3120,"Include"
"SB2020_e1","SB2020_e1_1",1,"gateway",231,0,"FixedStudy",2,1637,"Include"
"SB2020_e1","SB2020_e1_1",1,"persian",232,0,"FixedStudy",4,4435,"Include"
"SB2020_e1","SB2020_e1_1",1,"madonna",233,0,"FixedStudy",3,1607,"Include"
"SB2020_e1","SB2020_e1_1",1,"sausage",234,1,"FixedStudy",6,1241,"Include"
"SB2020_e1","SB2020_e1_1",1,"dresser",235,1,"FixedStudy",6,772,"Include"
"SB2020_e1","SB2020_e1_1",1,"prophet",236,1,"FixedStudy",6,784,"Include"
"SB2020_e1","SB2020_e1_1",1,"utility",237,0,"FixedStudy",1,1493,"Include"
"SB2020_e1","SB2020_e1_1",1,"dessert",238,0,"FixedStudy",2,2922,"Include"
"SB2020_e1","SB2020_e1_1",1,"arsenal",239,0,"FixedStudy",2,1805,"Include"
"SB2020_e1","SB2020_e1_1",1,"surfeit",240,1,"FixedStudy",6,1373,"Include"
"SB2020_e1","SB2020_e1_1",1,"academy",241,0,"FixedStudy",2,3943,"Include"
"SB2020_e1","SB2020_e1_1",1,"diocese",242,1,"FixedStudy",6,1505,"Include"
"SB2020_e1","SB2020_e1_1",1,"emerald",243,0,"FixedStudy",2,1829,"Include"
"SB2020_e1","SB2020_e1_1",1,"arabian",244,1,"FixedStudy",6,899,"Include"
"SB2020_e1","SB2020_e1_1",1,"siamese",245,1,"FixedStudy",6,839,"Include"
"SB2020_e1","SB2020_e1_1",1,"fascist",246,1,"FixedStudy",6,652,"Include"
"SB2020_e1","SB2020_e1_1",1,"utopian",247,0,"FixedStudy",1,1895,"Include"
"SB2020_e1","SB2020_e1_1",1,"seaside",248,0,"FixedStudy",1,1301,"Include"
"SB2020_e1","SB2020_e1_1",1,"rebirth",249,0,"FixedStudy",2,4675,"Include"
"SB2020_e1","SB2020_e1_1",1,"edifice",250,1,"FixedStudy",6,1307,"Include"
"SB2020_e1","SB2020_e1_1",1,"esquire",251,0,"FixedStudy",4,3534,"Include"
"SB2020_e1","SB2020_e1_1",1,"hessian",252,0,"FixedStudy",5,1853,"Include"
"SB2020_e1","SB2020_e1_1",1,"incense",253,0,"FixedStudy",2,1733,"Include"
"SB2020_e1","SB2020_e1_1",1,"novelty",254,1,"FixedStudy",6,1463,"Include"
"SB2020_e1","SB2020_e1_1",1,"turbine",255,1,"FixedStudy",1,2154,"Include"
"SB2020_e1","SB2020_e1_1",1,"outward",256,0,"FixedStudy",1,1614,"Include"
"SB2020_e1","SB2020_e1_1",1,"thinker",257,1,"FixedStudy",6,1199,"Include"
"SB2020_e1","SB2020_e1_1",1,"comrade",258,1,"FixedStudy",6,832,"Include"
"SB2020_e1","SB2020_e1_1",1,"majesty",259,1,"FixedStudy",6,851,"Include"
"SB2020_e1","SB2020_e1_1",1,"lecture",260,0,"FixedStudy",2,2015,"Include"
"SB2020_e1","SB2020_e1_1",2,"catcher",1,1,"VariableStudy",1,8909,"Include"
"SB2020_e1","SB2020_e1_1",2,"prophet",2,1,"VariableStudy",1,2264,"Include"
"SB2020_e1","SB2020_e1_1",2,"holland",3,0,"VariableStudy",5,19435,"Include"
"SB2020_e1","SB2020_e1_1",2,"veteran",4,1,"VariableStudy",6,10603,"Include"
"SB2020_e1","SB2020_e1_1",2,"outgrow",5,0,"VariableStudy",3,4044,"Include"
"SB2020_e1","SB2020_e1_1",2,"workman",6,1,"VariableStudy",6,7615,"Include"
"SB2020_e1","SB2020_e1_1",2,"shuffle",7,1,"VariableStudy",3,2750,"Include"
"SB2020_e1","SB2020_e1_1",2,"spangle",8,1,"VariableStudy",6,1948,"Include"
"SB2020_e1","SB2020_e1_1",2,"siamese",9,1,"VariableStudy",3,2436,"Include"
"SB2020_e1","SB2020_e1_1",2,"panther",10,0,"VariableStudy",3,7930,"Include"
"SB2020_e1","SB2020_e1_1",2,"perjury",11,1,"VariableStudy",6,2010,"Include"
"SB2020_e1","SB2020_e1_1",2,"hostage",12,1,"VariableStudy",3,6345,"Include"
"SB2020_e1","SB2020_e1_1",2,"commune",13,1,"VariableStudy",6,6826,"Include"
"SB2020_e1","SB2020_e1_1",2,"quintet",14,1,"VariableStudy",6,1499,"Include"
"SB2020_e1","SB2020_e1_1",2,"fatigue",15,0,"VariableStudy",3,1348,"Include"
"SB2020_e1","SB2020_e1_1",2,"slumber",16,1,"VariableStudy",3,2154,"Include"
"SB2020_e1","SB2020_e1_1",2,"arousal",17,1,"VariableStudy",6,4928,"Include"
"SB2020_e1","SB2020_e1_1",2,"advisor",18,0,"VariableStudy",2,2916,"Include"
"SB2020_e1","SB2020_e1_1",2,"masseur",19,1,"VariableStudy",2,2194,"Include"
"SB2020_e1","SB2020_e1_1",2,"figment",20,1,"VariableStudy",4,4980,"Include"
"SB2020_e1","SB2020_e1_1",2,"tumbler",21,1,"VariableStudy",6,1245,"Include"
"SB2020_e1","SB2020_e1_1",2,"pleader",22,0,"VariableStudy",1,1584,"Include"
"SB2020_e1","SB2020_e1_1",2,"suction",23,0,"VariableStudy",2,4896,"Include"
"SB2020_e1","SB2020_e1_1",2,"jitters",24,0,"VariableStudy",3,3757,"Include"
"SB2020_e1","SB2020_e1_1",2,"thinker",25,1,"VariableStudy",5,2856,"Include"
"SB2020_e1","SB2020_e1_1",2,"magenta",26,1,"VariableStudy",1,1347,"Include"
"SB2020_e1","SB2020_e1_1",2,"canvass",27,1,"VariableStudy",6,1252,"Include"
"SB2020_e1","SB2020_e1_1",2,"capture",28,1,"VariableStudy",6,1072,"Include"
"SB2020_e1","SB2020_e1_1",2,"orderly",29,0,"VariableStudy",1,2682,"Include"
"SB2020_e1","SB2020_e1_1",2,"boulder",30,0,"VariableStudy",1,1018,"Include"
"SB2020_e1","SB2020_e1_1",2,"animism",31,1,"VariableStudy",1,851,"Include"
"SB2020_e1","SB2020_e1_1",2,"skipper",32,0,"VariableStudy",1,737,"Include"
"SB2020_e1","SB2020_e1_1",2,"lampoon",33,1,"VariableStudy",6,1078,"Include"
"SB2020_e1","SB2020_e1_1",2,"warhead",34,1,"VariableStudy",6,821,"Include"
"SB2020_e1","SB2020_e1_1",2,"cognate",35,0,"VariableStudy",2,1998,"Include"
"SB2020_e1","SB2020_e1_1",2,"cunning",36,0,"VariableStudy",3,3775,"Include"
"SB2020_e1","SB2020_e1_1",2,"kinetic",37,0,"VariableStudy",2,1373,"Include"
"SB2020_e1","SB2020_e1_1",2,"vinegar",38,1,"VariableStudy",6,1132,"Include"
"SB2020_e1","SB2020_e1_1",2,"rebirth",39,0,"VariableStudy",2,1078,"Include"
"SB2020_e1","SB2020_e1_1",2,"stadium",40,0,"VariableStudy",4,2796,"Include"
"SB2020_e1","SB2020_e1_1",2,"passive",41,0,"VariableStudy",2,1618,"Include"
"SB2020_e1","SB2020_e1_1",2,"adviser",42,0,"VariableStudy",1,1344,"Include"
"SB2020_e1","SB2020_e1_1",2,"fixture",43,1,"VariableStudy",6,1206,"Include"
"SB2020_e1","SB2020_e1_1",2,"hostler",44,1,"VariableStudy",6,2304,"Include"
"SB2020_e1","SB2020_e1_1",2,"cavalry",45,1,"VariableStudy",6,2683,"Include"
"SB2020_e1","SB2020_e1_1",2,"esquire",46,0,"VariableStudy",2,1343,"Include"
"SB2020_e1","SB2020_e1_1",2,"dresser",47,1,"VariableStudy",6,983,"Include"
"SB2020_e1","SB2020_e1_1",2,"hillman",48,0,"VariableStudy",2,851,"Include"
"SB2020_e1","SB2020_e1_1",2,"carcass",49,1,"VariableStudy",5,2165,"Include"
"SB2020_e1","SB2020_e1_1",2,"perfume",50,1,"VariableStudy",5,1469,"Include"
"SB2020_e1","SB2020_e1_1",2,"caliper",51,1,"VariableStudy",4,4231,"Include"
"SB2020_e1","SB2020_e1_1",2,"booster",52,0,"VariableStudy",3,1253,"Include"
"SB2020_e1","SB2020_e1_1",2,"impulse",53,0,"VariableStudy",4,1679,"Include"
"SB2020_e1","SB2020_e1_1",2,"matting",54,1,"VariableStudy",6,1169,"Include"
"SB2020_e1","SB2020_e1_1",2,"skinner",55,0,"VariableStudy",1,1457,"Include"
"SB2020_e1","SB2020_e1_1",2,"chutney",56,1,"VariableStudy",1,939,"Include"
"SB2020_e1","SB2020_e1_1",2,"planter",57,0,"VariableStudy",1,1512,"Include"
"SB2020_e1","SB2020_e1_1",2,"slipper",58,1,"VariableStudy",6,1025,"Include"
"SB2020_e1","SB2020_e1_1",2,"postmen",59,1,"VariableStudy",3,7630,"Include"
"SB2020_e1","SB2020_e1_1",2,"seminar",60,0,"VariableStudy",3,2884,"Include"
"SB2020_e1","SB2020_e1_1",2,"charmer",61,1,"VariableStudy",6,959,"Include"
"SB2020_e1","SB2020_e1_1",2,"pronoun",62,0,"VariableStudy",4,2075,"Include"
"SB2020_e1","SB2020_e1_1",2,"picking",63,0,"VariableStudy",3,1385,"Include"
"SB2020_e1","SB2020_e1_1",2,"dualism",64,1,"VariableStudy",6,971,"Include"
"SB2020_e1","SB2020_e1_1",2,"spectre",65,0,"VariableStudy",2,1583,"Include"
"SB2020_e1","SB2020_e1_1",2,"trigger",66,0,"VariableStudy",2,1126,"Include"
"SB2020_e1","SB2020_e1_1",2,"hessian",67,0,"VariableStudy",3,3713,"Include"
"SB2020_e1","SB2020_e1_1",2,"pioneer",68,0,"VariableStudy",3,1013,"Include"
"SB2020_e1","SB2020_e1_1",2,"shipper",69,0,"VariableStudy",3,646,"Include"
"SB2020_e1","SB2020_e1_1",2,"postman",70,1,"VariableStudy",5,2177,"Include"
"SB2020_e1","SB2020_e1_1",2,"sleeper",71,1,"VariableStudy",2,2832,"Include"
"SB2020_e1","SB2020_e1_1",2,"academy",72,0,"VariableStudy",3,1475,"Include"
"SB2020_e1","SB2020_e1_1",2,"steeple",73,1,"VariableStudy",6,1133,"Include"
"SB2020_e1","SB2020_e1_1",2,"stubble",74,0,"VariableStudy",6,2404,"Include"
"SB2020_e1","SB2020_e1_1",2,"lexicon",75,1,"VariableStudy",6,1109,"Include"
"SB2020_e1","SB2020_e1_1",2,"lucifer",76,1,"VariableStudy",6,1433,"Include"
"SB2020_e1","SB2020_e1_1",2,"impetus",77,1,"VariableStudy",5,1271,"Include"
"SB2020_e1","SB2020_e1_1",2,"leasing",78,1,"VariableStudy",6,1048,"Include"
"SB2020_e1","SB2020_e1_1",2,"cripple",79,0,"VariableStudy",1,2232,"Include"
"SB2020_e1","SB2020_e1_1",2,"anchovy",80,1,"VariableStudy",6,1127,"Include"
"SB2020_e1","SB2020_e1_1",2,"grizzly",81,0,"VariableStudy",1,1450,"Include"
"SB2020_e1","SB2020_e1_1",2,"rapture ",82,1,"VariableStudy",6,1440,"Include"
"SB2020_e1","SB2020_e1_1",2,"calorie",83,1,"VariableStudy",6,912,"Include"
"SB2020_e1","SB2020_e1_1",2,"emerald",84,0,"VariableStudy",5,1398,"Include"
"SB2020_e1","SB2020_e1_1",2,"diocese",85,1,"VariableStudy",6,1073,"Include"
"SB2020_e1","SB2020_e1_1",2,"wayside",86,0,"VariableStudy",1,1006,"Include"
"SB2020_e1","SB2020_e1_1",2,"kingpin",87,0,"VariableStudy",4,2333,"Include"
"SB2020_e1","SB2020_e1_1",2,"texture",88,0,"VariableStudy",3,3270,"Include"
"SB2020_e1","SB2020_e1_1",2,"potency",89,1,"VariableStudy",6,1205,"Include"
"SB2020_e1","SB2020_e1_1",2,"protein",90,1,"VariableStudy",6,1967,"Include"
"SB2020_e1","SB2020_e1_1",2,"malaise",91,0,"VariableStudy",1,1288,"Include"
"SB2020_e1","SB2020_e1_1",2,"sleight",92,0,"VariableStudy",1,1055,"Include"
"SB2020_e1","SB2020_e1_1",2,"liqueur",93,1,"VariableStudy",6,1006,"Include"
"SB2020_e1","SB2020_e1_1",2,"spiller",94,0,"VariableStudy",5,1643,"Include"
"SB2020_e1","SB2020_e1_1",2,"fascist",95,1,"VariableStudy",6,1048,"Include"
"SB2020_e1","SB2020_e1_1",2,"perusal",96,0,"VariableStudy",4,2315,"Include"
"SB2020_e1","SB2020_e1_1",2,"primate",97,1,"VariableStudy",6,1044,"Include"
"SB2020_e1","SB2020_e1_1",2,"diagram",98,1,"VariableStudy",6,1122,"Include"
"SB2020_e1","SB2020_e1_1",2,"bigotry",99,1,"VariableStudy",6,732,"Include"
"SB2020_e1","SB2020_e1_1",2,"rivalry",100,1,"VariableStudy",6,720,"Include"
"SB2020_e1","SB2020_e1_1",2,"statute",101,1,"VariableStudy",6,755,"Include"
"SB2020_e1","SB2020_e1_1",2,"overlay",102,0,"VariableStudy",1,1080,"Include"
"SB2020_e1","SB2020_e1_1",2,"crimean",103,0,"VariableStudy",3,3800,"Include"
"SB2020_e1","SB2020_e1_1",2,"bastion",104,0,"VariableStudy",3,1758,"Include"
"SB2020_e1","SB2020_e1_1",2,"viceroy",105,1,"VariableStudy",6,965,"Include"
"SB2020_e1","SB2020_e1_1",2,"varnish",106,1,"VariableStudy",1,8602,"Include"
"SB2020_e1","SB2020_e1_1",2,"foliage",107,1,"VariableStudy",6,977,"Include"
"SB2020_e1","SB2020_e1_1",2,"hacksaw",108,1,"VariableStudy",3,7659,"Include"
"SB2020_e1","SB2020_e1_1",2,"mastiff",109,1,"VariableStudy",6,1239,"Include"
"SB2020_e1","SB2020_e1_1",2,"suspect",110,0,"VariableStudy",2,3690,"Include"
"SB2020_e1","SB2020_e1_1",2,"servant",111,0,"VariableStudy",3,1079,"Include"
"SB2020_e1","SB2020_e1_1",2,"muezzin",112,1,"VariableStudy",6,1330,"Include"
"SB2020_e1","SB2020_e1_1",2,"inverse",113,1,"VariableStudy",6,1457,"Include"
"SB2020_e1","SB2020_e1_1",2,"quantum",114,0,"VariableStudy",1,1517,"Include"
"SB2020_e1","SB2020_e1_1",2,"cushion",115,0,"VariableStudy",5,1288,"Include"
"SB2020_e1","SB2020_e1_1",2,"cricket",116,0,"VariableStudy",2,1991,"Include"
"SB2020_e1","SB2020_e1_1",2,"madonna",117,0,"VariableStudy",3,1421,"Include"
"SB2020_e1","SB2020_e1_1",2,"subsoil",118,0,"VariableStudy",3,3174,"Include"
"SB2020_e1","SB2020_e1_1",2,"edifice",119,1,"VariableStudy",6,1108,"Include"
"SB2020_e1","SB2020_e1_1",2,"dictate",120,0,"VariableStudy",3,1499,"Include"
"SB2020_e1","SB2020_e1_1",2,"actress",121,0,"VariableStudy",2,1343,"Include"
"SB2020_e1","SB2020_e1_1",2,"sulphur",122,1,"VariableStudy",2,1127,"Include"
"SB2020_e1","SB2020_e1_1",2,"incense",123,0,"VariableStudy",3,1613,"Include"
"SB2020_e1","SB2020_e1_1",2,"persian",124,0,"VariableStudy",3,790,"Include"
"SB2020_e1","SB2020_e1_1",2,"chimney",125,0,"VariableStudy",2,989,"Include"
"SB2020_e1","SB2020_e1_1",2,"synonym",126,1,"VariableStudy",4,3397,"Include"
"SB2020_e1","SB2020_e1_1",2,"arabian",127,1,"VariableStudy",6,1180,"Include"
"SB2020_e1","SB2020_e1_1",2,"harness",128,0,"VariableStudy",4,1518,"Include"
"SB2020_e1","SB2020_e1_1",2,"pitfall",129,0,"VariableStudy",4,1525,"Include"
"SB2020_e1","SB2020_e1_1",2,"vanilla",130,0,"VariableStudy",4,1368,"Include"
"SB2020_e1","SB2020_e1_1",2,"urinary",131,1,"VariableStudy",4,1128,"Include"
"SB2020_e1","SB2020_e1_1",2,"stardom",132,1,"VariableStudy",2,1734,"Include"
"SB2020_e1","SB2020_e1_1",2,"pastime",133,0,"VariableStudy",2,954,"Include"
"SB2020_e1","SB2020_e1_1",2,"burglar",134,1,"VariableStudy",2,713,"Include"
"SB2020_e1","SB2020_e1_1",2,"polemic",135,1,"VariableStudy",6,1236,"Include"
"SB2020_e1","SB2020_e1_1",2,"ruffian",136,1,"VariableStudy",6,1386,"Include"
"SB2020_e1","SB2020_e1_1",2,"whiskey",137,1,"VariableStudy",5,2406,"Include"
"SB2020_e1","SB2020_e1_1",2,"cabinet",138,0,"VariableStudy",4,1451,"Include"
"SB2020_e1","SB2020_e1_1",2,"painter",139,1,"VariableStudy",6,1259,"Include"
"SB2020_e1","SB2020_e1_1",2,"phoenix",140,1,"VariableStudy",6,821,"Include"
"SB2020_e1","SB2020_e1_1",2,"glimmer",141,1,"VariableStudy",6,1259,"Include"
"SB2020_e1","SB2020_e1_1",2,"alumnae",142,1,"VariableStudy",1,1859,"Include"
"SB2020_e1","SB2020_e1_1",2,"digital",143,1,"VariableStudy",6,959,"Include"
"SB2020_e1","SB2020_e1_1",2,"hairpin",144,0,"VariableStudy",1,2147,"Include"
"SB2020_e1","SB2020_e1_1",2,"typhoid",145,1,"VariableStudy",6,1156,"Include"
"SB2020_e1","SB2020_e1_1",2,"cleaner",146,0,"VariableStudy",3,2382,"Include"
"SB2020_e1","SB2020_e1_1",2,"turbine",147,1,"VariableStudy",3,1950,"Include"
"SB2020_e1","SB2020_e1_1",2,"consort",148,0,"VariableStudy",2,1331,"Include"
"SB2020_e1","SB2020_e1_1",2,"paragon",149,1,"VariableStudy",6,1181,"Include"
"SB2020_e1","SB2020_e1_1",2,"thermos",150,0,"VariableStudy",1,1817,"Include"
"SB2020_e1","SB2020_e1_1",2,"parapet",151,1,"VariableStudy",6,1187,"Include"
"SB2020_e1","SB2020_e1_1",2,"gateway",152,0,"VariableStudy",1,1247,"Include"
"SB2020_e1","SB2020_e1_1",2,"airport",153,0,"VariableStudy",3,2477,"Include"
"SB2020_e1","SB2020_e1_1",2,"epitome",154,1,"VariableStudy",2,1541,"Include"
"SB2020_e1","SB2020_e1_1",2,"sternum",155,0,"VariableStudy",4,2357,"Include"
"SB2020_e1","SB2020_e1_1",2,"glamour",156,1,"VariableStudy",6,1325,"Include"
"SB2020_e1","SB2020_e1_1",2,"dreamer",157,1,"VariableStudy",3,1620,"Include"
"SB2020_e1","SB2020_e1_1",2,"penance",158,0,"VariableStudy",1,2364,"Include"
"SB2020_e1","SB2020_e1_1",2,"trustee",159,0,"VariableStudy",2,1078,"Include"
"SB2020_e1","SB2020_e1_1",2,"tobacco",160,0,"VariableStudy",3,2460,"Include"
"SB2020_e1","SB2020_e1_1",2,"sausage",161,1,"VariableStudy",5,1998,"Include"
"SB2020_e1","SB2020_e1_1",2,"insulin",162,1,"VariableStudy",6,1073,"Include"
"SB2020_e1","SB2020_e1_1",2,"monsoon",163,0,"VariableStudy",3,3204,"Include"
"SB2020_e1","SB2020_e1_1",2,"compost",164,1,"VariableStudy",6,1066,"Include"
"SB2020_e1","SB2020_e1_1",2,"pyramid",165,0,"VariableStudy",5,1487,"Include"
"SB2020_e1","SB2020_e1_1",2,"abandon",166,0,"VariableStudy",2,1703,"Include"
"SB2020_e1","SB2020_e1_1",2,"pottery",167,1,"VariableStudy",5,1643,"Include"
"SB2020_e1","SB2020_e1_1",2,"discord",168,0,"VariableStudy",1,1199,"Include"
"SB2020_e1","SB2020_e1_1",2,"granite",169,0,"VariableStudy",1,894,"Include"
"SB2020_e1","SB2020_e1_1",2,"voyager",170,0,"VariableStudy",1,1014,"Include"
"SB2020_e1","SB2020_e1_1",2,"analyst",171,0,"VariableStudy",1,1500,"Include"
"SB2020_e1","SB2020_e1_1",2,"comrade",172,1,"VariableStudy",5,1891,"Include"
"SB2020_e1","SB2020_e1_1",2,"holiday",173,1,"VariableStudy",4,1795,"Include"
"SB2020_e1","SB2020_e1_1",2,"novelty",174,1,"VariableStudy",2,1614,"Include"
"SB2020_e1","SB2020_e1_1",2,"rooster",175,1,"VariableStudy",6,1134,"Include"
"SB2020_e1","SB2020_e1_1",2,"utopian",176,0,"VariableStudy",3,1681,"Include"
"SB2020_e1","SB2020_e1_1",2,"floater",177,1,"VariableStudy",6,2088,"Include"
"SB2020_e1","SB2020_e1_1",2,"destiny",178,1,"VariableStudy",6,2796,"Include"
"SB2020_e1","SB2020_e1_1",2,"asphalt",179,1,"VariableStudy",6,1223,"Include"
"SB2020_e1","SB2020_e1_1",2,"stopper",180,1,"VariableStudy",5,825,"Include"
"SB2020_e1","SB2020_e1_1",2,"fuchsia",181,0,"VariableStudy",3,2113,"Include"
"SB2020_e1","SB2020_e1_1",2,"whisper",182,0,"VariableStudy",3,1481,"Include"
"SB2020_e1","SB2020_e1_1",2,"fighter",183,0,"VariableStudy",3,2153,"Include"
"SB2020_e1","SB2020_e1_1",2,"ticking",184,0,"VariableStudy",2,706,"Include"
"SB2020_e1","SB2020_e1_1",2,"vaccine",185,0,"VariableStudy",2,790,"Include"
"SB2020_e1","SB2020_e1_1",2,"nurture",186,0,"VariableStudy",2,755,"Include"
"SB2020_e1","SB2020_e1_1",2,"footman",187,1,"VariableStudy",3,1511,"Include"
"SB2020_e1","SB2020_e1_1",2,"overlap",188,1,"VariableStudy",3,1199,"Include"
"SB2020_e1","SB2020_e1_1",2,"drizzle",189,0,"VariableStudy",3,921,"Include"
"SB2020_e1","SB2020_e1_1",2,"quibble",190,0,"VariableStudy",2,2671,"Include"
"SB2020_e1","SB2020_e1_1",2,"bedtime",191,0,"VariableStudy",2,2419,"Include"
"SB2020_e1","SB2020_e1_1",2,"witness",192,1,"VariableStudy",6,1164,"Include"
"SB2020_e1","SB2020_e1_1",2,"devisee",193,0,"VariableStudy",4,1722,"Include"
"SB2020_e1","SB2020_e1_1",2,"squeeze",194,1,"VariableStudy",6,1349,"Include"
"SB2020_e1","SB2020_e1_1",2,"scuffle",195,0,"VariableStudy",1,1607,"Include"
"SB2020_e1","SB2020_e1_1",2,"pasture",196,0,"VariableStudy",1,1114,"Include"
"SB2020_e1","SB2020_e1_1",2,"mansion",197,0,"VariableStudy",1,1781,"Include"
"SB2020_e1","SB2020_e1_1",2,"antique",198,1,"VariableStudy",6,1043,"Include"
"SB2020_e1","SB2020_e1_1",2,"impiety",199,0,"VariableStudy",3,1427,"Include"
"SB2020_e1","SB2020_e1_1",2,"brigade",200,0,"VariableStudy",2,1158,"Include"
"SB2020_e1","SB2020_e1_1",2,"recital",201,0,"VariableStudy",5,2412,"Include"
"SB2020_e1","SB2020_e1_1",2,"seaside",202,0,"VariableStudy",3,1362,"Include"
"SB2020_e1","SB2020_e1_1",2,"novelty",203,0,"VariableStudy",1,1338,"Include"
"SB2020_e1","SB2020_e1_1",2,"kindred",204,1,"VariableStudy",6,1302,"Include"
"SB2020_e1","SB2020_e1_1",2,"outline",205,1,"VariableStudy",1,1986,"Include"
"SB2020_e1","SB2020_e1_1",2,"anatomy",206,1,"VariableStudy",6,1254,"Include"
"SB2020_e1","SB2020_e1_1",2,"backlog",207,0,"VariableStudy",1,1812,"Include"
"SB2020_e1","SB2020_e1_1",2,"hatchet",208,1,"VariableStudy",6,954,"Include"
"SB2020_e1","SB2020_e1_1",2,"arbiter",209,1,"VariableStudy",6,1494,"Include"
"SB2020_e1","SB2020_e1_1",2,"pilgrim",210,1,"VariableStudy",6,1668,"Include"
"SB2020_e1","SB2020_e1_1",2,"discard",211,1,"VariableStudy",6,635,"Include"
"SB2020_e1","SB2020_e1_1",2,"anguish",212,0,"VariableStudy",3,1986,"Include"
"SB2020_e1","SB2020_e1_1",2,"cruelty",213,0,"VariableStudy",3,1062,"Include"
"SB2020_e1","SB2020_e1_1",2,"patriot",214,1,"VariableStudy",6,1163,"Include"
"SB2020_e1","SB2020_e1_1",2,"tableau",215,1,"VariableStudy",6,888,"Include"
"SB2020_e1","SB2020_e1_1",2,"theorem",216,0,"VariableStudy",3,1200,"Include"
"SB2020_e1","SB2020_e1_1",2,"premise",217,0,"VariableStudy",3,1355,"Include"
"SB2020_e1","SB2020_e1_1",2,"handler",218,1,"VariableStudy",3,880,"Include"
"SB2020_e1","SB2020_e1_1",2,"arsenal",219,0,"VariableStudy",3,1475,"Include"
"SB2020_e1","SB2020_e1_1",2,"utility",220,0,"VariableStudy",1,1252,"Include"
"SB2020_e1","SB2020_e1_1",2,"crudity",221,0,"VariableStudy",5,1595,"Include"
"SB2020_e1","SB2020_e1_1",2,"aspirin",222,1,"VariableStudy",6,1457,"Include"
"SB2020_e1","SB2020_e1_1",2,"reverie",223,1,"VariableStudy",6,1108,"Include"
"SB2020_e1","SB2020_e1_1",2,"forfeit",224,0,"VariableStudy",1,1373,"Include"
"SB2020_e1","SB2020_e1_1",2,"trickle",225,1,"VariableStudy",2,898,"Include"
"SB2020_e1","SB2020_e1_1",2,"goddess",226,0,"VariableStudy",2,965,"Include"
"SB2020_e1","SB2020_e1_1",2,"anomaly",227,1,"VariableStudy",2,1517,"Include"
"SB2020_e1","SB2020_e1_1",2,"salient",228,1,"VariableStudy",5,1397,"Include"
"SB2020_e1","SB2020_e1_1",2,"sandman",229,0,"VariableStudy",1,1270,"Include"
"SB2020_e1","SB2020_e1_1",2,"vintage",230,0,"VariableStudy",2,2184,"Include"
"SB2020_e1","SB2020_e1_1",2,"outward",231,0,"VariableStudy",3,1926,"Include"
"SB2020_e1","SB2020_e1_1",2,"foreman",232,0,"VariableStudy",3,797,"Include"
"SB2020_e1","SB2020_e1_1",2,"surgeon",233,1,"VariableStudy",6,1210,"Include"
"SB2020_e1","SB2020_e1_1",2,"showman",234,1,"VariableStudy",5,1181,"Include"
"SB2020_e1","SB2020_e1_1",2,"caution",235,0,"VariableStudy",4,1721,"Include"
"SB2020_e1","SB2020_e1_1",2,"curtain",236,0,"VariableStudy",3,1710,"Include"
"SB2020_e1","SB2020_e1_1",2,"rotunda",237,0,"VariableStudy",1,1517,"Include"
"SB2020_e1","SB2020_e1_1",2,"printer",238,0,"VariableStudy",2,688,"Include"
"SB2020_e1","SB2020_e1_1",2,"lantern",239,0,"VariableStudy",2,563,"Include"
"SB2020_e1","SB2020_e1_1",2,"buffoon",240,1,"VariableStudy",6,977,"Include"
"SB2020_e1","SB2020_e1_1",2,"trimmer",241,0,"VariableStudy",5,1534,"Include"
"SB2020_e1","SB2020_e1_1",2,"residue",242,0,"VariableStudy",2,2473,"Include"
"SB2020_e1","SB2020_e1_1",2,"pickaxe",243,0,"VariableStudy",2,923,"Include"
"SB2020_e1","SB2020_e1_1",2,"ocarina",244,0,"VariableStudy",2,1008,"Include"
"SB2020_e1","SB2020_e1_1",2,"platoon",245,0,"VariableStudy",2,534,"Include"
"SB2020_e1","SB2020_e1_1",2,"outrage",246,0,"VariableStudy",2,564,"Include"
"SB2020_e1","SB2020_e1_1",2,"consent",247,1,"VariableStudy",2,785,"Include"
"SB2020_e1","SB2020_e1_1",2,"regency",248,1,"VariableStudy",6,1464,"Include"
"SB2020_e1","SB2020_e1_1",2,"tenancy",249,1,"VariableStudy",2,1092,"Include"
"SB2020_e1","SB2020_e1_1",2,"descent",250,1,"VariableStudy",3,1139,"Include"
"SB2020_e1","SB2020_e1_1",2,"lecture",251,0,"VariableStudy",3,1746,"Include"
"SB2020_e1","SB2020_e1_1",2,"monarch",252,1,"VariableStudy",1,1463,"Include"
"SB2020_e1","SB2020_e1_1",2,"haddock",253,1,"VariableStudy",2,1673,"Include"
"SB2020_e1","SB2020_e1_1",2,"weekday",254,1,"VariableStudy",5,1469,"Include"
"SB2020_e1","SB2020_e1_1",2,"settler",255,0,"VariableStudy",1,1301,"Include"
"SB2020_e1","SB2020_e1_1",2,"dessert",256,0,"VariableStudy",1,983,"Include"
"SB2020_e1","SB2020_e1_1",2,"surfeit",257,1,"VariableStudy",2,1091,"Include"
"SB2020_e1","SB2020_e1_1",2,"defence",258,0,"VariableStudy",5,1313,"Include"
"SB2020_e1","SB2020_e1_1",2,"shooter",259,0,"VariableStudy",3,2142,"Include"
"SB2020_e1","SB2020_e1_1",2,"majesty",260,1,"VariableStudy",2,868,"Include"
"SB2020_e1","SB2020_e1_10",1,"slumber",1,1,"VariableStudy",6,3859,"Include"
"SB2020_e1","SB2020_e1_10",1,"cruelty",2,0,"VariableStudy",2,2272,"Include"
"SB2020_e1","SB2020_e1_10",1,"jitters",3,0,"VariableStudy",3,2093,"Include"
"SB2020_e1","SB2020_e1_10",1,"charmer",4,1,"VariableStudy",5,2526,"Include"
"SB2020_e1","SB2020_e1_10",1,"academy",5,0,"VariableStudy",4,3345,"Include"
"SB2020_e1","SB2020_e1_10",1,"anatomy",6,1,"VariableStudy",2,2575,"Include"
"SB2020_e1","SB2020_e1_10",1,"picking",7,0,"VariableStudy",1,1660,"Include"
"SB2020_e1","SB2020_e1_10",1,"masseur",8,1,"VariableStudy",5,3032,"Include"
"SB2020_e1","SB2020_e1_10",1,"madonna",9,0,"VariableStudy",1,2242,"Include"
"SB2020_e1","SB2020_e1_10",1,"cushion",10,0,"VariableStudy",4,1876,"Include"
"SB2020_e1","SB2020_e1_10",1,"hillman",11,0,"VariableStudy",3,1597,"Include"
"SB2020_e1","SB2020_e1_10",1,"viceroy",12,1,"VariableStudy",5,1998,"Include"
"SB2020_e1","SB2020_e1_10",1,"subsoil",13,0,"VariableStudy",3,3306,"Include"
"SB2020_e1","SB2020_e1_10",1,"perusal",14,0,"VariableStudy",4,2723,"Include"
"SB2020_e1","SB2020_e1_10",1,"impiety",15,0,"VariableStudy",5,2123,"Include"
"SB2020_e1","SB2020_e1_10",1,"novelty",16,0,"VariableStudy",1,2324,"Include"
"SB2020_e1","SB2020_e1_10",1,"regency",17,1,"VariableStudy",5,2500,"Include"
"SB2020_e1","SB2020_e1_10",1,"varnish",18,1,"VariableStudy",6,1817,"Include"
"SB2020_e1","SB2020_e1_10",1,"discord",19,0,"VariableStudy",2,1771,"Include"
"SB2020_e1","SB2020_e1_10",1,"trustee",20,0,"VariableStudy",2,2142,"Include"
"SB2020_e1","SB2020_e1_10",1,"postmen",21,1,"VariableStudy",4,1592,"Include"
"SB2020_e1","SB2020_e1_10",1,"mastiff",22,1,"VariableStudy",6,1655,"Include"
"SB2020_e1","SB2020_e1_10",1,"cabinet",23,0,"VariableStudy",4,2081,"Include"
"SB2020_e1","SB2020_e1_10",1,"arabian",24,1,"VariableStudy",6,1321,"Include"
"SB2020_e1","SB2020_e1_10",1,"outward",25,0,"VariableStudy",3,2099,"Include"
"SB2020_e1","SB2020_e1_10",1,"fixture",26,1,"VariableStudy",6,1555,"Include"
"SB2020_e1","SB2020_e1_10",1,"digital",27,1,"VariableStudy",6,979,"Include"
"SB2020_e1","SB2020_e1_10",1,"tobacco",28,0,"VariableStudy",2,2063,"Include"
"SB2020_e1","SB2020_e1_10",1,"planter",29,0,"VariableStudy",2,2154,"Include"
"SB2020_e1","SB2020_e1_10",1,"surgeon",30,1,"VariableStudy",5,2089,"Include"
"SB2020_e1","SB2020_e1_10",1,"rooster",31,1,"VariableStudy",6,918,"Include"
"SB2020_e1","SB2020_e1_10",1,"calorie",32,1,"VariableStudy",1,1469,"Include"
"SB2020_e1","SB2020_e1_10",1,"matting",33,1,"VariableStudy",6,1042,"Include"
"SB2020_e1","SB2020_e1_10",1,"emerald",34,0,"VariableStudy",2,1541,"Include"
"SB2020_e1","SB2020_e1_10",1,"trigger",35,0,"VariableStudy",3,1975,"Include"
"SB2020_e1","SB2020_e1_10",1,"servant",36,0,"VariableStudy",3,1250,"Include"
"SB2020_e1","SB2020_e1_10",1,"patriot",37,1,"VariableStudy",5,1871,"Include"
"SB2020_e1","SB2020_e1_10",1,"bedtime",38,0,"VariableStudy",3,1630,"Include"
"SB2020_e1","SB2020_e1_10",1,"whisper",39,0,"VariableStudy",2,1296,"Include"
"SB2020_e1","SB2020_e1_10",1,"esquire",40,0,"VariableStudy",2,1235,"Include"
"SB2020_e1","SB2020_e1_10",1,"residue",41,0,"VariableStudy",3,1420,"Include"
"SB2020_e1","SB2020_e1_10",1,"asphalt",42,1,"VariableStudy",6,1396,"Include"
"SB2020_e1","SB2020_e1_10",1,"rotunda",43,0,"VariableStudy",2,1650,"Include"
"SB2020_e1","SB2020_e1_10",1,"insulin",44,1,"VariableStudy",3,2291,"Include"
"SB2020_e1","SB2020_e1_10",1,"airport",45,0,"VariableStudy",2,1526,"Include"
"SB2020_e1","SB2020_e1_10",1,"capture",46,1,"VariableStudy",5,1792,"Include"
"SB2020_e1","SB2020_e1_10",1,"liqueur",47,1,"VariableStudy",4,1694,"Include"
"SB2020_e1","SB2020_e1_10",1,"reverie",48,1,"VariableStudy",3,1414,"Include"
"SB2020_e1","SB2020_e1_10",1,"chutney",49,1,"VariableStudy",5,1426,"Include"
"SB2020_e1","SB2020_e1_10",1,"painter",50,1,"VariableStudy",5,2442,"Include"
"SB2020_e1","SB2020_e1_10",1,"floater",51,1,"VariableStudy",6,933,"Include"
"SB2020_e1","SB2020_e1_10",1,"trickle",52,1,"VariableStudy",6,868,"Include"
"SB2020_e1","SB2020_e1_10",1,"platoon",53,0,"VariableStudy",3,1588,"Include"
"SB2020_e1","SB2020_e1_10",1,"catcher",54,1,"VariableStudy",3,1512,"Include"
"SB2020_e1","SB2020_e1_10",1,"hacksaw",55,1,"VariableStudy",4,1444,"Include"
"SB2020_e1","SB2020_e1_10",1,"impulse",56,0,"VariableStudy",3,1784,"Include"
"SB2020_e1","SB2020_e1_10",1,"rapture ",57,1,"VariableStudy",6,1141,"Include"
"SB2020_e1","SB2020_e1_10",1,"siamese",58,1,"VariableStudy",3,1442,"Include"
"SB2020_e1","SB2020_e1_10",1,"carcass",59,1,"VariableStudy",5,1423,"Include"
"SB2020_e1","SB2020_e1_10",1,"commune",60,1,"VariableStudy",6,969,"Include"
"SB2020_e1","SB2020_e1_10",1,"vinegar",61,1,"VariableStudy",3,2000,"Include"
"SB2020_e1","SB2020_e1_10",1,"sternum",62,0,"VariableStudy",3,1814,"Include"
"SB2020_e1","SB2020_e1_10",1,"hostage",63,1,"VariableStudy",3,1528,"Include"
"SB2020_e1","SB2020_e1_10",1,"steeple",64,1,"VariableStudy",5,1763,"Include"
"SB2020_e1","SB2020_e1_10",1,"utility",65,0,"VariableStudy",2,1736,"Include"
"SB2020_e1","SB2020_e1_10",1,"outgrow",66,0,"VariableStudy",3,1523,"Include"
"SB2020_e1","SB2020_e1_10",1,"stubble",67,0,"VariableStudy",3,1535,"Include"
"SB2020_e1","SB2020_e1_10",1,"diagram",68,1,"VariableStudy",6,1584,"Include"
"SB2020_e1","SB2020_e1_10",1,"quantum",69,0,"VariableStudy",2,2010,"Include"
"SB2020_e1","SB2020_e1_10",1,"overlay",70,0,"VariableStudy",1,1306,"Include"
"SB2020_e1","SB2020_e1_10",1,"pitfall",71,0,"VariableStudy",3,1483,"Include"
"SB2020_e1","SB2020_e1_10",1,"caution",72,0,"VariableStudy",3,1584,"Include"
"SB2020_e1","SB2020_e1_10",1,"crudity",73,0,"VariableStudy",6,1427,"Include"
"SB2020_e1","SB2020_e1_10",1,"anomaly",74,1,"VariableStudy",3,1465,"Include"
"SB2020_e1","SB2020_e1_10",1,"novelty",75,1,"VariableStudy",5,1393,"Include"
"SB2020_e1","SB2020_e1_10",1,"fuchsia",76,0,"VariableStudy",1,1733,"Include"
"SB2020_e1","SB2020_e1_10",1,"wayside",77,0,"VariableStudy",3,1318,"Include"
"SB2020_e1","SB2020_e1_10",1,"impetus",78,1,"VariableStudy",5,1186,"Include"
"SB2020_e1","SB2020_e1_10",1,"sulphur",79,1,"VariableStudy",6,1248,"Include"
"SB2020_e1","SB2020_e1_10",1,"perfume",80,1,"VariableStudy",3,1248,"Include"
"SB2020_e1","SB2020_e1_10",1,"booster",81,0,"VariableStudy",2,1259,"Include"
"SB2020_e1","SB2020_e1_10",1,"skipper",82,0,"VariableStudy",3,1119,"Include"
"SB2020_e1","SB2020_e1_10",1,"descent",83,1,"VariableStudy",3,1597,"Include"
"SB2020_e1","SB2020_e1_10",1,"skinner",84,0,"VariableStudy",2,1158,"Include"
"SB2020_e1","SB2020_e1_10",1,"chimney",85,0,"VariableStudy",3,1411,"Include"
"SB2020_e1","SB2020_e1_10",1,"workman",86,1,"VariableStudy",4,1930,"Include"
"SB2020_e1","SB2020_e1_10",1,"lucifer",87,1,"VariableStudy",6,942,"Include"
"SB2020_e1","SB2020_e1_10",1,"quibble",88,0,"VariableStudy",1,1370,"Include"
"SB2020_e1","SB2020_e1_10",1,"trimmer",89,0,"VariableStudy",3,1470,"Include"
"SB2020_e1","SB2020_e1_10",1,"weekday",90,1,"VariableStudy",6,1115,"Include"
"SB2020_e1","SB2020_e1_10",1,"arsenal",91,0,"VariableStudy",3,1363,"Include"
"SB2020_e1","SB2020_e1_10",1,"polemic",92,1,"VariableStudy",6,871,"Include"
"SB2020_e1","SB2020_e1_10",1,"rivalry",93,1,"VariableStudy",6,854,"Include"
"SB2020_e1","SB2020_e1_10",1,"hessian",94,0,"VariableStudy",2,1617,"Include"
"SB2020_e1","SB2020_e1_10",1,"pastime",95,0,"VariableStudy",4,2078,"Include"
"SB2020_e1","SB2020_e1_10",1,"stadium",96,0,"VariableStudy",4,1875,"Include"
"SB2020_e1","SB2020_e1_10",1,"slipper",97,1,"VariableStudy",6,865,"Include"
"SB2020_e1","SB2020_e1_10",1,"pilgrim",98,1,"VariableStudy",6,682,"Include"
"SB2020_e1","SB2020_e1_10",1,"forfeit",99,0,"VariableStudy",2,1399,"Include"
"SB2020_e1","SB2020_e1_10",1,"grizzly",100,0,"VariableStudy",3,1402,"Include"
"SB2020_e1","SB2020_e1_10",1,"perjury",101,1,"VariableStudy",3,1463,"Include"
"SB2020_e1","SB2020_e1_10",1,"glamour",102,1,"VariableStudy",4,2372,"Include"
"SB2020_e1","SB2020_e1_10",1,"tenancy",103,1,"VariableStudy",3,1481,"Include"
"SB2020_e1","SB2020_e1_10",1,"bastion",104,0,"VariableStudy",2,1330,"Include"
"SB2020_e1","SB2020_e1_10",1,"utopian",105,0,"VariableStudy",3,936,"Include"
"SB2020_e1","SB2020_e1_10",1,"thermos",106,0,"VariableStudy",3,805,"Include"
"SB2020_e1","SB2020_e1_10",1,"backlog",107,0,"VariableStudy",5,1520,"Include"
"SB2020_e1","SB2020_e1_10",1,"vintage",108,0,"VariableStudy",3,1179,"Include"
"SB2020_e1","SB2020_e1_10",1,"discard",109,1,"VariableStudy",6,1219,"Include"
"SB2020_e1","SB2020_e1_10",1,"orderly",110,0,"VariableStudy",2,1157,"Include"
"SB2020_e1","SB2020_e1_10",1,"aspirin",111,1,"VariableStudy",3,1267,"Include"
"SB2020_e1","SB2020_e1_10",1,"typhoid",112,1,"VariableStudy",6,881,"Include"
"SB2020_e1","SB2020_e1_10",1,"turbine",113,1,"VariableStudy",6,1060,"Include"
"SB2020_e1","SB2020_e1_10",1,"veteran",114,1,"VariableStudy",6,737,"Include"
"SB2020_e1","SB2020_e1_10",1,"inverse",115,1,"VariableStudy",6,666,"Include"
"SB2020_e1","SB2020_e1_10",1,"dresser",116,1,"VariableStudy",6,627,"Include"
"SB2020_e1","SB2020_e1_10",1,"dreamer",117,1,"VariableStudy",2,1604,"Include"
"SB2020_e1","SB2020_e1_10",1,"majesty",118,1,"VariableStudy",6,791,"Include"
"SB2020_e1","SB2020_e1_10",1,"haddock",119,1,"VariableStudy",6,841,"Include"
"SB2020_e1","SB2020_e1_10",1,"arousal",120,1,"VariableStudy",6,744,"Include"
"SB2020_e1","SB2020_e1_10",1,"panther",121,0,"VariableStudy",2,1562,"Include"
"SB2020_e1","SB2020_e1_10",1,"lantern",122,0,"VariableStudy",3,1355,"Include"
"SB2020_e1","SB2020_e1_10",1,"monsoon",123,0,"VariableStudy",3,1331,"Include"
"SB2020_e1","SB2020_e1_10",1,"defence",124,0,"VariableStudy",3,1272,"Include"
"SB2020_e1","SB2020_e1_10",1,"analyst",125,0,"VariableStudy",4,2157,"Include"
"SB2020_e1","SB2020_e1_10",1,"ruffian",126,1,"VariableStudy",6,1133,"Include"
"SB2020_e1","SB2020_e1_10",1,"texture",127,0,"VariableStudy",2,1714,"Include"
"SB2020_e1","SB2020_e1_10",1,"cleaner",128,0,"VariableStudy",2,1734,"Include"
"SB2020_e1","SB2020_e1_10",1,"caliper",129,1,"VariableStudy",6,848,"Include"
"SB2020_e1","SB2020_e1_10",1,"whiskey",130,1,"VariableStudy",6,820,"Include"
"SB2020_e1","SB2020_e1_10",1,"devisee",131,0,"VariableStudy",2,1642,"Include"
"SB2020_e1","SB2020_e1_10",1,"pyramid",132,0,"VariableStudy",2,1501,"Include"
"SB2020_e1","SB2020_e1_10",1,"lexicon",133,1,"VariableStudy",6,917,"Include"
"SB2020_e1","SB2020_e1_10",1,"primate",134,1,"VariableStudy",6,886,"Include"
"SB2020_e1","SB2020_e1_10",1,"surfeit",135,1,"VariableStudy",1,1253,"Include"
"SB2020_e1","SB2020_e1_10",1,"mansion",136,0,"VariableStudy",2,1364,"Include"
"SB2020_e1","SB2020_e1_10",1,"edifice",137,1,"VariableStudy",6,804,"Include"
"SB2020_e1","SB2020_e1_10",1,"suspect",138,0,"VariableStudy",5,1942,"Include"
"SB2020_e1","SB2020_e1_10",1,"seaside",139,0,"VariableStudy",2,1144,"Include"
"SB2020_e1","SB2020_e1_10",1,"canvass",140,1,"VariableStudy",6,760,"Include"
"SB2020_e1","SB2020_e1_10",1,"theorem",141,0,"VariableStudy",1,1156,"Include"
"SB2020_e1","SB2020_e1_10",1,"gateway",142,0,"VariableStudy",3,1676,"Include"
"SB2020_e1","SB2020_e1_10",1,"hostler",143,1,"VariableStudy",6,778,"Include"
"SB2020_e1","SB2020_e1_10",1,"cripple",144,0,"VariableStudy",2,1886,"Include"
"SB2020_e1","SB2020_e1_10",1,"synonym",145,1,"VariableStudy",6,804,"Include"
"SB2020_e1","SB2020_e1_10",1,"statute",146,1,"VariableStudy",6,741,"Include"
"SB2020_e1","SB2020_e1_10",1,"leasing",147,1,"VariableStudy",6,736,"Include"
"SB2020_e1","SB2020_e1_10",1,"vanilla",148,0,"VariableStudy",2,1372,"Include"
"SB2020_e1","SB2020_e1_10",1,"settler",149,0,"VariableStudy",1,1579,"Include"
"SB2020_e1","SB2020_e1_10",1,"hairpin",150,0,"VariableStudy",3,1971,"Include"
"SB2020_e1","SB2020_e1_10",1,"goddess",151,0,"VariableStudy",2,1498,"Include"
"SB2020_e1","SB2020_e1_10",1,"malaise",152,0,"VariableStudy",1,1198,"Include"
"SB2020_e1","SB2020_e1_10",1,"prophet",153,1,"VariableStudy",4,1649,"Include"
"SB2020_e1","SB2020_e1_10",1,"handler",154,1,"VariableStudy",6,823,"Include"
"SB2020_e1","SB2020_e1_10",1,"pioneer",155,0,"VariableStudy",1,1132,"Include"
"SB2020_e1","SB2020_e1_10",1,"postman",156,1,"VariableStudy",6,1794,"Include"
"SB2020_e1","SB2020_e1_10",1,"urinary",157,1,"VariableStudy",6,1471,"Include"
"SB2020_e1","SB2020_e1_10",1,"dictate",158,0,"VariableStudy",2,1349,"Include"
"SB2020_e1","SB2020_e1_10",1,"foreman",159,0,"VariableStudy",3,1345,"Include"
"SB2020_e1","SB2020_e1_10",1,"suction",160,0,"VariableStudy",3,1242,"Include"
"SB2020_e1","SB2020_e1_10",1,"thinker",161,1,"VariableStudy",4,1864,"Include"
"SB2020_e1","SB2020_e1_10",1,"stopper",162,1,"VariableStudy",6,814,"Include"
"SB2020_e1","SB2020_e1_10",1,"pickaxe",163,0,"VariableStudy",2,1356,"Include"
"SB2020_e1","SB2020_e1_10",1,"pronoun",164,0,"VariableStudy",3,1253,"Include"
"SB2020_e1","SB2020_e1_10",1,"anchovy",165,1,"VariableStudy",1,1646,"Include"
"SB2020_e1","SB2020_e1_10",1,"kindred",166,1,"VariableStudy",5,2097,"Include"
"SB2020_e1","SB2020_e1_10",1,"monarch",167,1,"VariableStudy",5,1566,"Include"
"SB2020_e1","SB2020_e1_10",1,"lecture",168,0,"VariableStudy",3,1760,"Include"
"SB2020_e1","SB2020_e1_10",1,"bigotry",169,1,"VariableStudy",6,1259,"Include"
"SB2020_e1","SB2020_e1_10",1,"rebirth",170,0,"VariableStudy",2,1179,"Include"
"SB2020_e1","SB2020_e1_10",1,"ocarina",171,0,"VariableStudy",1,1907,"Include"
"SB2020_e1","SB2020_e1_10",1,"kinetic",172,0,"VariableStudy",3,1975,"Include"
"SB2020_e1","SB2020_e1_10",1,"fatigue",173,0,"VariableStudy",2,1624,"Include"
"SB2020_e1","SB2020_e1_10",1,"alumnae",174,1,"VariableStudy",5,1281,"Include"
"SB2020_e1","SB2020_e1_10",1,"potency",175,1,"VariableStudy",6,1442,"Include"
"SB2020_e1","SB2020_e1_10",1,"dessert",176,0,"VariableStudy",2,1754,"Include"
"SB2020_e1","SB2020_e1_10",1,"curtain",177,0,"VariableStudy",2,1430,"Include"
"SB2020_e1","SB2020_e1_10",1,"parapet",178,1,"VariableStudy",6,970,"Include"
"SB2020_e1","SB2020_e1_10",1,"spiller",179,0,"VariableStudy",2,1301,"Include"
"SB2020_e1","SB2020_e1_10",1,"diocese",180,1,"VariableStudy",6,957,"Include"
"SB2020_e1","SB2020_e1_10",1,"spectre",181,0,"VariableStudy",2,1546,"Include"
"SB2020_e1","SB2020_e1_10",1,"warhead",182,1,"VariableStudy",5,2144,"Include"
"SB2020_e1","SB2020_e1_10",1,"buffoon",183,1,"VariableStudy",6,1158,"Include"
"SB2020_e1","SB2020_e1_10",1,"magenta",184,1,"VariableStudy",6,703,"Include"
"SB2020_e1","SB2020_e1_10",1,"pottery",185,1,"VariableStudy",6,1138,"Include"
"SB2020_e1","SB2020_e1_10",1,"consent",186,1,"VariableStudy",4,2254,"Include"
"SB2020_e1","SB2020_e1_10",1,"cricket",187,0,"VariableStudy",3,1369,"Include"
"SB2020_e1","SB2020_e1_10",1,"drizzle",188,0,"VariableStudy",2,1302,"Include"
"SB2020_e1","SB2020_e1_10",1,"paragon",189,1,"VariableStudy",6,941,"Include"
"SB2020_e1","SB2020_e1_10",1,"consort",190,0,"VariableStudy",2,1110,"Include"
"SB2020_e1","SB2020_e1_10",1,"salient",191,1,"VariableStudy",6,754,"Include"
"SB2020_e1","SB2020_e1_10",1,"actress",192,0,"VariableStudy",2,1421,"Include"
"SB2020_e1","SB2020_e1_10",1,"scuffle",193,0,"VariableStudy",2,1406,"Include"
"SB2020_e1","SB2020_e1_10",1,"holland",194,0,"VariableStudy",4,1852,"Include"
"SB2020_e1","SB2020_e1_10",1,"nurture",195,0,"VariableStudy",4,2198,"Include"
"SB2020_e1","SB2020_e1_10",1,"hatchet",196,1,"VariableStudy",6,849,"Include"
"SB2020_e1","SB2020_e1_10",1,"fascist",197,1,"VariableStudy",3,1354,"Include"
"SB2020_e1","SB2020_e1_10",1,"spangle",198,1,"VariableStudy",3,1350,"Include"
"SB2020_e1","SB2020_e1_10",1,"tableau",199,1,"VariableStudy",6,1459,"Include"
"SB2020_e1","SB2020_e1_10",1,"crimean",200,0,"VariableStudy",3,1177,"Include"
"SB2020_e1","SB2020_e1_10",1,"kingpin",201,0,"VariableStudy",2,1172,"Include"
"SB2020_e1","SB2020_e1_10",1,"shuffle",202,1,"VariableStudy",5,1955,"Include"
"SB2020_e1","SB2020_e1_10",1,"adviser",203,0,"VariableStudy",2,1333,"Include"
"SB2020_e1","SB2020_e1_10",1,"witness",204,1,"VariableStudy",6,848,"Include"
"SB2020_e1","SB2020_e1_10",1,"glimmer",205,1,"VariableStudy",3,1894,"Include"
"SB2020_e1","SB2020_e1_10",1,"muezzin",206,1,"VariableStudy",4,1592,"Include"
"SB2020_e1","SB2020_e1_10",1,"brigade",207,0,"VariableStudy",2,1316,"Include"
"SB2020_e1","SB2020_e1_10",1,"vaccine",208,0,"VariableStudy",5,1630,"Include"
"SB2020_e1","SB2020_e1_10",1,"outline",209,1,"VariableStudy",3,1589,"Include"
"SB2020_e1","SB2020_e1_10",1,"burglar",210,1,"VariableStudy",6,945,"Include"
"SB2020_e1","SB2020_e1_10",1,"shooter",211,0,"VariableStudy",2,1614,"Include"
"SB2020_e1","SB2020_e1_10",1,"antique",212,1,"VariableStudy",6,1194,"Include"
"SB2020_e1","SB2020_e1_10",1,"showman",213,1,"VariableStudy",6,743,"Include"
"SB2020_e1","SB2020_e1_10",1,"protein",214,1,"VariableStudy",5,2059,"Include"
"SB2020_e1","SB2020_e1_10",1,"fighter",215,0,"VariableStudy",3,1558,"Include"
"SB2020_e1","SB2020_e1_10",1,"passive",216,0,"VariableStudy",3,1913,"Include"
"SB2020_e1","SB2020_e1_10",1,"incense",217,0,"VariableStudy",4,1269,"Include"
"SB2020_e1","SB2020_e1_10",1,"arbiter",218,1,"VariableStudy",5,1811,"Include"
"SB2020_e1","SB2020_e1_10",1,"epitome",219,1,"VariableStudy",5,1374,"Include"
"SB2020_e1","SB2020_e1_10",1,"figment",220,1,"VariableStudy",4,1601,"Include"
"SB2020_e1","SB2020_e1_10",1,"quintet",221,1,"VariableStudy",3,1128,"Include"
"SB2020_e1","SB2020_e1_10",1,"compost",222,1,"VariableStudy",6,1013,"Include"
"SB2020_e1","SB2020_e1_10",1,"recital",223,0,"VariableStudy",2,1526,"Include"
"SB2020_e1","SB2020_e1_10",1,"holiday",224,1,"VariableStudy",5,1438,"Include"
"SB2020_e1","SB2020_e1_10",1,"seminar",225,0,"VariableStudy",3,1122,"Include"
"SB2020_e1","SB2020_e1_10",1,"tumbler",226,1,"VariableStudy",4,1895,"Include"
"SB2020_e1","SB2020_e1_10",1,"voyager",227,0,"VariableStudy",2,1498,"Include"
"SB2020_e1","SB2020_e1_10",1,"persian",228,0,"VariableStudy",2,1301,"Include"
"SB2020_e1","SB2020_e1_10",1,"shipper",229,0,"VariableStudy",3,1526,"Include"
"SB2020_e1","SB2020_e1_10",1,"phoenix",230,1,"VariableStudy",3,886,"Include"
"SB2020_e1","SB2020_e1_10",1,"abandon",231,0,"VariableStudy",4,1234,"Include"
"SB2020_e1","SB2020_e1_10",1,"anguish",232,0,"VariableStudy",3,1510,"Include"
"SB2020_e1","SB2020_e1_10",1,"sleight",233,0,"VariableStudy",3,1543,"Include"
"SB2020_e1","SB2020_e1_10",1,"pleader",234,0,"VariableStudy",4,1725,"Include"
"SB2020_e1","SB2020_e1_10",1,"dualism",235,1,"VariableStudy",4,1405,"Include"
"SB2020_e1","SB2020_e1_10",1,"ticking",236,0,"VariableStudy",3,837,"Include"
"SB2020_e1","SB2020_e1_10",1,"sleeper",237,1,"VariableStudy",6,1128,"Include"
"SB2020_e1","SB2020_e1_10",1,"sausage",238,1,"VariableStudy",5,1456,"Include"
"SB2020_e1","SB2020_e1_10",1,"animism",239,1,"VariableStudy",6,970,"Include"
"SB2020_e1","SB2020_e1_10",1,"footman",240,1,"VariableStudy",6,1078,"Include"
"SB2020_e1","SB2020_e1_10",1,"sandman",241,0,"VariableStudy",2,1289,"Include"
"SB2020_e1","SB2020_e1_10",1,"boulder",242,0,"VariableStudy",3,1798,"Include"
"SB2020_e1","SB2020_e1_10",1,"pasture",243,0,"VariableStudy",3,1445,"Include"
"SB2020_e1","SB2020_e1_10",1,"lampoon",244,1,"VariableStudy",5,1228,"Include"
"SB2020_e1","SB2020_e1_10",1,"comrade",245,1,"VariableStudy",3,1714,"Include"
"SB2020_e1","SB2020_e1_10",1,"overlap",246,1,"VariableStudy",6,865,"Include"
"SB2020_e1","SB2020_e1_10",1,"advisor",247,0,"VariableStudy",2,1338,"Include"
"SB2020_e1","SB2020_e1_10",1,"premise",248,0,"VariableStudy",2,1294,"Include"
"SB2020_e1","SB2020_e1_10",1,"granite",249,0,"VariableStudy",5,1540,"Include"
"SB2020_e1","SB2020_e1_10",1,"cognate",250,0,"VariableStudy",4,1719,"Include"
"SB2020_e1","SB2020_e1_10",1,"printer",251,0,"VariableStudy",3,1195,"Include"
"SB2020_e1","SB2020_e1_10",1,"stardom",252,1,"VariableStudy",3,835,"Include"
"SB2020_e1","SB2020_e1_10",1,"cunning",253,0,"VariableStudy",3,2021,"Include"
"SB2020_e1","SB2020_e1_10",1,"foliage",254,1,"VariableStudy",5,1275,"Include"
"SB2020_e1","SB2020_e1_10",1,"penance",255,0,"VariableStudy",2,1294,"Include"
"SB2020_e1","SB2020_e1_10",1,"outrage",256,0,"VariableStudy",2,1702,"Include"
"SB2020_e1","SB2020_e1_10",1,"squeeze",257,1,"VariableStudy",4,1708,"Include"
"SB2020_e1","SB2020_e1_10",1,"cavalry",258,1,"VariableStudy",3,966,"Include"
"SB2020_e1","SB2020_e1_10",1,"destiny",259,1,"VariableStudy",3,856,"Include"
"SB2020_e1","SB2020_e1_10",1,"harness",260,0,"VariableStudy",3,833,"Include"
"SB2020_e1","SB2020_e1_10",2,"settler",1,0,"FixedStudy",2,7980,"Include"
"SB2020_e1","SB2020_e1_10",2,"discard",2,1,"FixedStudy",2,1919,"Include"
"SB2020_e1","SB2020_e1_10",2,"hacksaw",3,1,"FixedStudy",1,1267,"Include"
"SB2020_e1","SB2020_e1_10",2,"outrage",4,0,"FixedStudy",2,1385,"Include"
"SB2020_e1","SB2020_e1_10",2,"sulphur",5,1,"FixedStudy",2,1269,"Include"
"SB2020_e1","SB2020_e1_10",2,"cruelty",6,0,"FixedStudy",2,1939,"Include"
"SB2020_e1","SB2020_e1_10",2,"foliage",7,1,"FixedStudy",6,1393,"Include"
"SB2020_e1","SB2020_e1_10",2,"backlog",8,0,"FixedStudy",2,1237,"Include"
"SB2020_e1","SB2020_e1_10",2,"fatigue",9,0,"FixedStudy",3,1668,"Include"
"SB2020_e1","SB2020_e1_10",2,"residue",10,0,"FixedStudy",3,1323,"Include"
"SB2020_e1","SB2020_e1_10",2,"anchovy",11,1,"FixedStudy",3,1415,"Include"
"SB2020_e1","SB2020_e1_10",2,"ticking",12,0,"FixedStudy",4,1329,"Include"
"SB2020_e1","SB2020_e1_10",2,"painter",13,1,"FixedStudy",4,2062,"Include"
"SB2020_e1","SB2020_e1_10",2,"hatchet",14,1,"FixedStudy",3,1594,"Include"
"SB2020_e1","SB2020_e1_10",2,"tobacco",15,0,"FixedStudy",3,883,"Include"
"SB2020_e1","SB2020_e1_10",2,"dresser",16,1,"FixedStudy",3,1324,"Include"
"SB2020_e1","SB2020_e1_10",2,"arousal",17,1,"FixedStudy",5,1675,"Include"
"SB2020_e1","SB2020_e1_10",2,"harness",18,0,"FixedStudy",2,1738,"Include"
"SB2020_e1","SB2020_e1_10",2,"figment",19,1,"FixedStudy",6,1741,"Include"
"SB2020_e1","SB2020_e1_10",2,"footman",20,1,"FixedStudy",6,760,"Include"
"SB2020_e1","SB2020_e1_10",2,"fighter",21,0,"FixedStudy",1,1449,"Include"
"SB2020_e1","SB2020_e1_10",2,"handler",22,1,"FixedStudy",6,895,"Include"
"SB2020_e1","SB2020_e1_10",2,"weekday",23,1,"FixedStudy",5,1747,"Include"
"SB2020_e1","SB2020_e1_10",2,"anatomy",24,1,"FixedStudy",6,1014,"Include"
"SB2020_e1","SB2020_e1_10",2,"masseur",25,1,"FixedStudy",6,827,"Include"
"SB2020_e1","SB2020_e1_10",2,"prophet",26,1,"FixedStudy",6,1129,"Include"
"SB2020_e1","SB2020_e1_10",2,"wayside",27,0,"FixedStudy",2,1841,"Include"
"SB2020_e1","SB2020_e1_10",2,"dreamer",28,1,"FixedStudy",5,1889,"Include"
"SB2020_e1","SB2020_e1_10",2,"hairpin",29,0,"FixedStudy",3,1856,"Include"
"SB2020_e1","SB2020_e1_10",2,"vintage",30,0,"FixedStudy",1,1408,"Include"
"SB2020_e1","SB2020_e1_10",2,"granite",31,0,"FixedStudy",2,2047,"Include"
"SB2020_e1","SB2020_e1_10",2,"ocarina",32,0,"FixedStudy",3,3312,"Include"
"SB2020_e1","SB2020_e1_10",2,"shuffle",33,1,"FixedStudy",6,1048,"Include"
"SB2020_e1","SB2020_e1_10",2,"slipper",34,1,"FixedStudy",5,1398,"Include"
"SB2020_e1","SB2020_e1_10",2,"pronoun",35,0,"FixedStudy",4,1740,"Include"
"SB2020_e1","SB2020_e1_10",2,"statute",36,1,"FixedStudy",6,852,"Include"
"SB2020_e1","SB2020_e1_10",2,"orderly",37,0,"FixedStudy",4,1597,"Include"
"SB2020_e1","SB2020_e1_10",2,"quibble",38,0,"FixedStudy",4,1789,"Include"
"SB2020_e1","SB2020_e1_10",2,"quantum",39,0,"FixedStudy",3,871,"Include"
"SB2020_e1","SB2020_e1_10",2,"sleeper",40,1,"FixedStudy",6,940,"Include"
"SB2020_e1","SB2020_e1_10",2,"pioneer",41,0,"FixedStudy",3,2466,"Include"
"SB2020_e1","SB2020_e1_10",2,"lantern",42,0,"FixedStudy",3,1006,"Include"
"SB2020_e1","SB2020_e1_10",2,"glamour",43,1,"FixedStudy",4,1319,"Include"
"SB2020_e1","SB2020_e1_10",2,"advisor",44,0,"FixedStudy",2,1556,"Include"
"SB2020_e1","SB2020_e1_10",2,"utility",45,0,"FixedStudy",1,1084,"Include"
"SB2020_e1","SB2020_e1_10",2,"fascist",46,1,"FixedStudy",5,1462,"Include"
"SB2020_e1","SB2020_e1_10",2,"adviser",47,0,"FixedStudy",4,2167,"Include"
"SB2020_e1","SB2020_e1_10",2,"potency",48,1,"FixedStudy",6,924,"Include"
"SB2020_e1","SB2020_e1_10",2,"outline",49,1,"FixedStudy",2,1525,"Include"
"SB2020_e1","SB2020_e1_10",2,"reverie",50,1,"FixedStudy",6,797,"Include"
"SB2020_e1","SB2020_e1_10",2,"perjury",51,1,"FixedStudy",6,701,"Include"
"SB2020_e1","SB2020_e1_10",2,"polemic",52,1,"FixedStudy",5,1834,"Include"
"SB2020_e1","SB2020_e1_10",2,"kindred",53,1,"FixedStudy",6,712,"Include"
"SB2020_e1","SB2020_e1_10",2,"catcher",54,1,"FixedStudy",6,973,"Include"
"SB2020_e1","SB2020_e1_10",2,"liqueur",55,1,"FixedStudy",2,1582,"Include"
"SB2020_e1","SB2020_e1_10",2,"quintet",56,1,"FixedStudy",6,850,"Include"
"SB2020_e1","SB2020_e1_10",2,"edifice",57,1,"FixedStudy",6,713,"Include"
"SB2020_e1","SB2020_e1_10",2,"persian",58,0,"FixedStudy",4,2060,"Include"
"SB2020_e1","SB2020_e1_10",2,"consort",59,0,"FixedStudy",3,1738,"Include"
"SB2020_e1","SB2020_e1_10",2,"anguish",60,0,"FixedStudy",2,1402,"Include"
"SB2020_e1","SB2020_e1_10",2,"incense",61,0,"FixedStudy",2,1804,"Include"
"SB2020_e1","SB2020_e1_10",2,"printer",62,0,"FixedStudy",3,1347,"Include"
"SB2020_e1","SB2020_e1_10",2,"lucifer",63,1,"FixedStudy",4,1226,"Include"
"SB2020_e1","SB2020_e1_10",2,"goddess",64,0,"FixedStudy",3,1385,"Include"
"SB2020_e1","SB2020_e1_10",2,"abandon",65,0,"FixedStudy",3,1754,"Include"
"SB2020_e1","SB2020_e1_10",2,"discord",66,0,"FixedStudy",2,1414,"Include"
"SB2020_e1","SB2020_e1_10",2,"perusal",67,0,"FixedStudy",4,2970,"Include"
"SB2020_e1","SB2020_e1_10",2,"warhead",68,1,"FixedStudy",6,985,"Include"
"SB2020_e1","SB2020_e1_10",2,"impetus",69,1,"FixedStudy",6,860,"Include"
"SB2020_e1","SB2020_e1_10",2,"cabinet",70,0,"FixedStudy",4,1781,"Include"
"SB2020_e1","SB2020_e1_10",2,"seaside",71,0,"FixedStudy",2,1408,"Include"
"SB2020_e1","SB2020_e1_10",2,"crimean",72,0,"FixedStudy",1,1379,"Include"
"SB2020_e1","SB2020_e1_10",2,"tableau",73,1,"FixedStudy",5,1199,"Include"
"SB2020_e1","SB2020_e1_10",2,"vinegar",74,1,"FixedStudy",6,850,"Include"
"SB2020_e1","SB2020_e1_10",2,"tumbler",75,1,"FixedStudy",6,678,"Include"
"SB2020_e1","SB2020_e1_10",2,"haddock",76,1,"FixedStudy",6,947,"Include"
"SB2020_e1","SB2020_e1_10",2,"consent",77,1,"FixedStudy",6,625,"Include"
"SB2020_e1","SB2020_e1_10",2,"texture",78,0,"FixedStudy",2,1198,"Include"
"SB2020_e1","SB2020_e1_10",2,"witness",79,1,"FixedStudy",6,2023,"Include"
"SB2020_e1","SB2020_e1_10",2,"planter",80,0,"FixedStudy",2,1396,"Include"
"SB2020_e1","SB2020_e1_10",2,"trickle",81,1,"FixedStudy",5,1342,"Include"
"SB2020_e1","SB2020_e1_10",2,"foreman",82,0,"FixedStudy",3,1794,"Include"
"SB2020_e1","SB2020_e1_10",2,"actress",83,0,"FixedStudy",2,1293,"Include"
"SB2020_e1","SB2020_e1_10",2,"surgeon",84,1,"FixedStudy",5,1453,"Include"
"SB2020_e1","SB2020_e1_10",2,"jitters",85,0,"FixedStudy",1,1402,"Include"
"SB2020_e1","SB2020_e1_10",2,"esquire",86,0,"FixedStudy",2,1510,"Include"
"SB2020_e1","SB2020_e1_10",2,"protein",87,1,"FixedStudy",6,963,"Include"
"SB2020_e1","SB2020_e1_10",2,"hessian",88,0,"FixedStudy",3,2442,"Include"
"SB2020_e1","SB2020_e1_10",2,"steeple",89,1,"FixedStudy",6,1030,"Include"
"SB2020_e1","SB2020_e1_10",2,"inverse",90,1,"FixedStudy",5,1780,"Include"
"SB2020_e1","SB2020_e1_10",2,"hostler",91,1,"FixedStudy",3,1329,"Include"
"SB2020_e1","SB2020_e1_10",2,"suction",92,0,"FixedStudy",2,1148,"Include"
"SB2020_e1","SB2020_e1_10",2,"stardom",93,1,"FixedStudy",6,963,"Include"
"SB2020_e1","SB2020_e1_10",2,"rooster",94,1,"FixedStudy",4,1271,"Include"
"SB2020_e1","SB2020_e1_10",2,"pilgrim",95,1,"FixedStudy",5,1294,"Include"
"SB2020_e1","SB2020_e1_10",2,"magenta",96,1,"FixedStudy",4,1710,"Include"
"SB2020_e1","SB2020_e1_10",2,"perfume",97,1,"FixedStudy",3,1387,"Include"
"SB2020_e1","SB2020_e1_10",2,"workman",98,1,"FixedStudy",3,1277,"Include"
"SB2020_e1","SB2020_e1_10",2,"descent",99,1,"FixedStudy",6,911,"Include"
"SB2020_e1","SB2020_e1_10",2,"hillman",100,0,"FixedStudy",1,1402,"Include"
"SB2020_e1","SB2020_e1_10",2,"thinker",101,1,"FixedStudy",4,1950,"Include"
"SB2020_e1","SB2020_e1_10",2,"gateway",102,0,"FixedStudy",3,1569,"Include"
"SB2020_e1","SB2020_e1_10",2,"tenancy",103,1,"FixedStudy",5,1117,"Include"
"SB2020_e1","SB2020_e1_10",2,"capture",104,1,"FixedStudy",6,1156,"Include"
"SB2020_e1","SB2020_e1_10",2,"postmen",105,1,"FixedStudy",3,1452,"Include"
"SB2020_e1","SB2020_e1_10",2,"epitome",106,1,"FixedStudy",6,814,"Include"
"SB2020_e1","SB2020_e1_10",2,"rapture ",107,1,"FixedStudy",6,729,"Include"
"SB2020_e1","SB2020_e1_10",2,"asphalt",108,1,"FixedStudy",6,700,"Include"
"SB2020_e1","SB2020_e1_10",2,"urinary",109,1,"FixedStudy",6,585,"Include"
"SB2020_e1","SB2020_e1_10",2,"postman",110,1,"FixedStudy",6,826,"Include"
"SB2020_e1","SB2020_e1_10",2,"airport",111,0,"FixedStudy",2,1210,"Include"
"SB2020_e1","SB2020_e1_10",2,"defence",112,0,"FixedStudy",1,1224,"Include"
"SB2020_e1","SB2020_e1_10",2,"stadium",113,0,"FixedStudy",3,1330,"Include"
"SB2020_e1","SB2020_e1_10",2,"caution",114,0,"FixedStudy",2,1216,"Include"
"SB2020_e1","SB2020_e1_10",2,"stubble",115,0,"FixedStudy",3,1721,"Include"
"SB2020_e1","SB2020_e1_10",2,"patriot",116,1,"FixedStudy",4,1941,"Include"
"SB2020_e1","SB2020_e1_10",2,"analyst",117,0,"FixedStudy",3,1492,"Include"
"SB2020_e1","SB2020_e1_10",2,"animism",118,1,"FixedStudy",4,2105,"Include"
"SB2020_e1","SB2020_e1_10",2,"cognate",119,0,"FixedStudy",2,1460,"Include"
"SB2020_e1","SB2020_e1_10",2,"cleaner",120,0,"FixedStudy",3,2195,"Include"
"SB2020_e1","SB2020_e1_10",2,"compost",121,1,"FixedStudy",4,1272,"Include"
"SB2020_e1","SB2020_e1_10",2,"brigade",122,0,"FixedStudy",2,1886,"Include"
"SB2020_e1","SB2020_e1_10",2,"monsoon",123,0,"FixedStudy",5,1810,"Include"
"SB2020_e1","SB2020_e1_10",2,"theorem",124,0,"FixedStudy",3,1451,"Include"
"SB2020_e1","SB2020_e1_10",2,"parapet",125,1,"FixedStudy",4,1516,"Include"
"SB2020_e1","SB2020_e1_10",2,"drizzle",126,0,"FixedStudy",2,1643,"Include"
"SB2020_e1","SB2020_e1_10",2,"pottery",127,1,"FixedStudy",6,909,"Include"
"SB2020_e1","SB2020_e1_10",2,"madonna",128,0,"FixedStudy",2,1083,"Include"
"SB2020_e1","SB2020_e1_10",2,"penance",129,0,"FixedStudy",3,1281,"Include"
"SB2020_e1","SB2020_e1_10",2,"sandman",130,0,"FixedStudy",2,912,"Include"
"SB2020_e1","SB2020_e1_10",2,"subsoil",131,0,"FixedStudy",5,1685,"Include"
"SB2020_e1","SB2020_e1_10",2,"voyager",132,0,"FixedStudy",1,1725,"Include"
"SB2020_e1","SB2020_e1_10",2,"malaise",133,0,"FixedStudy",3,1332,"Include"
"SB2020_e1","SB2020_e1_10",2,"sternum",134,0,"FixedStudy",2,861,"Include"
"SB2020_e1","SB2020_e1_10",2,"overlay",135,0,"FixedStudy",3,1405,"Include"
"SB2020_e1","SB2020_e1_10",2,"servant",136,0,"FixedStudy",3,1020,"Include"
"SB2020_e1","SB2020_e1_10",2,"aspirin",137,1,"FixedStudy",5,1464,"Include"
"SB2020_e1","SB2020_e1_10",2,"synonym",138,1,"FixedStudy",6,848,"Include"
"SB2020_e1","SB2020_e1_10",2,"chutney",139,1,"FixedStudy",6,1099,"Include"
"SB2020_e1","SB2020_e1_10",2,"thermos",140,0,"FixedStudy",5,1346,"Include"
"SB2020_e1","SB2020_e1_10",2,"cunning",141,0,"FixedStudy",3,1517,"Include"
"SB2020_e1","SB2020_e1_10",2,"utopian",142,0,"FixedStudy",2,1323,"Include"
"SB2020_e1","SB2020_e1_10",2,"hostage",143,1,"FixedStudy",3,1430,"Include"
"SB2020_e1","SB2020_e1_10",2,"turbine",144,1,"FixedStudy",5,1590,"Include"
"SB2020_e1","SB2020_e1_10",2,"cripple",145,0,"FixedStudy",3,1367,"Include"
"SB2020_e1","SB2020_e1_10",2,"pastime",146,0,"FixedStudy",3,1571,"Include"
"SB2020_e1","SB2020_e1_10",2,"destiny",147,1,"FixedStudy",2,1423,"Include"
"SB2020_e1","SB2020_e1_10",2,"dictate",148,0,"FixedStudy",3,1200,"Include"
"SB2020_e1","SB2020_e1_10",2,"pleader",149,0,"FixedStudy",4,1450,"Include"
"SB2020_e1","SB2020_e1_10",2,"lampoon",150,1,"FixedStudy",6,925,"Include"
"SB2020_e1","SB2020_e1_10",2,"canvass",151,1,"FixedStudy",6,774,"Include"
"SB2020_e1","SB2020_e1_10",2,"digital",152,1,"FixedStudy",6,994,"Include"
"SB2020_e1","SB2020_e1_10",2,"novelty",153,0,"FixedStudy",5,1226,"Include"
"SB2020_e1","SB2020_e1_10",2,"alumnae",154,1,"FixedStudy",3,1198,"Include"
"SB2020_e1","SB2020_e1_10",2,"salient",155,1,"FixedStudy",6,917,"Include"
"SB2020_e1","SB2020_e1_10",2,"shipper",156,0,"FixedStudy",1,1129,"Include"
"SB2020_e1","SB2020_e1_10",2,"regency",157,1,"FixedStudy",5,3070,"Include"
"SB2020_e1","SB2020_e1_10",2,"trustee",158,0,"FixedStudy",3,1213,"Include"
"SB2020_e1","SB2020_e1_10",2,"platoon",159,0,"FixedStudy",3,1465,"Include"
"SB2020_e1","SB2020_e1_10",2,"bigotry",160,1,"FixedStudy",2,1289,"Include"
"SB2020_e1","SB2020_e1_10",2,"impulse",161,0,"FixedStudy",2,1657,"Include"
"SB2020_e1","SB2020_e1_10",2,"grizzly",162,0,"FixedStudy",3,986,"Include"
"SB2020_e1","SB2020_e1_10",2,"trigger",163,0,"FixedStudy",2,1527,"Include"
"SB2020_e1","SB2020_e1_10",2,"spiller",164,0,"FixedStudy",1,1348,"Include"
"SB2020_e1","SB2020_e1_10",2,"mastiff",165,1,"FixedStudy",3,1444,"Include"
"SB2020_e1","SB2020_e1_10",2,"vaccine",166,0,"FixedStudy",3,1612,"Include"
"SB2020_e1","SB2020_e1_10",2,"muezzin",167,1,"FixedStudy",5,1354,"Include"
"SB2020_e1","SB2020_e1_10",2,"antique",168,1,"FixedStudy",3,1660,"Include"
"SB2020_e1","SB2020_e1_10",2,"showman",169,1,"FixedStudy",3,1631,"Include"
"SB2020_e1","SB2020_e1_10",2,"primate",170,1,"FixedStudy",6,1038,"Include"
"SB2020_e1","SB2020_e1_10",2,"varnish",171,1,"FixedStudy",6,760,"Include"
"SB2020_e1","SB2020_e1_10",2,"holland",172,0,"FixedStudy",3,1372,"Include"
"SB2020_e1","SB2020_e1_10",2,"trimmer",173,0,"FixedStudy",3,1645,"Include"
"SB2020_e1","SB2020_e1_10",2,"mansion",174,0,"FixedStudy",4,1173,"Include"
"SB2020_e1","SB2020_e1_10",2,"pickaxe",175,0,"FixedStudy",3,894,"Include"
"SB2020_e1","SB2020_e1_10",2,"caliper",176,1,"FixedStudy",5,2094,"Include"
"SB2020_e1","SB2020_e1_10",2,"spectre",177,0,"FixedStudy",2,1612,"Include"
"SB2020_e1","SB2020_e1_10",2,"typhoid",178,1,"FixedStudy",5,1224,"Include"
"SB2020_e1","SB2020_e1_10",2,"monarch",179,1,"FixedStudy",6,1313,"Include"
"SB2020_e1","SB2020_e1_10",2,"bastion",180,0,"FixedStudy",3,1342,"Include"
"SB2020_e1","SB2020_e1_10",2,"boulder",181,0,"FixedStudy",5,1163,"Include"
"SB2020_e1","SB2020_e1_10",2,"novelty",182,1,"FixedStudy",6,1358,"Include"
"SB2020_e1","SB2020_e1_10",2,"impiety",183,0,"FixedStudy",2,1392,"Include"
"SB2020_e1","SB2020_e1_10",2,"cavalry",184,1,"FixedStudy",3,1410,"Include"
"SB2020_e1","SB2020_e1_10",2,"carcass",185,1,"FixedStudy",2,1415,"Include"
"SB2020_e1","SB2020_e1_10",2,"squeeze",186,1,"FixedStudy",6,851,"Include"
"SB2020_e1","SB2020_e1_10",2,"diocese",187,1,"FixedStudy",6,732,"Include"
"SB2020_e1","SB2020_e1_10",2,"sausage",188,1,"FixedStudy",6,590,"Include"
"SB2020_e1","SB2020_e1_10",2,"forfeit",189,0,"FixedStudy",4,1438,"Include"
"SB2020_e1","SB2020_e1_10",2,"suspect",190,0,"FixedStudy",3,1795,"Include"
"SB2020_e1","SB2020_e1_10",2,"curtain",191,0,"FixedStudy",5,1831,"Include"
"SB2020_e1","SB2020_e1_10",2,"booster",192,0,"FixedStudy",3,1519,"Include"
"SB2020_e1","SB2020_e1_10",2,"spangle",193,1,"FixedStudy",6,992,"Include"
"SB2020_e1","SB2020_e1_10",2,"whiskey",194,1,"FixedStudy",2,1439,"Include"
"SB2020_e1","SB2020_e1_10",2,"outgrow",195,0,"FixedStudy",5,1224,"Include"
"SB2020_e1","SB2020_e1_10",2,"academy",196,0,"FixedStudy",4,1723,"Include"
"SB2020_e1","SB2020_e1_10",2,"diagram",197,1,"FixedStudy",6,864,"Include"
"SB2020_e1","SB2020_e1_10",2,"pitfall",198,0,"FixedStudy",2,1146,"Include"
"SB2020_e1","SB2020_e1_10",2,"crudity",199,0,"FixedStudy",3,1356,"Include"
"SB2020_e1","SB2020_e1_10",2,"floater",200,1,"FixedStudy",5,1169,"Include"
"SB2020_e1","SB2020_e1_10",2,"cricket",201,0,"FixedStudy",3,1666,"Include"
"SB2020_e1","SB2020_e1_10",2,"picking",202,0,"FixedStudy",2,1125,"Include"
"SB2020_e1","SB2020_e1_10",2,"overlap",203,1,"FixedStudy",5,1421,"Include"
"SB2020_e1","SB2020_e1_10",2,"panther",204,0,"FixedStudy",3,1933,"Include"
"SB2020_e1","SB2020_e1_10",2,"arsenal",205,0,"FixedStudy",2,1584,"Include"
"SB2020_e1","SB2020_e1_10",2,"burglar",206,1,"FixedStudy",6,922,"Include"
"SB2020_e1","SB2020_e1_10",2,"glimmer",207,1,"FixedStudy",6,916,"Include"
"SB2020_e1","SB2020_e1_10",2,"devisee",208,0,"FixedStudy",3,1503,"Include"
"SB2020_e1","SB2020_e1_10",2,"outward",209,0,"FixedStudy",3,1210,"Include"
"SB2020_e1","SB2020_e1_10",2,"comrade",210,1,"FixedStudy",3,1037,"Include"
"SB2020_e1","SB2020_e1_10",2,"paragon",211,1,"FixedStudy",3,1157,"Include"
"SB2020_e1","SB2020_e1_10",2,"phoenix",212,1,"FixedStudy",6,899,"Include"
"SB2020_e1","SB2020_e1_10",2,"skipper",213,0,"FixedStudy",2,2330,"Include"
"SB2020_e1","SB2020_e1_10",2,"holiday",214,1,"FixedStudy",5,1459,"Include"
"SB2020_e1","SB2020_e1_10",2,"commune",215,1,"FixedStudy",3,1367,"Include"
"SB2020_e1","SB2020_e1_10",2,"surfeit",216,1,"FixedStudy",5,1369,"Include"
"SB2020_e1","SB2020_e1_10",2,"kingpin",217,0,"FixedStudy",3,1277,"Include"
"SB2020_e1","SB2020_e1_10",2,"slumber",218,1,"FixedStudy",4,935,"Include"
"SB2020_e1","SB2020_e1_10",2,"scuffle",219,0,"FixedStudy",2,1437,"Include"
"SB2020_e1","SB2020_e1_10",2,"fuchsia",220,0,"FixedStudy",3,1243,"Include"
"SB2020_e1","SB2020_e1_10",2,"nurture",221,0,"FixedStudy",2,971,"Include"
"SB2020_e1","SB2020_e1_10",2,"majesty",222,1,"FixedStudy",6,1076,"Include"
"SB2020_e1","SB2020_e1_10",2,"passive",223,0,"FixedStudy",2,1007,"Include"
"SB2020_e1","SB2020_e1_10",2,"rivalry",224,1,"FixedStudy",6,1317,"Include"
"SB2020_e1","SB2020_e1_10",2,"charmer",225,1,"FixedStudy",4,1483,"Include"
"SB2020_e1","SB2020_e1_10",2,"rebirth",226,0,"FixedStudy",3,1077,"Include"
"SB2020_e1","SB2020_e1_10",2,"skinner",227,0,"FixedStudy",2,1301,"Include"
"SB2020_e1","SB2020_e1_10",2,"whisper",228,0,"FixedStudy",3,1228,"Include"
"SB2020_e1","SB2020_e1_10",2,"rotunda",229,0,"FixedStudy",3,1180,"Include"
"SB2020_e1","SB2020_e1_10",2,"vanilla",230,0,"FixedStudy",3,1246,"Include"
"SB2020_e1","SB2020_e1_10",2,"lecture",231,0,"FixedStudy",2,1090,"Include"
"SB2020_e1","SB2020_e1_10",2,"leasing",232,1,"FixedStudy",6,1342,"Include"
"SB2020_e1","SB2020_e1_10",2,"matting",233,1,"FixedStudy",4,1324,"Include"
"SB2020_e1","SB2020_e1_10",2,"seminar",234,0,"FixedStudy",3,993,"Include"
"SB2020_e1","SB2020_e1_10",2,"ruffian",235,1,"FixedStudy",3,797,"Include"
"SB2020_e1","SB2020_e1_10",2,"buffoon",236,1,"FixedStudy",5,1153,"Include"
"SB2020_e1","SB2020_e1_10",2,"chimney",237,0,"FixedStudy",3,1475,"Include"
"SB2020_e1","SB2020_e1_10",2,"shooter",238,0,"FixedStudy",2,1122,"Include"
"SB2020_e1","SB2020_e1_10",2,"fixture",239,1,"FixedStudy",2,838,"Include"
"SB2020_e1","SB2020_e1_10",2,"viceroy",240,1,"FixedStudy",1,1756,"Include"
"SB2020_e1","SB2020_e1_10",2,"dessert",241,0,"FixedStudy",2,1321,"Include"
"SB2020_e1","SB2020_e1_10",2,"premise",242,0,"FixedStudy",3,1147,"Include"
"SB2020_e1","SB2020_e1_10",2,"anomaly",243,1,"FixedStudy",5,1148,"Include"
"SB2020_e1","SB2020_e1_10",2,"arabian",244,1,"FixedStudy",6,1227,"Include"
"SB2020_e1","SB2020_e1_10",2,"cushion",245,0,"FixedStudy",2,1308,"Include"
"SB2020_e1","SB2020_e1_10",2,"bedtime",246,0,"FixedStudy",2,1309,"Include"
"SB2020_e1","SB2020_e1_10",2,"dualism",247,1,"FixedStudy",4,1558,"Include"
"SB2020_e1","SB2020_e1_10",2,"emerald",248,0,"FixedStudy",3,959,"Include"
"SB2020_e1","SB2020_e1_10",2,"stopper",249,1,"FixedStudy",6,834,"Include"
"SB2020_e1","SB2020_e1_10",2,"kinetic",250,0,"FixedStudy",3,1216,"Include"
"SB2020_e1","SB2020_e1_10",2,"pasture",251,0,"FixedStudy",3,1199,"Include"
"SB2020_e1","SB2020_e1_10",2,"calorie",252,1,"FixedStudy",4,869,"Include"
"SB2020_e1","SB2020_e1_10",2,"insulin",253,1,"FixedStudy",5,1585,"Include"
"SB2020_e1","SB2020_e1_10",2,"lexicon",254,1,"FixedStudy",6,1072,"Include"
"SB2020_e1","SB2020_e1_10",2,"siamese",255,1,"FixedStudy",2,1307,"Include"
"SB2020_e1","SB2020_e1_10",2,"pyramid",256,0,"FixedStudy",2,1131,"Include"
"SB2020_e1","SB2020_e1_10",2,"arbiter",257,1,"FixedStudy",6,1140,"Include"
"SB2020_e1","SB2020_e1_10",2,"recital",258,0,"FixedStudy",4,2399,"Include"
"SB2020_e1","SB2020_e1_10",2,"sleight",259,0,"FixedStudy",2,1504,"Include"
"SB2020_e1","SB2020_e1_10",2,"veteran",260,1,"FixedStudy",6,1488,"Include"
"SB2020_e1","SB2020_e1_11",1,"cistern",1,0,"FixedStudy",6,1889,"Include"
"SB2020_e1","SB2020_e1_11",1,"surname",2,1,"FixedStudy",6,3324,"Include"
"SB2020_e1","SB2020_e1_11",1,"reunion",3,0,"FixedStudy",6,1118,"Include"
"SB2020_e1","SB2020_e1_11",1,"plunder",4,1,"FixedStudy",6,866,"Include"
"SB2020_e1","SB2020_e1_11",1,"impress",5,1,"FixedStudy",6,879,"Include"
"SB2020_e1","SB2020_e1_11",1,"archery",6,1,"FixedStudy",5,3056,"Include"
"SB2020_e1","SB2020_e1_11",1,"baptism",7,1,"FixedStudy",4,1299,"Include"
"SB2020_e1","SB2020_e1_11",1,"chariot",8,0,"FixedStudy",1,1190,"Include"
"SB2020_e1","SB2020_e1_11",1,"hearsay",9,1,"FixedStudy",5,1329,"Include"
"SB2020_e1","SB2020_e1_11",1,"defunct",10,0,"FixedStudy",1,1631,"Include"
"SB2020_e1","SB2020_e1_11",1,"emperor",11,1,"FixedStudy",6,1402,"Include"
"SB2020_e1","SB2020_e1_11",1,"ailment",12,0,"FixedStudy",3,3078,"Include"
"SB2020_e1","SB2020_e1_11",1,"african",13,0,"FixedStudy",3,1965,"Include"
"SB2020_e1","SB2020_e1_11",1,"uranium",14,1,"FixedStudy",6,1325,"Include"
"SB2020_e1","SB2020_e1_11",1,"blossom",15,1,"FixedStudy",6,711,"Include"
"SB2020_e1","SB2020_e1_11",1,"whippet",16,1,"FixedStudy",6,701,"Include"
"SB2020_e1","SB2020_e1_11",1,"stimuli",17,1,"FixedStudy",6,707,"Include"
"SB2020_e1","SB2020_e1_11",1,"sweater",18,1,"FixedStudy",6,1114,"Include"
"SB2020_e1","SB2020_e1_11",1,"closure",19,1,"FixedStudy",6,971,"Include"
"SB2020_e1","SB2020_e1_11",1,"visitor",20,0,"FixedStudy",6,1032,"Include"
"SB2020_e1","SB2020_e1_11",1,"ovation",21,1,"FixedStudy",6,593,"Include"
"SB2020_e1","SB2020_e1_11",1,"boycott",22,0,"FixedStudy",5,2652,"Include"
"SB2020_e1","SB2020_e1_11",1,"bicycle",23,0,"FixedStudy",1,873,"Include"
"SB2020_e1","SB2020_e1_11",1,"recount",24,0,"FixedStudy",1,894,"Include"
"SB2020_e1","SB2020_e1_11",1,"dentist",25,1,"FixedStudy",6,1126,"Include"
"SB2020_e1","SB2020_e1_11",1,"obelisk",26,1,"FixedStudy",6,1397,"Include"
"SB2020_e1","SB2020_e1_11",1,"swahili",27,0,"FixedStudy",1,1685,"Include"
"SB2020_e1","SB2020_e1_11",1,"pitcher",28,0,"FixedStudy",4,2394,"Include"
"SB2020_e1","SB2020_e1_11",1,"orchard",29,0,"FixedStudy",4,975,"Include"
"SB2020_e1","SB2020_e1_11",1,"deficit",30,0,"FixedStudy",1,913,"Include"
"SB2020_e1","SB2020_e1_11",1,"doorway ",31,0,"FixedStudy",1,1998,"Include"
"SB2020_e1","SB2020_e1_11",1,"flannel",32,0,"FixedStudy",1,995,"Include"
"SB2020_e1","SB2020_e1_11",1,"blubber",33,0,"FixedStudy",1,982,"Include"
"SB2020_e1","SB2020_e1_11",1,"militia",34,1,"FixedStudy",1,1319,"Include"
"SB2020_e1","SB2020_e1_11",1,"garment",35,0,"FixedStudy",1,867,"Include"
"SB2020_e1","SB2020_e1_11",1,"griffin",36,1,"FixedStudy",6,887,"Include"
"SB2020_e1","SB2020_e1_11",1,"chowder",37,1,"FixedStudy",6,719,"Include"
"SB2020_e1","SB2020_e1_11",1,"custody",38,0,"FixedStudy",6,658,"Include"
"SB2020_e1","SB2020_e1_11",1,"chopper",39,0,"FixedStudy",6,1565,"Include"
"SB2020_e1","SB2020_e1_11",1,"brewery",40,1,"FixedStudy",1,1037,"Include"
"SB2020_e1","SB2020_e1_11",1,"citizen",41,1,"FixedStudy",6,788,"Include"
"SB2020_e1","SB2020_e1_11",1,"corsage",42,0,"FixedStudy",1,959,"Include"
"SB2020_e1","SB2020_e1_11",1,"balloon",43,1,"FixedStudy",1,1097,"Include"
"SB2020_e1","SB2020_e1_11",1,"blunder",44,0,"FixedStudy",1,899,"Include"
"SB2020_e1","SB2020_e1_11",1,"lunatic",45,0,"FixedStudy",1,797,"Include"
"SB2020_e1","SB2020_e1_11",1,"tornado",46,1,"FixedStudy",6,1157,"Include"
"SB2020_e1","SB2020_e1_11",1,"herring",47,0,"FixedStudy",2,4837,"Include"
"SB2020_e1","SB2020_e1_11",1,"amateur",48,1,"FixedStudy",5,4194,"Include"
"SB2020_e1","SB2020_e1_11",1,"polecat",49,0,"FixedStudy",2,2413,"Include"
"SB2020_e1","SB2020_e1_11",1,"calibre",50,1,"FixedStudy",6,1830,"Include"
"SB2020_e1","SB2020_e1_11",1,"magnate",51,1,"FixedStudy",2,1944,"Include"
"SB2020_e1","SB2020_e1_11",1,"incubus",52,1,"FixedStudy",6,4327,"Include"
"SB2020_e1","SB2020_e1_11",1,"eclipse",53,0,"FixedStudy",1,1571,"Include"
"SB2020_e1","SB2020_e1_11",1,"fission",54,1,"FixedStudy",1,1103,"Include"
"SB2020_e1","SB2020_e1_11",1,"embargo",55,1,"FixedStudy",6,1211,"Include"
"SB2020_e1","SB2020_e1_11",1,"steamer",56,1,"FixedStudy",3,10536,"Include"
"SB2020_e1","SB2020_e1_11",1,"coolant",57,1,"FixedStudy",5,2699,"Include"
"SB2020_e1","SB2020_e1_11",1,"paradox",58,0,"FixedStudy",2,1632,"Include"
"SB2020_e1","SB2020_e1_11",1,"balcony",59,1,"FixedStudy",5,1864,"Include"
"SB2020_e1","SB2020_e1_11",1,"salvage",60,1,"FixedStudy",1,1384,"Include"
"SB2020_e1","SB2020_e1_11",1,"vitriol",61,1,"FixedStudy",6,1788,"Include"
"SB2020_e1","SB2020_e1_11",1,"parsley",62,0,"FixedStudy",6,2209,"Include"
"SB2020_e1","SB2020_e1_11",1,"oatmeal",63,1,"FixedStudy",6,850,"Include"
"SB2020_e1","SB2020_e1_11",1,"granary",64,1,"FixedStudy",6,2526,"Include"
"SB2020_e1","SB2020_e1_11",1,"skylark",65,0,"FixedStudy",1,1523,"Include"
"SB2020_e1","SB2020_e1_11",1,"epitaph ",66,1,"FixedStudy",3,6248,"Include"
"SB2020_e1","SB2020_e1_11",1,"package",67,0,"FixedStudy",4,1391,"Include"
"SB2020_e1","SB2020_e1_11",1,"spatter",68,1,"FixedStudy",2,2699,"Include"
"SB2020_e1","SB2020_e1_11",1,"decorum",69,0,"FixedStudy",3,3138,"Include"
"SB2020_e1","SB2020_e1_11",1,"calcium",70,1,"FixedStudy",6,3877,"Include"
"SB2020_e1","SB2020_e1_11",1,"romance",71,1,"FixedStudy",1,1350,"Include"
"SB2020_e1","SB2020_e1_11",1,"seepage",72,1,"FixedStudy",6,1583,"Include"
"SB2020_e1","SB2020_e1_11",1,"flutter",73,0,"FixedStudy",3,3756,"Include"
"SB2020_e1","SB2020_e1_11",1,"bravery",74,0,"FixedStudy",5,2489,"Include"
"SB2020_e1","SB2020_e1_11",1,"topping",75,1,"FixedStudy",4,3895,"Include"
"SB2020_e1","SB2020_e1_11",1,"silicon",76,0,"FixedStudy",6,1090,"Include"
"SB2020_e1","SB2020_e1_11",1,"analogy",77,0,"FixedStudy",1,1529,"Include"
"SB2020_e1","SB2020_e1_11",1,"firemen ",78,1,"FixedStudy",2,1362,"Include"
"SB2020_e1","SB2020_e1_11",1,"crystal",79,1,"FixedStudy",2,1221,"Include"
"SB2020_e1","SB2020_e1_11",1,"dungeon",80,1,"FixedStudy",4,5600,"Include"
"SB2020_e1","SB2020_e1_11",1,"nirvana",81,0,"FixedStudy",5,2160,"Include"
"SB2020_e1","SB2020_e1_11",1,"logging",82,0,"FixedStudy",1,1313,"Include"
"SB2020_e1","SB2020_e1_11",1,"mixture",83,0,"FixedStudy",1,1061,"Include"
"SB2020_e1","SB2020_e1_11",1,"nostril",84,0,"FixedStudy",1,737,"Include"
"SB2020_e1","SB2020_e1_11",1,"zoology",85,0,"FixedStudy",1,860,"Include"
"SB2020_e1","SB2020_e1_11",1,"adapter",86,0,"FixedStudy",6,1397,"Include"
"SB2020_e1","SB2020_e1_11",1,"sabbath",87,1,"FixedStudy",6,1709,"Include"
"SB2020_e1","SB2020_e1_11",1,"padlock",88,0,"FixedStudy",1,1169,"Include"
"SB2020_e1","SB2020_e1_11",1,"mooring",89,0,"FixedStudy",1,808,"Include"
"SB2020_e1","SB2020_e1_11",1,"bonanza",90,0,"FixedStudy",1,779,"Include"
"SB2020_e1","SB2020_e1_11",1,"triplet",91,1,"FixedStudy",6,1073,"Include"
"SB2020_e1","SB2020_e1_11",1,"lighter",92,1,"FixedStudy",1,1181,"Include"
"SB2020_e1","SB2020_e1_11",1,"symptom",93,1,"FixedStudy",6,1014,"Include"
"SB2020_e1","SB2020_e1_11",1,"currant",94,0,"FixedStudy",5,6070,"Include"
"SB2020_e1","SB2020_e1_11",1,"episode",95,1,"FixedStudy",2,1644,"Include"
"SB2020_e1","SB2020_e1_11",1,"bellows",96,0,"FixedStudy",1,857,"Include"
"SB2020_e1","SB2020_e1_11",1,"garland",97,1,"FixedStudy",5,2752,"Include"
"SB2020_e1","SB2020_e1_11",1,"reproof",98,0,"FixedStudy",1,1073,"Include"
"SB2020_e1","SB2020_e1_11",1,"monitor",99,1,"FixedStudy",1,725,"Include"
"SB2020_e1","SB2020_e1_11",1,"respite",100,0,"FixedStudy",1,765,"Include"
"SB2020_e1","SB2020_e1_11",1,"dynasty",101,0,"FixedStudy",1,700,"Include"
"SB2020_e1","SB2020_e1_11",1,"grandma",102,0,"FixedStudy",1,647,"Include"
"SB2020_e1","SB2020_e1_11",1,"abdomen",103,0,"FixedStudy",1,653,"Include"
"SB2020_e1","SB2020_e1_11",1,"crimson",104,1,"FixedStudy",5,1235,"Include"
"SB2020_e1","SB2020_e1_11",1,"brevity",105,1,"FixedStudy",1,790,"Include"
"SB2020_e1","SB2020_e1_11",1,"frontal",106,1,"FixedStudy",5,4309,"Include"
"SB2020_e1","SB2020_e1_11",1,"mockery",107,1,"FixedStudy",6,1667,"Include"
"SB2020_e1","SB2020_e1_11",1,"augment",108,1,"FixedStudy",6,1275,"Include"
"SB2020_e1","SB2020_e1_11",1,"scourge",109,0,"FixedStudy",1,1230,"Include"
"SB2020_e1","SB2020_e1_11",1,"crusade",110,1,"FixedStudy",6,1345,"Include"
"SB2020_e1","SB2020_e1_11",1,"culprit",111,0,"FixedStudy",6,1421,"Include"
"SB2020_e1","SB2020_e1_11",1,"auction",112,0,"FixedStudy",1,784,"Include"
"SB2020_e1","SB2020_e1_11",1,"leisure",113,0,"FixedStudy",1,1012,"Include"
"SB2020_e1","SB2020_e1_11",1,"rapport",114,0,"FixedStudy",1,1047,"Include"
"SB2020_e1","SB2020_e1_11",1,"presser",115,0,"FixedStudy",3,3049,"Include"
"SB2020_e1","SB2020_e1_11",1,"hutment",116,0,"FixedStudy",5,4428,"Include"
"SB2020_e1","SB2020_e1_11",1,"tempest",117,0,"FixedStudy",2,2064,"Include"
"SB2020_e1","SB2020_e1_11",1,"falsity",118,0,"FixedStudy",2,3655,"Include"
"SB2020_e1","SB2020_e1_11",1,"capitol",119,1,"FixedStudy",2,1746,"Include"
"SB2020_e1","SB2020_e1_11",1,"maudlin",120,0,"FixedStudy",2,838,"Include"
"SB2020_e1","SB2020_e1_11",1,"freight",121,0,"FixedStudy",2,2470,"Include"
"SB2020_e1","SB2020_e1_11",1,"sacking",122,1,"FixedStudy",2,2418,"Include"
"SB2020_e1","SB2020_e1_11",1,"impasse",123,0,"FixedStudy",2,1008,"Include"
"SB2020_e1","SB2020_e1_11",1,"showmen",124,0,"FixedStudy",4,3629,"Include"
"SB2020_e1","SB2020_e1_11",1,"forgery",125,1,"FixedStudy",3,1422,"Include"
"SB2020_e1","SB2020_e1_11",1,"outcome",126,0,"FixedStudy",1,1811,"Include"
"SB2020_e1","SB2020_e1_11",1,"entropy",127,0,"FixedStudy",1,1295,"Include"
"SB2020_e1","SB2020_e1_11",1,"geology",128,0,"FixedStudy",3,3919,"Include"
"SB2020_e1","SB2020_e1_11",1,"lobster",129,1,"FixedStudy",4,1331,"Include"
"SB2020_e1","SB2020_e1_11",1,"penalty",130,1,"FixedStudy",5,2183,"Include"
"SB2020_e1","SB2020_e1_11",1,"measles",131,1,"FixedStudy",5,2178,"Include"
"SB2020_e1","SB2020_e1_11",1,"sunrise",132,1,"FixedStudy",3,2382,"Include"
"SB2020_e1","SB2020_e1_11",1,"leather",133,1,"FixedStudy",3,1398,"Include"
"SB2020_e1","SB2020_e1_11",1,"realism",134,1,"FixedStudy",3,5870,"Include"
"SB2020_e1","SB2020_e1_11",1,"wastrel",135,0,"FixedStudy",5,2351,"Include"
"SB2020_e1","SB2020_e1_11",1,"haircut",136,0,"FixedStudy",3,2094,"Include"
"SB2020_e1","SB2020_e1_11",1,"fluency",137,0,"FixedStudy",2,9323,"Include"
"SB2020_e1","SB2020_e1_11",1,"tuscany",138,1,"FixedStudy",2,653,"Include"
"SB2020_e1","SB2020_e1_11",1,"thicket",139,0,"FixedStudy",2,744,"Include"
"SB2020_e1","SB2020_e1_11",1,"hickory",140,1,"FixedStudy",2,1439,"Include"
"SB2020_e1","SB2020_e1_11",1,"spencer",141,1,"FixedStudy",2,1696,"Include"
"SB2020_e1","SB2020_e1_11",1,"marquis",142,0,"FixedStudy",1,4386,"Include"
"SB2020_e1","SB2020_e1_11",1,"urethra",143,0,"FixedStudy",1,723,"Include"
"SB2020_e1","SB2020_e1_11",1,"cordial",144,0,"FixedStudy",1,676,"Include"
"SB2020_e1","SB2020_e1_11",1,"entrant ",145,0,"FixedStudy",5,2298,"Include"
"SB2020_e1","SB2020_e1_11",1,"treason",146,0,"FixedStudy",1,839,"Include"
"SB2020_e1","SB2020_e1_11",1,"avidity",147,1,"FixedStudy",1,1096,"Include"
"SB2020_e1","SB2020_e1_11",1,"trailer",148,0,"FixedStudy",1,652,"Include"
"SB2020_e1","SB2020_e1_11",1,"sequoia",149,1,"FixedStudy",1,845,"Include"
"SB2020_e1","SB2020_e1_11",1,"rampage",150,1,"FixedStudy",6,1590,"Include"
"SB2020_e1","SB2020_e1_11",1,"pension",151,1,"FixedStudy",1,1463,"Include"
"SB2020_e1","SB2020_e1_11",1,"carrier",152,0,"FixedStudy",4,3227,"Include"
"SB2020_e1","SB2020_e1_11",1,"reducer",153,0,"FixedStudy",3,2004,"Include"
"SB2020_e1","SB2020_e1_11",1,"sheriff",154,0,"FixedStudy",3,1138,"Include"
"SB2020_e1","SB2020_e1_11",1,"shutter",155,1,"FixedStudy",3,940,"Include"
"SB2020_e1","SB2020_e1_11",1,"posture",156,0,"FixedStudy",3,4326,"Include"
"SB2020_e1","SB2020_e1_11",1,"upsurge",157,0,"FixedStudy",3,834,"Include"
"SB2020_e1","SB2020_e1_11",1,"sapling",158,1,"FixedStudy",3,1326,"Include"
"SB2020_e1","SB2020_e1_11",1,"realist",159,0,"FixedStudy",4,2508,"Include"
"SB2020_e1","SB2020_e1_11",1,"torment",160,1,"FixedStudy",5,3535,"Include"
"SB2020_e1","SB2020_e1_11",1,"bayonet",161,1,"FixedStudy",5,1287,"Include"
"SB2020_e1","SB2020_e1_11",1,"shudder",162,1,"FixedStudy",5,994,"Include"
"SB2020_e1","SB2020_e1_11",1,"typhoon",163,1,"FixedStudy",5,1097,"Include"
"SB2020_e1","SB2020_e1_11",1,"extract",164,0,"FixedStudy",2,2418,"Include"
"SB2020_e1","SB2020_e1_11",1,"bellman",165,1,"FixedStudy",2,4645,"Include"
"SB2020_e1","SB2020_e1_11",1,"boyhood",166,1,"FixedStudy",5,5911,"Include"
"SB2020_e1","SB2020_e1_11",1,"ketchup",167,1,"FixedStudy",2,1854,"Include"
"SB2020_e1","SB2020_e1_11",1,"autopsy",168,0,"FixedStudy",1,2352,"Include"
"SB2020_e1","SB2020_e1_11",1,"seventy",169,0,"FixedStudy",1,580,"Include"
"SB2020_e1","SB2020_e1_11",1,"upright",170,0,"FixedStudy",5,1367,"Include"
"SB2020_e1","SB2020_e1_11",1,"railway",171,1,"FixedStudy",1,3546,"Include"
"SB2020_e1","SB2020_e1_11",1,"triumph",172,0,"FixedStudy",1,695,"Include"
"SB2020_e1","SB2020_e1_11",1,"outpost",173,0,"FixedStudy",1,785,"Include"
"SB2020_e1","SB2020_e1_11",1,"fallacy",174,1,"FixedStudy",5,2292,"Include"
"SB2020_e1","SB2020_e1_11",1,"anagram",175,1,"FixedStudy",1,767,"Include"
"SB2020_e1","SB2020_e1_11",1,"brothel",176,1,"FixedStudy",1,867,"Include"
"SB2020_e1","SB2020_e1_11",1,"alchemy",177,0,"FixedStudy",1,777,"Include"
"SB2020_e1","SB2020_e1_11",1,"wrinkle",178,1,"FixedStudy",4,2124,"Include"
"SB2020_e1","SB2020_e1_11",1,"refugee",179,1,"FixedStudy",3,1563,"Include"
"SB2020_e1","SB2020_e1_11",1,"parable",180,0,"FixedStudy",3,1200,"Include"
"SB2020_e1","SB2020_e1_11",1,"expanse",181,1,"FixedStudy",4,1852,"Include"
"SB2020_e1","SB2020_e1_11",1,"forearm",182,1,"FixedStudy",3,1553,"Include"
"SB2020_e1","SB2020_e1_11",1,"heathen",183,1,"FixedStudy",3,941,"Include"
"SB2020_e1","SB2020_e1_11",1,"inquiry",184,0,"FixedStudy",4,1300,"Include"
"SB2020_e1","SB2020_e1_11",1,"dissent",185,1,"FixedStudy",6,1355,"Include"
"SB2020_e1","SB2020_e1_11",1,"trinket",186,1,"FixedStudy",6,935,"Include"
"SB2020_e1","SB2020_e1_11",1,"twinkle",187,0,"FixedStudy",2,4812,"Include"
"SB2020_e1","SB2020_e1_11",1,"judaism",188,1,"FixedStudy",1,706,"Include"
"SB2020_e1","SB2020_e1_11",1,"volcano",189,0,"FixedStudy",1,1048,"Include"
"SB2020_e1","SB2020_e1_11",1,"chassis",190,0,"FixedStudy",1,549,"Include"
"SB2020_e1","SB2020_e1_11",1,"holster",191,0,"FixedStudy",6,1462,"Include"
"SB2020_e1","SB2020_e1_11",1,"persona",192,1,"FixedStudy",6,1042,"Include"
"SB2020_e1","SB2020_e1_11",1,"preface",193,0,"FixedStudy",1,797,"Include"
"SB2020_e1","SB2020_e1_11",1,"plateau",194,1,"FixedStudy",1,690,"Include"
"SB2020_e1","SB2020_e1_11",1,"overall",195,0,"FixedStudy",1,604,"Include"
"SB2020_e1","SB2020_e1_11",1,"manhood",196,1,"FixedStudy",1,628,"Include"
"SB2020_e1","SB2020_e1_11",1,"venison",197,1,"FixedStudy",1,1107,"Include"
"SB2020_e1","SB2020_e1_11",1,"cottage",198,1,"FixedStudy",1,1199,"Include"
"SB2020_e1","SB2020_e1_11",1,"asiatic",199,0,"FixedStudy",1,1133,"Include"
"SB2020_e1","SB2020_e1_11",1,"belgian",200,1,"FixedStudy",1,1751,"Include"
"SB2020_e1","SB2020_e1_11",1,"racquet",201,1,"FixedStudy",1,1386,"Include"
"SB2020_e1","SB2020_e1_11",1,"crusher",202,1,"FixedStudy",1,1560,"Include"
"SB2020_e1","SB2020_e1_11",1,"martini",203,1,"FixedStudy",1,1414,"Include"
"SB2020_e1","SB2020_e1_11",1,"variant",204,1,"FixedStudy",1,681,"Include"
"SB2020_e1","SB2020_e1_11",1,"widower",205,0,"FixedStudy",1,1193,"Include"
"SB2020_e1","SB2020_e1_11",1,"cathode",206,1,"FixedStudy",5,6248,"Include"
"SB2020_e1","SB2020_e1_11",1,"divider",207,0,"FixedStudy",1,995,"Include"
"SB2020_e1","SB2020_e1_11",1,"migrant",208,1,"FixedStudy",3,1481,"Include"
"SB2020_e1","SB2020_e1_11",1,"protest",209,1,"FixedStudy",3,1270,"Include"
"SB2020_e1","SB2020_e1_11",1,"bouquet",210,0,"FixedStudy",3,1205,"Include"
"SB2020_e1","SB2020_e1_11",1,"vibrant",211,1,"FixedStudy",3,1685,"Include"
"SB2020_e1","SB2020_e1_11",1,"modicum",212,0,"FixedStudy",6,2052,"Include"
"SB2020_e1","SB2020_e1_11",1,"sojourn",213,1,"FixedStudy",1,1626,"Include"
"SB2020_e1","SB2020_e1_11",1,"cruiser",214,1,"FixedStudy",5,1385,"Include"
"SB2020_e1","SB2020_e1_11",1,"larceny",215,0,"FixedStudy",5,2521,"Include"
"SB2020_e1","SB2020_e1_11",1,"heiress",216,0,"FixedStudy",1,1086,"Include"
"SB2020_e1","SB2020_e1_11",1,"belting",217,1,"FixedStudy",1,844,"Include"
"SB2020_e1","SB2020_e1_11",1,"verdict",218,0,"FixedStudy",1,951,"Include"
"SB2020_e1","SB2020_e1_11",1,"lioness",219,0,"FixedStudy",1,929,"Include"
"SB2020_e1","SB2020_e1_11",1,"hostess",220,0,"FixedStudy",1,617,"Include"
"SB2020_e1","SB2020_e1_11",1,"tidings",221,0,"FixedStudy",1,1066,"Include"
"SB2020_e1","SB2020_e1_11",1,"regalia",222,1,"FixedStudy",6,916,"Include"
"SB2020_e1","SB2020_e1_11",1,"marshal",223,0,"FixedStudy",1,627,"Include"
"SB2020_e1","SB2020_e1_11",1,"affront",224,1,"FixedStudy",1,951,"Include"
"SB2020_e1","SB2020_e1_11",1,"atrophy",225,0,"FixedStudy",1,760,"Include"
"SB2020_e1","SB2020_e1_11",1,"tactics",226,0,"FixedStudy",1,695,"Include"
"SB2020_e1","SB2020_e1_11",1,"capsule",227,0,"FixedStudy",1,1061,"Include"
"SB2020_e1","SB2020_e1_11",1,"compass",228,0,"FixedStudy",1,736,"Include"
"SB2020_e1","SB2020_e1_11",1,"recluse",229,1,"FixedStudy",6,1498,"Include"
"SB2020_e1","SB2020_e1_11",1,"alimony",230,0,"FixedStudy",1,648,"Include"
"SB2020_e1","SB2020_e1_11",1,"referee",231,1,"FixedStudy",6,1403,"Include"
"SB2020_e1","SB2020_e1_11",1,"apology",232,0,"FixedStudy",1,556,"Include"
"SB2020_e1","SB2020_e1_11",1,"stylist",233,1,"FixedStudy",1,761,"Include"
"SB2020_e1","SB2020_e1_11",1,"thimble",234,0,"FixedStudy",1,513,"Include"
"SB2020_e1","SB2020_e1_11",1,"fielder",235,0,"FixedStudy",1,598,"Include"
"SB2020_e1","SB2020_e1_11",1,"villain",236,1,"FixedStudy",1,520,"Include"
"SB2020_e1","SB2020_e1_11",1,"midwife",237,0,"FixedStudy",1,677,"Include"
"SB2020_e1","SB2020_e1_11",1,"fanfare",238,1,"FixedStudy",6,661,"Include"
"SB2020_e1","SB2020_e1_11",1,"rigging",239,0,"FixedStudy",1,1198,"Include"
"SB2020_e1","SB2020_e1_11",1,"kiloton",240,1,"FixedStudy",1,718,"Include"
"SB2020_e1","SB2020_e1_11",1,"peasant",241,0,"FixedStudy",6,816,"Include"
"SB2020_e1","SB2020_e1_11",1,"blemish",242,0,"FixedStudy",1,809,"Include"
"SB2020_e1","SB2020_e1_11",1,"clarity",243,0,"FixedStudy",1,868,"Include"
"SB2020_e1","SB2020_e1_11",1,"insight",244,0,"FixedStudy",1,910,"Include"
"SB2020_e1","SB2020_e1_11",1,"ottoman",245,1,"FixedStudy",5,1582,"Include"
"SB2020_e1","SB2020_e1_11",1,"derrick",246,1,"FixedStudy",5,1060,"Include"
"SB2020_e1","SB2020_e1_11",1,"erosion",247,0,"FixedStudy",5,1444,"Include"
"SB2020_e1","SB2020_e1_11",1,"convict",248,0,"FixedStudy",1,842,"Include"
"SB2020_e1","SB2020_e1_11",1,"sputter",249,0,"FixedStudy",6,1613,"Include"
"SB2020_e1","SB2020_e1_11",1,"titular",250,1,"FixedStudy",6,1572,"Include"
"SB2020_e1","SB2020_e1_11",1,"gallows",251,1,"FixedStudy",1,545,"Include"
"SB2020_e1","SB2020_e1_11",1,"regimen",252,0,"FixedStudy",6,1150,"Include"
"SB2020_e1","SB2020_e1_11",1,"conduit",253,1,"FixedStudy",1,721,"Include"
"SB2020_e1","SB2020_e1_11",1,"pajamas",254,1,"FixedStudy",1,1031,"Include"
"SB2020_e1","SB2020_e1_11",1,"lineage",255,0,"FixedStudy",1,1828,"Include"
"SB2020_e1","SB2020_e1_11",1,"fireman",256,1,"FixedStudy",6,1372,"Include"
"SB2020_e1","SB2020_e1_11",1,"bracken",257,0,"FixedStudy",6,1231,"Include"
"SB2020_e1","SB2020_e1_11",1,"politic",258,1,"FixedStudy",1,640,"Include"
"SB2020_e1","SB2020_e1_11",1,"trooper",259,1,"FixedStudy",6,1019,"Include"
"SB2020_e1","SB2020_e1_11",1,"retreat",260,1,"FixedStudy",6,2177,"Include"
"SB2020_e1","SB2020_e1_11",2,"uranium",1,1,"VariableStudy",6,4981,"Include"
"SB2020_e1","SB2020_e1_11",2,"upright",2,0,"VariableStudy",1,1139,"Include"
"SB2020_e1","SB2020_e1_11",2,"fireman",3,1,"VariableStudy",6,812,"Include"
"SB2020_e1","SB2020_e1_11",2,"penalty",4,1,"VariableStudy",6,2613,"Include"
"SB2020_e1","SB2020_e1_11",2,"triumph",5,0,"VariableStudy",6,1396,"Include"
"SB2020_e1","SB2020_e1_11",2,"dungeon",6,1,"VariableStudy",6,960,"Include"
"SB2020_e1","SB2020_e1_11",2,"swahili",7,0,"VariableStudy",1,680,"Include"
"SB2020_e1","SB2020_e1_11",2,"sequoia",8,1,"VariableStudy",1,806,"Include"
"SB2020_e1","SB2020_e1_11",2,"forearm",9,1,"VariableStudy",6,1102,"Include"
"SB2020_e1","SB2020_e1_11",2,"manhood",10,1,"VariableStudy",6,965,"Include"
"SB2020_e1","SB2020_e1_11",2,"derrick",11,1,"VariableStudy",6,701,"Include"
"SB2020_e1","SB2020_e1_11",2,"flannel",12,0,"VariableStudy",1,842,"Include"
"SB2020_e1","SB2020_e1_11",2,"salvage",13,1,"VariableStudy",1,1517,"Include"
"SB2020_e1","SB2020_e1_11",2,"persona",14,1,"VariableStudy",1,1378,"Include"
"SB2020_e1","SB2020_e1_11",2,"tidings",15,0,"VariableStudy",6,1031,"Include"
"SB2020_e1","SB2020_e1_11",2,"nirvana",16,0,"VariableStudy",1,904,"Include"
"SB2020_e1","SB2020_e1_11",2,"vitriol",17,1,"VariableStudy",1,712,"Include"
"SB2020_e1","SB2020_e1_11",2,"stimuli",18,1,"VariableStudy",1,821,"Include"
"SB2020_e1","SB2020_e1_11",2,"grandma",19,0,"VariableStudy",1,659,"Include"
"SB2020_e1","SB2020_e1_11",2,"pension",20,1,"VariableStudy",1,971,"Include"
"SB2020_e1","SB2020_e1_11",2,"brewery",21,1,"VariableStudy",1,706,"Include"
"SB2020_e1","SB2020_e1_11",2,"chopper",22,0,"VariableStudy",6,1469,"Include"
"SB2020_e1","SB2020_e1_11",2,"oatmeal",23,1,"VariableStudy",1,1066,"Include"
"SB2020_e1","SB2020_e1_11",2,"leather",24,1,"VariableStudy",6,2652,"Include"
"SB2020_e1","SB2020_e1_11",2,"frontal",25,1,"VariableStudy",6,859,"Include"
"SB2020_e1","SB2020_e1_11",2,"episode",26,1,"VariableStudy",1,924,"Include"
"SB2020_e1","SB2020_e1_11",2,"carrier",27,0,"VariableStudy",1,894,"Include"
"SB2020_e1","SB2020_e1_11",2,"convict",28,0,"VariableStudy",1,771,"Include"
