"exp","id","block","item","trial","isold","condition1","rating","RT","excluding"
"SB2020_e2","SB2020_e2_1",1,"66",1,1,"FixedIntervalNback",4,4244,"Include"
"SB2020_e2","SB2020_e2_1",1,"130",2,1,"FixedIntervalNback",6,2968,"Include"
"SB2020_e2","SB2020_e2_1",1,"33",3,1,"FixedIntervalNback",5,2746,"Include"
"SB2020_e2","SB2020_e2_1",1,"327",4,0,"FixedIntervalNback",3,3043,"Include"
"SB2020_e2","SB2020_e2_1",1,"285",5,0,"FixedIntervalNback",3,1677,"Include"
"SB2020_e2","SB2020_e2_1",1,"90",6,1,"FixedIntervalNback",5,2185,"Include"
"SB2020_e2","SB2020_e2_1",1,"278",7,0,"FixedIntervalNback",2,2757,"Include"
"SB2020_e2","SB2020_e2_1",1,"272",8,0,"FixedIntervalNback",3,2287,"Include"
"SB2020_e2","SB2020_e2_1",1,"8",9,1,"FixedIntervalNback",2,2595,"Include"
"SB2020_e2","SB2020_e2_1",1,"124",10,1,"FixedIntervalNback",2,2164,"Include"
"SB2020_e2","SB2020_e2_1",1,"95",11,1,"FixedIntervalNback",3,2334,"Include"
"SB2020_e2","SB2020_e2_1",1,"22",12,1,"FixedIntervalNback",5,1997,"Include"
"SB2020_e2","SB2020_e2_1",1,"298",13,0,"FixedIntervalNback",2,1226,"Include"
"SB2020_e2","SB2020_e2_1",1,"59",14,1,"FixedIntervalNback",1,1259,"Include"
"SB2020_e2","SB2020_e2_1",1,"67",15,1,"FixedIntervalNback",5,1332,"Include"
"SB2020_e2","SB2020_e2_1",1,"294",16,0,"FixedIntervalNback",3,2112,"Include"
"SB2020_e2","SB2020_e2_1",1,"347",17,0,"FixedIntervalNback",4,1333,"Include"
"SB2020_e2","SB2020_e2_1",1,"109",18,1,"FixedIntervalNback",5,1728,"Include"
"SB2020_e2","SB2020_e2_1",1,"45",19,1,"FixedIntervalNback",4,1141,"Include"
"SB2020_e2","SB2020_e2_1",1,"34",20,1,"FixedIntervalNback",5,1350,"Include"
"SB2020_e2","SB2020_e2_1",1,"304",21,0,"FixedIntervalNback",4,1143,"Include"
"SB2020_e2","SB2020_e2_1",1,"103",22,1,"FixedIntervalNback",6,1110,"Include"
"SB2020_e2","SB2020_e2_1",1,"266",23,0,"FixedIntervalNback",6,1197,"Include"
"SB2020_e2","SB2020_e2_1",1,"281",24,0,"FixedIntervalNback",3,1776,"Include"
"SB2020_e2","SB2020_e2_1",1,"340",25,0,"FixedIntervalNback",4,1712,"Include"
"SB2020_e2","SB2020_e2_1",1,"364",26,0,"FixedIntervalNback",3,1225,"Include"
"SB2020_e2","SB2020_e2_1",1,"360",27,0,"FixedIntervalNback",3,1095,"Include"
"SB2020_e2","SB2020_e2_1",1,"63",28,1,"FixedIntervalNback",4,967,"Include"
"SB2020_e2","SB2020_e2_1",1,"85",29,1,"FixedIntervalNback",3,740,"Include"
"SB2020_e2","SB2020_e2_1",1,"283",30,0,"FixedIntervalNback",3,1822,"Include"
"SB2020_e2","SB2020_e2_1",1,"17",31,1,"FixedIntervalNback",5,1396,"Include"
"SB2020_e2","SB2020_e2_1",1,"277",32,0,"FixedIntervalNback",3,1306,"Include"
"SB2020_e2","SB2020_e2_1",1,"4",33,1,"FixedIntervalNback",5,1215,"Include"
"SB2020_e2","SB2020_e2_1",1,"387",34,0,"FixedIntervalNback",3,1250,"Include"
"SB2020_e2","SB2020_e2_1",1,"306",35,0,"FixedIntervalNback",3,1430,"Include"
"SB2020_e2","SB2020_e2_1",1,"348",36,0,"FixedIntervalNback",3,1239,"Include"
"SB2020_e2","SB2020_e2_1",1,"50",37,1,"FixedIntervalNback",5,1767,"Include"
"SB2020_e2","SB2020_e2_1",1,"5",38,1,"FixedIntervalNback",6,1587,"Include"
"SB2020_e2","SB2020_e2_1",1,"11",39,1,"FixedIntervalNback",6,1157,"Include"
"SB2020_e2","SB2020_e2_1",1,"71",40,1,"FixedIntervalNback",5,1219,"Include"
"SB2020_e2","SB2020_e2_1",1,"110",41,1,"FixedIntervalNback",4,1716,"Include"
"SB2020_e2","SB2020_e2_1",1,"76",42,1,"FixedIntervalNback",3,3159,"Include"
"SB2020_e2","SB2020_e2_1",1,"325",43,0,"FixedIntervalNback",3,990,"Include"
"SB2020_e2","SB2020_e2_1",1,"361",44,0,"FixedIntervalNback",3,1142,"Include"
"SB2020_e2","SB2020_e2_1",1,"310",45,0,"FixedIntervalNback",3,1126,"Include"
"SB2020_e2","SB2020_e2_1",1,"26",46,1,"FixedIntervalNback",4,1053,"Include"
"SB2020_e2","SB2020_e2_1",1,"308",47,0,"FixedIntervalNback",3,2028,"Include"
"SB2020_e2","SB2020_e2_1",1,"82",48,1,"FixedIntervalNback",5,842,"Include"
"SB2020_e2","SB2020_e2_1",1,"112",49,1,"FixedIntervalNback",3,1149,"Include"
"SB2020_e2","SB2020_e2_1",1,"119",50,1,"FixedIntervalNback",5,1194,"Include"
"SB2020_e2","SB2020_e2_1",1,"70",51,1,"FixedIntervalNback",5,1010,"Include"
"SB2020_e2","SB2020_e2_1",1,"20",52,1,"FixedIntervalNback",4,1129,"Include"
"SB2020_e2","SB2020_e2_1",1,"16",53,1,"FixedIntervalNback",3,977,"Include"
"SB2020_e2","SB2020_e2_1",1,"41",54,1,"FixedIntervalNback",6,1918,"Include"
"SB2020_e2","SB2020_e2_1",1,"301",55,0,"FixedIntervalNback",3,1403,"Include"
"SB2020_e2","SB2020_e2_1",1,"27",56,1,"FixedIntervalNback",5,1046,"Include"
"SB2020_e2","SB2020_e2_1",1,"375",57,0,"FixedIntervalNback",2,1167,"Include"
"SB2020_e2","SB2020_e2_1",1,"384",58,0,"FixedIntervalNback",3,1213,"Include"
"SB2020_e2","SB2020_e2_1",1,"286",59,0,"FixedIntervalNback",4,904,"Include"
"SB2020_e2","SB2020_e2_1",1,"359",60,0,"FixedIntervalNback",4,2114,"Include"
"SB2020_e2","SB2020_e2_1",1,"290",61,0,"FixedIntervalNback",3,980,"Include"
"SB2020_e2","SB2020_e2_1",1,"35",62,1,"FixedIntervalNback",3,1179,"Include"
"SB2020_e2","SB2020_e2_1",1,"48",63,1,"FixedIntervalNback",6,1352,"Include"
"SB2020_e2","SB2020_e2_1",1,"339",64,0,"FixedIntervalNback",3,1125,"Include"
"SB2020_e2","SB2020_e2_1",1,"291",65,0,"FixedIntervalNback",4,802,"Include"
"SB2020_e2","SB2020_e2_1",1,"102",66,1,"FixedIntervalNback",5,1301,"Include"
"SB2020_e2","SB2020_e2_1",1,"97",67,1,"FixedIntervalNback",4,938,"Include"
"SB2020_e2","SB2020_e2_1",1,"61",68,1,"FixedIntervalNback",4,2259,"Include"
"SB2020_e2","SB2020_e2_1",1,"305",69,0,"FixedIntervalNback",3,910,"Include"
"SB2020_e2","SB2020_e2_1",1,"23",70,1,"FixedIntervalNback",6,1374,"Include"
"SB2020_e2","SB2020_e2_1",1,"373",71,0,"FixedIntervalNback",3,1119,"Include"
"SB2020_e2","SB2020_e2_1",1,"299",72,0,"FixedIntervalNback",3,1177,"Include"
"SB2020_e2","SB2020_e2_1",1,"68",73,1,"FixedIntervalNback",3,2727,"Include"
"SB2020_e2","SB2020_e2_1",1,"350",74,0,"FixedIntervalNback",3,1133,"Include"
"SB2020_e2","SB2020_e2_1",1,"127",75,1,"FixedIntervalNback",4,1589,"Include"
"SB2020_e2","SB2020_e2_1",1,"365",76,0,"FixedIntervalNback",3,1032,"Include"
"SB2020_e2","SB2020_e2_1",1,"264",77,0,"FixedIntervalNback",3,1014,"Include"
"SB2020_e2","SB2020_e2_1",1,"270",78,0,"FixedIntervalNback",4,705,"Include"
"SB2020_e2","SB2020_e2_1",1,"276",79,0,"FixedIntervalNback",3,936,"Include"
"SB2020_e2","SB2020_e2_1",1,"43",80,1,"FixedIntervalNback",4,826,"Include"
"SB2020_e2","SB2020_e2_1",1,"303",81,0,"FixedIntervalNback",3,1348,"Include"
"SB2020_e2","SB2020_e2_1",1,"390",82,0,"FixedIntervalNback",3,711,"Include"
"SB2020_e2","SB2020_e2_1",1,"74",83,1,"FixedIntervalNback",4,730,"Include"
"SB2020_e2","SB2020_e2_1",1,"334",84,0,"FixedIntervalNback",4,1616,"Include"
"SB2020_e2","SB2020_e2_1",1,"113",85,1,"FixedIntervalNback",5,1139,"Include"
"SB2020_e2","SB2020_e2_1",1,"86",86,1,"FixedIntervalNback",4,1157,"Include"
"SB2020_e2","SB2020_e2_1",1,"93",87,1,"FixedIntervalNback",5,1157,"Include"
"SB2020_e2","SB2020_e2_1",1,"54",88,1,"FixedIntervalNback",5,882,"Include"
"SB2020_e2","SB2020_e2_1",1,"29",89,1,"FixedIntervalNback",6,1151,"Include"
"SB2020_e2","SB2020_e2_1",1,"352",90,0,"FixedIntervalNback",3,1687,"Include"
"SB2020_e2","SB2020_e2_1",1,"81",91,1,"FixedIntervalNback",4,3261,"Include"
"SB2020_e2","SB2020_e2_1",1,"317",92,0,"FixedIntervalNback",3,1180,"Include"
"SB2020_e2","SB2020_e2_1",1,"335",93,0,"FixedIntervalNback",3,961,"Include"
"SB2020_e2","SB2020_e2_1",1,"104",94,1,"FixedIntervalNback",4,927,"Include"
"SB2020_e2","SB2020_e2_1",1,"374",95,0,"FixedIntervalNback",5,1380,"Include"
"SB2020_e2","SB2020_e2_1",1,"84",96,1,"FixedIntervalNback",4,1261,"Include"
"SB2020_e2","SB2020_e2_1",1,"331",97,0,"FixedIntervalNback",3,1092,"Include"
"SB2020_e2","SB2020_e2_1",1,"117",98,1,"FixedIntervalNback",3,814,"Include"
"SB2020_e2","SB2020_e2_1",1,"106",99,1,"FixedIntervalNback",4,811,"Include"
"SB2020_e2","SB2020_e2_1",1,"53",100,1,"FixedIntervalNback",4,694,"Include"
"SB2020_e2","SB2020_e2_1",1,"275",101,0,"FixedIntervalNback",3,844,"Include"
"SB2020_e2","SB2020_e2_1",1,"92",102,1,"FixedIntervalNback",5,1347,"Include"
"SB2020_e2","SB2020_e2_1",1,"98",103,1,"FixedIntervalNback",2,2065,"Include"
"SB2020_e2","SB2020_e2_1",1,"353",104,0,"FixedIntervalNback",3,950,"Include"
"SB2020_e2","SB2020_e2_1",1,"355",105,0,"FixedIntervalNback",3,1320,"Include"
"SB2020_e2","SB2020_e2_1",1,"12",106,1,"FixedIntervalNback",3,1370,"Include"
"SB2020_e2","SB2020_e2_1",1,"319",107,0,"FixedIntervalNback",3,1332,"Include"
"SB2020_e2","SB2020_e2_1",1,"280",108,0,"FixedIntervalNback",3,1635,"Include"
"SB2020_e2","SB2020_e2_1",1,"289",109,0,"FixedIntervalNback",3,1782,"Include"
"SB2020_e2","SB2020_e2_1",1,"122",110,1,"FixedIntervalNback",3,1023,"Include"
"SB2020_e2","SB2020_e2_1",1,"55",111,1,"FixedIntervalNback",4,1313,"Include"
"SB2020_e2","SB2020_e2_1",1,"295",112,0,"FixedIntervalNback",4,741,"Include"
"SB2020_e2","SB2020_e2_1",1,"371",113,0,"FixedIntervalNback",4,2471,"Include"
"SB2020_e2","SB2020_e2_1",1,"326",114,0,"FixedIntervalNback",3,1080,"Include"
"SB2020_e2","SB2020_e2_1",1,"296",115,0,"FixedIntervalNback",3,1791,"Include"
"SB2020_e2","SB2020_e2_1",1,"88",116,1,"FixedIntervalNback",3,1287,"Include"
"SB2020_e2","SB2020_e2_1",1,"380",117,0,"FixedIntervalNback",4,929,"Include"
"SB2020_e2","SB2020_e2_1",1,"389",118,0,"FixedIntervalNback",3,932,"Include"
"SB2020_e2","SB2020_e2_1",1,"49",119,1,"FixedIntervalNback",5,1239,"Include"
"SB2020_e2","SB2020_e2_1",1,"13",120,1,"FixedIntervalNback",4,995,"Include"
"SB2020_e2","SB2020_e2_1",1,"366",121,0,"FixedIntervalNback",3,1202,"Include"
"SB2020_e2","SB2020_e2_1",1,"114",122,1,"FixedIntervalNback",3,1149,"Include"
"SB2020_e2","SB2020_e2_1",1,"32",123,1,"FixedIntervalNback",3,924,"Include"
"SB2020_e2","SB2020_e2_1",1,"349",124,0,"FixedIntervalNback",3,1312,"Include"
"SB2020_e2","SB2020_e2_1",1,"345",125,0,"FixedIntervalNback",3,1724,"Include"
"SB2020_e2","SB2020_e2_1",1,"313",126,0,"FixedIntervalNback",3,1216,"Include"
"SB2020_e2","SB2020_e2_1",1,"342",127,0,"FixedIntervalNback",3,1047,"Include"
"SB2020_e2","SB2020_e2_1",1,"372",128,0,"FixedIntervalNback",4,1003,"Include"
"SB2020_e2","SB2020_e2_1",1,"262",129,0,"FixedIntervalNback",2,1420,"Include"
"SB2020_e2","SB2020_e2_1",1,"287",130,0,"FixedIntervalNback",4,1514,"Include"
"SB2020_e2","SB2020_e2_1",1,"328",131,0,"FixedIntervalNback",4,2282,"Include"
"SB2020_e2","SB2020_e2_1",1,"376",132,0,"FixedIntervalNback",4,1146,"Include"
"SB2020_e2","SB2020_e2_1",1,"311",133,0,"FixedIntervalNback",1,1340,"Include"
"SB2020_e2","SB2020_e2_1",1,"297",134,0,"FixedIntervalNback",2,1384,"Include"
"SB2020_e2","SB2020_e2_1",1,"30",135,1,"FixedIntervalNback",6,1667,"Include"
"SB2020_e2","SB2020_e2_1",1,"37",136,1,"FixedIntervalNback",4,1006,"Include"
"SB2020_e2","SB2020_e2_1",1,"62",137,1,"FixedIntervalNback",6,1067,"Include"
"SB2020_e2","SB2020_e2_1",1,"120",138,1,"FixedIntervalNback",5,1809,"Include"
"SB2020_e2","SB2020_e2_1",1,"1",139,1,"FixedIntervalNback",3,2016,"Include"
"SB2020_e2","SB2020_e2_1",1,"284",140,0,"FixedIntervalNback",4,2512,"Include"
"SB2020_e2","SB2020_e2_1",1,"126",141,1,"FixedIntervalNback",5,2323,"Include"
"SB2020_e2","SB2020_e2_1",1,"125",142,1,"FixedIntervalNback",6,1112,"Include"
"SB2020_e2","SB2020_e2_1",1,"265",143,0,"FixedIntervalNback",4,942,"Include"
"SB2020_e2","SB2020_e2_1",1,"72",144,1,"FixedIntervalNback",4,1215,"Include"
"SB2020_e2","SB2020_e2_1",1,"273",145,0,"FixedIntervalNback",3,1556,"Include"
"SB2020_e2","SB2020_e2_1",1,"105",146,1,"FixedIntervalNback",5,1620,"Include"
"SB2020_e2","SB2020_e2_1",1,"31",147,1,"FixedIntervalNback",5,1157,"Include"
"SB2020_e2","SB2020_e2_1",1,"65",148,1,"FixedIntervalNback",6,970,"Include"
"SB2020_e2","SB2020_e2_1",1,"36",149,1,"FixedIntervalNback",6,966,"Include"
"SB2020_e2","SB2020_e2_1",1,"44",150,1,"FixedIntervalNback",4,2042,"Include"
"SB2020_e2","SB2020_e2_1",1,"116",151,1,"FixedIntervalNback",3,1185,"Include"
"SB2020_e2","SB2020_e2_1",1,"358",152,0,"FixedIntervalNback",3,793,"Include"
"SB2020_e2","SB2020_e2_1",1,"309",153,0,"FixedIntervalNback",3,677,"Include"
"SB2020_e2","SB2020_e2_1",1,"14",154,1,"FixedIntervalNback",2,2027,"Include"
"SB2020_e2","SB2020_e2_1",1,"261",155,0,"FixedIntervalNback",2,732,"Include"
"SB2020_e2","SB2020_e2_1",1,"15",156,1,"FixedIntervalNback",4,1369,"Include"
"SB2020_e2","SB2020_e2_1",1,"307",157,0,"FixedIntervalNback",3,1222,"Include"
"SB2020_e2","SB2020_e2_1",1,"51",158,1,"FixedIntervalNback",5,1185,"Include"
"SB2020_e2","SB2020_e2_1",1,"24",159,1,"FixedIntervalNback",4,1104,"Include"
"SB2020_e2","SB2020_e2_1",1,"341",160,0,"FixedIntervalNback",5,1060,"Include"
"SB2020_e2","SB2020_e2_1",1,"87",161,1,"FixedIntervalNback",3,1328,"Include"
"SB2020_e2","SB2020_e2_1",1,"79",162,1,"FixedIntervalNback",6,1827,"Include"
"SB2020_e2","SB2020_e2_1",1,"38",163,1,"FixedIntervalNback",4,1182,"Include"
"SB2020_e2","SB2020_e2_1",1,"329",164,0,"FixedIntervalNback",3,855,"Include"
"SB2020_e2","SB2020_e2_1",1,"330",165,0,"FixedIntervalNback",3,1005,"Include"
"SB2020_e2","SB2020_e2_1",1,"69",166,1,"FixedIntervalNback",3,2531,"Include"
"SB2020_e2","SB2020_e2_1",1,"101",167,1,"FixedIntervalNback",3,963,"Include"
"SB2020_e2","SB2020_e2_1",1,"56",168,1,"FixedIntervalNback",6,1342,"Include"
"SB2020_e2","SB2020_e2_1",1,"382",169,0,"FixedIntervalNback",4,930,"Include"
"SB2020_e2","SB2020_e2_1",1,"314",170,0,"FixedIntervalNback",3,840,"Include"
"SB2020_e2","SB2020_e2_1",1,"338",171,0,"FixedIntervalNback",3,1528,"Include"
"SB2020_e2","SB2020_e2_1",1,"3",172,1,"FixedIntervalNback",4,876,"Include"
"SB2020_e2","SB2020_e2_1",1,"100",173,1,"FixedIntervalNback",3,621,"Include"
"SB2020_e2","SB2020_e2_1",1,"386",174,0,"FixedIntervalNback",3,730,"Include"
"SB2020_e2","SB2020_e2_1",1,"357",175,0,"FixedIntervalNback",3,770,"Include"
"SB2020_e2","SB2020_e2_1",1,"344",176,0,"FixedIntervalNback",3,1122,"Include"
"SB2020_e2","SB2020_e2_1",1,"354",177,0,"FixedIntervalNback",3,771,"Include"
"SB2020_e2","SB2020_e2_1",1,"320",178,0,"FixedIntervalNback",2,1381,"Include"
"SB2020_e2","SB2020_e2_1",1,"268",179,0,"FixedIntervalNback",2,901,"Include"
"SB2020_e2","SB2020_e2_1",1,"89",180,1,"FixedIntervalNback",2,1276,"Include"
"SB2020_e2","SB2020_e2_1",1,"115",181,1,"FixedIntervalNback",6,1313,"Include"
"SB2020_e2","SB2020_e2_1",1,"379",182,0,"FixedIntervalNback",3,1347,"Include"
"SB2020_e2","SB2020_e2_1",1,"302",183,0,"FixedIntervalNback",3,763,"Include"
"SB2020_e2","SB2020_e2_1",1,"73",184,1,"FixedIntervalNback",4,1199,"Include"
"SB2020_e2","SB2020_e2_1",1,"80",185,1,"FixedIntervalNback",5,1105,"Include"
"SB2020_e2","SB2020_e2_1",1,"282",186,0,"FixedIntervalNback",3,1227,"Include"
"SB2020_e2","SB2020_e2_1",1,"343",187,0,"FixedIntervalNback",3,925,"Include"
"SB2020_e2","SB2020_e2_1",1,"333",188,0,"FixedIntervalNback",3,947,"Include"
"SB2020_e2","SB2020_e2_1",1,"363",189,0,"FixedIntervalNback",3,935,"Include"
"SB2020_e2","SB2020_e2_1",1,"332",190,0,"FixedIntervalNback",3,847,"Include"
"SB2020_e2","SB2020_e2_1",1,"312",191,0,"FixedIntervalNback",3,675,"Include"
"SB2020_e2","SB2020_e2_1",1,"118",192,1,"FixedIntervalNback",3,1170,"Include"
"SB2020_e2","SB2020_e2_1",1,"367",193,0,"FixedIntervalNback",3,1012,"Include"
"SB2020_e2","SB2020_e2_1",1,"346",194,0,"FixedIntervalNback",3,870,"Include"
"SB2020_e2","SB2020_e2_1",1,"18",195,1,"FixedIntervalNback",4,1090,"Include"
"SB2020_e2","SB2020_e2_1",1,"271",196,0,"FixedIntervalNback",4,741,"Include"
"SB2020_e2","SB2020_e2_1",1,"121",197,1,"FixedIntervalNback",3,1078,"Include"
"SB2020_e2","SB2020_e2_1",1,"337",198,0,"FixedIntervalNback",3,905,"Include"
"SB2020_e2","SB2020_e2_1",1,"381",199,0,"FixedIntervalNback",3,948,"Include"
"SB2020_e2","SB2020_e2_1",1,"60",200,1,"FixedIntervalNback",4,947,"Include"
"SB2020_e2","SB2020_e2_1",1,"316",201,0,"FixedIntervalNback",4,1054,"Include"
"SB2020_e2","SB2020_e2_1",1,"368",202,0,"FixedIntervalNback",3,1082,"Include"
"SB2020_e2","SB2020_e2_1",1,"336",203,0,"FixedIntervalNback",3,740,"Include"
"SB2020_e2","SB2020_e2_1",1,"356",204,0,"FixedIntervalNback",3,730,"Include"
"SB2020_e2","SB2020_e2_1",1,"25",205,1,"FixedIntervalNback",4,1383,"Include"
"SB2020_e2","SB2020_e2_1",1,"378",206,0,"FixedIntervalNback",3,1181,"Include"
"SB2020_e2","SB2020_e2_1",1,"64",207,1,"FixedIntervalNback",4,1349,"Include"
"SB2020_e2","SB2020_e2_1",1,"318",208,0,"FixedIntervalNback",3,814,"Include"
"SB2020_e2","SB2020_e2_1",1,"300",209,0,"FixedIntervalNback",3,771,"Include"
"SB2020_e2","SB2020_e2_1",1,"10",210,1,"FixedIntervalNback",3,613,"Include"
"SB2020_e2","SB2020_e2_1",1,"42",211,1,"FixedIntervalNback",4,762,"Include"
"SB2020_e2","SB2020_e2_1",1,"52",212,1,"FixedIntervalNback",5,1159,"Include"
"SB2020_e2","SB2020_e2_1",1,"123",213,1,"FixedIntervalNback",5,990,"Include"
"SB2020_e2","SB2020_e2_1",1,"7",214,1,"FixedIntervalNback",4,1249,"Include"
"SB2020_e2","SB2020_e2_1",1,"269",215,0,"FixedIntervalNback",3,1019,"Include"
"SB2020_e2","SB2020_e2_1",1,"108",216,1,"FixedIntervalNback",6,1364,"Include"
"SB2020_e2","SB2020_e2_1",1,"77",217,1,"FixedIntervalNback",5,1699,"Include"
"SB2020_e2","SB2020_e2_1",1,"369",218,0,"FixedIntervalNback",4,953,"Include"
"SB2020_e2","SB2020_e2_1",1,"9",219,1,"FixedIntervalNback",6,1135,"Include"
"SB2020_e2","SB2020_e2_1",1,"99",220,1,"FixedIntervalNback",4,1126,"Include"
"SB2020_e2","SB2020_e2_1",1,"288",221,0,"FixedIntervalNback",1,1563,"Include"
"SB2020_e2","SB2020_e2_1",1,"323",222,0,"FixedIntervalNback",4,1916,"Include"
"SB2020_e2","SB2020_e2_1",1,"267",223,0,"FixedIntervalNback",2,1352,"Include"
"SB2020_e2","SB2020_e2_1",1,"78",224,1,"FixedIntervalNback",4,1448,"Include"
"SB2020_e2","SB2020_e2_1",1,"40",225,1,"FixedIntervalNback",6,1876,"Include"
"SB2020_e2","SB2020_e2_1",1,"83",226,1,"FixedIntervalNback",4,983,"Include"
"SB2020_e2","SB2020_e2_1",1,"385",227,0,"FixedIntervalNback",1,1666,"Include"
"SB2020_e2","SB2020_e2_1",1,"107",228,1,"FixedIntervalNback",2,1005,"Include"
"SB2020_e2","SB2020_e2_1",1,"91",229,1,"FixedIntervalNback",3,875,"Include"
"SB2020_e2","SB2020_e2_1",1,"75",230,1,"FixedIntervalNback",3,895,"Include"
"SB2020_e2","SB2020_e2_1",1,"39",231,1,"FixedIntervalNback",4,1007,"Include"
"SB2020_e2","SB2020_e2_1",1,"324",232,0,"FixedIntervalNback",3,1189,"Include"
"SB2020_e2","SB2020_e2_1",1,"370",233,0,"FixedIntervalNback",3,680,"Include"
"SB2020_e2","SB2020_e2_1",1,"322",234,0,"FixedIntervalNback",3,910,"Include"
"SB2020_e2","SB2020_e2_1",1,"377",235,0,"FixedIntervalNback",3,792,"Include"
"SB2020_e2","SB2020_e2_1",1,"94",236,1,"FixedIntervalNback",3,558,"Include"
"SB2020_e2","SB2020_e2_1",1,"315",237,0,"FixedIntervalNback",3,879,"Include"
"SB2020_e2","SB2020_e2_1",1,"19",238,1,"FixedIntervalNback",5,1586,"Include"
"SB2020_e2","SB2020_e2_1",1,"47",239,1,"FixedIntervalNback",6,1313,"Include"
"SB2020_e2","SB2020_e2_1",1,"21",240,1,"FixedIntervalNback",4,1076,"Include"
"SB2020_e2","SB2020_e2_1",1,"57",241,1,"FixedIntervalNback",6,1105,"Include"
"SB2020_e2","SB2020_e2_1",1,"6",242,1,"FixedIntervalNback",3,1096,"Include"
"SB2020_e2","SB2020_e2_1",1,"321",243,0,"FixedIntervalNback",3,1233,"Include"
"SB2020_e2","SB2020_e2_1",1,"383",244,0,"FixedIntervalNback",3,2782,"Include"
"SB2020_e2","SB2020_e2_1",1,"362",245,0,"FixedIntervalNback",3,1477,"Include"
"SB2020_e2","SB2020_e2_1",1,"128",246,1,"FixedIntervalNback",3,860,"Include"
"SB2020_e2","SB2020_e2_1",1,"28",247,1,"FixedIntervalNback",4,979,"Include"
"SB2020_e2","SB2020_e2_1",1,"274",248,0,"FixedIntervalNback",3,1017,"Include"
"SB2020_e2","SB2020_e2_1",1,"129",249,1,"FixedIntervalNback",5,1037,"Include"
"SB2020_e2","SB2020_e2_1",1,"96",250,1,"FixedIntervalNback",4,1026,"Include"
"SB2020_e2","SB2020_e2_1",1,"2",251,1,"FixedIntervalNback",3,849,"Include"
"SB2020_e2","SB2020_e2_1",1,"46",252,1,"FixedIntervalNback",3,733,"Include"
"SB2020_e2","SB2020_e2_1",1,"263",253,0,"FixedIntervalNback",3,694,"Include"
"SB2020_e2","SB2020_e2_1",1,"292",254,0,"FixedIntervalNback",2,735,"Include"
"SB2020_e2","SB2020_e2_1",1,"293",255,0,"FixedIntervalNback",3,823,"Include"
"SB2020_e2","SB2020_e2_1",1,"58",256,1,"FixedIntervalNback",3,786,"Include"
"SB2020_e2","SB2020_e2_1",1,"388",257,0,"FixedIntervalNback",3,1166,"Include"
"SB2020_e2","SB2020_e2_1",1,"111",258,1,"FixedIntervalNback",4,770,"Include"
"SB2020_e2","SB2020_e2_1",1,"351",259,0,"FixedIntervalNback",3,898,"Include"
"SB2020_e2","SB2020_e2_1",1,"279",260,0,"FixedIntervalNback",3,1162,"Include"
"SB2020_e2","SB2020_e2_1",2,"32",1,1,"VariableIntervalNback",4,2899,"Include"
"SB2020_e2","SB2020_e2_1",2,"179",2,0,"VariableIntervalNback",3,1896,"Include"
"SB2020_e2","SB2020_e2_1",2,"149",3,0,"VariableIntervalNback",4,997,"Include"
"SB2020_e2","SB2020_e2_1",2,"33",4,1,"VariableIntervalNback",5,928,"Include"
"SB2020_e2","SB2020_e2_1",2,"104",5,1,"VariableIntervalNback",6,1042,"Include"
"SB2020_e2","SB2020_e2_1",2,"3",6,1,"VariableIntervalNback",5,1146,"Include"
"SB2020_e2","SB2020_e2_1",2,"234",7,0,"VariableIntervalNback",2,1238,"Include"
"SB2020_e2","SB2020_e2_1",2,"82",8,1,"VariableIntervalNback",2,1617,"Include"
"SB2020_e2","SB2020_e2_1",2,"29",9,1,"VariableIntervalNback",6,1780,"Include"
"SB2020_e2","SB2020_e2_1",2,"208",10,0,"VariableIntervalNback",3,1401,"Include"
"SB2020_e2","SB2020_e2_1",2,"6",11,1,"VariableIntervalNback",4,1217,"Include"
"SB2020_e2","SB2020_e2_1",2,"156",12,0,"VariableIntervalNback",3,1036,"Include"
"SB2020_e2","SB2020_e2_1",2,"187",13,0,"VariableIntervalNback",2,1041,"Include"
"SB2020_e2","SB2020_e2_1",2,"225",14,0,"VariableIntervalNback",3,1530,"Include"
"SB2020_e2","SB2020_e2_1",2,"143",15,0,"VariableIntervalNback",1,1187,"Include"
"SB2020_e2","SB2020_e2_1",2,"207",16,0,"VariableIntervalNback",3,1318,"Include"
"SB2020_e2","SB2020_e2_1",2,"181",17,0,"VariableIntervalNback",3,891,"Include"
"SB2020_e2","SB2020_e2_1",2,"180",18,0,"VariableIntervalNback",3,771,"Include"
"SB2020_e2","SB2020_e2_1",2,"98",19,1,"VariableIntervalNback",6,991,"Include"
"SB2020_e2","SB2020_e2_1",2,"9",20,1,"VariableIntervalNback",4,997,"Include"
"SB2020_e2","SB2020_e2_1",2,"164",21,0,"VariableIntervalNback",4,958,"Include"
"SB2020_e2","SB2020_e2_1",2,"57",22,1,"VariableIntervalNback",5,1161,"Include"
"SB2020_e2","SB2020_e2_1",2,"116",23,1,"VariableIntervalNback",4,863,"Include"
"SB2020_e2","SB2020_e2_1",2,"65",24,1,"VariableIntervalNback",3,924,"Include"
"SB2020_e2","SB2020_e2_1",2,"35",25,1,"VariableIntervalNback",5,1103,"Include"
"SB2020_e2","SB2020_e2_1",2,"96",26,1,"VariableIntervalNback",4,1102,"Include"
"SB2020_e2","SB2020_e2_1",2,"70",27,1,"VariableIntervalNback",3,993,"Include"
"SB2020_e2","SB2020_e2_1",2,"139",28,0,"VariableIntervalNback",3,667,"Include"
"SB2020_e2","SB2020_e2_1",2,"141",29,0,"VariableIntervalNback",3,785,"Include"
"SB2020_e2","SB2020_e2_1",2,"239",30,0,"VariableIntervalNback",2,830,"Include"
"SB2020_e2","SB2020_e2_1",2,"63",31,1,"VariableIntervalNback",3,652,"Include"
"SB2020_e2","SB2020_e2_1",2,"201",32,0,"VariableIntervalNback",4,1010,"Include"
"SB2020_e2","SB2020_e2_1",2,"55",33,1,"VariableIntervalNback",3,850,"Include"
"SB2020_e2","SB2020_e2_1",2,"218",34,0,"VariableIntervalNback",3,619,"Include"
"SB2020_e2","SB2020_e2_1",2,"64",35,1,"VariableIntervalNback",4,1181,"Include"
"SB2020_e2","SB2020_e2_1",2,"227",36,0,"VariableIntervalNback",3,929,"Include"
"SB2020_e2","SB2020_e2_1",2,"169",37,0,"VariableIntervalNback",3,789,"Include"
"SB2020_e2","SB2020_e2_1",2,"233",38,0,"VariableIntervalNback",4,1071,"Include"
"SB2020_e2","SB2020_e2_1",2,"199",39,0,"VariableIntervalNback",4,996,"Include"
"SB2020_e2","SB2020_e2_1",2,"123",40,1,"VariableIntervalNback",5,1089,"Include"
"SB2020_e2","SB2020_e2_1",2,"91",41,1,"VariableIntervalNback",6,828,"Include"
"SB2020_e2","SB2020_e2_1",2,"136",42,0,"VariableIntervalNback",3,1506,"Include"
"SB2020_e2","SB2020_e2_1",2,"231",43,0,"VariableIntervalNback",3,894,"Include"
"SB2020_e2","SB2020_e2_1",2,"46",44,1,"VariableIntervalNback",3,1316,"Include"
"SB2020_e2","SB2020_e2_1",2,"99",45,1,"VariableIntervalNback",3,1391,"Include"
"SB2020_e2","SB2020_e2_1",2,"223",46,0,"VariableIntervalNback",3,927,"Include"
"SB2020_e2","SB2020_e2_1",2,"102",47,1,"VariableIntervalNback",4,988,"Include"
"SB2020_e2","SB2020_e2_1",2,"127",48,1,"VariableIntervalNback",6,1083,"Include"
"SB2020_e2","SB2020_e2_1",2,"30",49,1,"VariableIntervalNback",5,1437,"Include"
"SB2020_e2","SB2020_e2_1",2,"118",50,1,"VariableIntervalNback",3,1151,"Include"
"SB2020_e2","SB2020_e2_1",2,"52",51,1,"VariableIntervalNback",3,992,"Include"
"SB2020_e2","SB2020_e2_1",2,"7",52,1,"VariableIntervalNback",5,1424,"Include"
"SB2020_e2","SB2020_e2_1",2,"255",53,0,"VariableIntervalNback",4,792,"Include"
"SB2020_e2","SB2020_e2_1",2,"108",54,1,"VariableIntervalNback",3,817,"Include"
"SB2020_e2","SB2020_e2_1",2,"50",55,1,"VariableIntervalNback",3,1370,"Include"
"SB2020_e2","SB2020_e2_1",2,"62",56,1,"VariableIntervalNback",6,1160,"Include"
"SB2020_e2","SB2020_e2_1",2,"81",57,1,"VariableIntervalNback",3,1314,"Include"
"SB2020_e2","SB2020_e2_1",2,"111",58,1,"VariableIntervalNback",3,984,"Include"
"SB2020_e2","SB2020_e2_1",2,"177",59,0,"VariableIntervalNback",3,1549,"Include"
"SB2020_e2","SB2020_e2_1",2,"175",60,0,"VariableIntervalNback",3,1255,"Include"
"SB2020_e2","SB2020_e2_1",2,"198",61,0,"VariableIntervalNback",2,1052,"Include"
"SB2020_e2","SB2020_e2_1",2,"237",62,0,"VariableIntervalNback",3,928,"Include"
"SB2020_e2","SB2020_e2_1",2,"153",63,0,"VariableIntervalNback",3,854,"Include"
"SB2020_e2","SB2020_e2_1",2,"193",64,0,"VariableIntervalNback",3,641,"Include"
"SB2020_e2","SB2020_e2_1",2,"188",65,0,"VariableIntervalNback",2,2224,"Include"
"SB2020_e2","SB2020_e2_1",2,"260",66,0,"VariableIntervalNback",2,856,"Include"
"SB2020_e2","SB2020_e2_1",2,"14",67,1,"VariableIntervalNback",5,1309,"Include"
"SB2020_e2","SB2020_e2_1",2,"31",68,1,"VariableIntervalNback",4,1188,"Include"
"SB2020_e2","SB2020_e2_1",2,"178",69,0,"VariableIntervalNback",3,2501,"Include"
"SB2020_e2","SB2020_e2_1",2,"53",70,1,"VariableIntervalNback",6,1044,"Include"
"SB2020_e2","SB2020_e2_1",2,"259",71,0,"VariableIntervalNback",1,1658,"Include"
"SB2020_e2","SB2020_e2_1",2,"43",72,1,"VariableIntervalNback",6,1099,"Include"
"SB2020_e2","SB2020_e2_1",2,"112",73,1,"VariableIntervalNback",4,2181,"Include"
"SB2020_e2","SB2020_e2_1",2,"173",74,0,"VariableIntervalNback",3,1154,"Include"
"SB2020_e2","SB2020_e2_1",2,"183",75,0,"VariableIntervalNback",3,2194,"Include"
"SB2020_e2","SB2020_e2_1",2,"157",76,0,"VariableIntervalNback",6,1439,"Include"
"SB2020_e2","SB2020_e2_1",2,"95",77,1,"VariableIntervalNback",6,1363,"Include"
"SB2020_e2","SB2020_e2_1",2,"241",78,0,"VariableIntervalNback",4,1322,"Include"
"SB2020_e2","SB2020_e2_1",2,"73",79,1,"VariableIntervalNback",4,901,"Include"
"SB2020_e2","SB2020_e2_1",2,"258",80,0,"VariableIntervalNback",4,1835,"Include"
"SB2020_e2","SB2020_e2_1",2,"23",81,1,"VariableIntervalNback",4,1190,"Include"
"SB2020_e2","SB2020_e2_1",2,"16",82,1,"VariableIntervalNback",5,1328,"Include"
"SB2020_e2","SB2020_e2_1",2,"90",83,1,"VariableIntervalNback",3,1065,"Include"
"SB2020_e2","SB2020_e2_1",2,"68",84,1,"VariableIntervalNback",3,810,"Include"
"SB2020_e2","SB2020_e2_1",2,"159",85,0,"VariableIntervalNback",3,835,"Include"
"SB2020_e2","SB2020_e2_1",2,"67",86,1,"VariableIntervalNback",3,850,"Include"
"SB2020_e2","SB2020_e2_1",2,"184",87,0,"VariableIntervalNback",3,693,"Include"
"SB2020_e2","SB2020_e2_1",2,"110",88,1,"VariableIntervalNback",6,1024,"Include"
"SB2020_e2","SB2020_e2_1",2,"79",89,1,"VariableIntervalNback",3,1058,"Include"
"SB2020_e2","SB2020_e2_1",2,"131",90,0,"VariableIntervalNback",4,1326,"Include"
"SB2020_e2","SB2020_e2_1",2,"97",91,1,"VariableIntervalNback",3,1110,"Include"
"SB2020_e2","SB2020_e2_1",2,"115",92,1,"VariableIntervalNback",3,1659,"Include"
"SB2020_e2","SB2020_e2_1",2,"235",93,0,"VariableIntervalNback",2,1935,"Include"
"SB2020_e2","SB2020_e2_1",2,"161",94,0,"VariableIntervalNback",1,1006,"Include"
"SB2020_e2","SB2020_e2_1",2,"114",95,1,"VariableIntervalNback",6,1620,"Include"
"SB2020_e2","SB2020_e2_1",2,"158",96,0,"VariableIntervalNback",2,1045,"Include"
"SB2020_e2","SB2020_e2_1",2,"48",97,1,"VariableIntervalNback",6,1188,"Include"
"SB2020_e2","SB2020_e2_1",2,"125",98,1,"VariableIntervalNback",6,994,"Include"
"SB2020_e2","SB2020_e2_1",2,"126",99,1,"VariableIntervalNback",5,1515,"Include"
"SB2020_e2","SB2020_e2_1",2,"245",100,0,"VariableIntervalNback",3,1202,"Include"
"SB2020_e2","SB2020_e2_1",2,"252",101,0,"VariableIntervalNback",3,697,"Include"
"SB2020_e2","SB2020_e2_1",2,"236",102,0,"VariableIntervalNback",3,718,"Include"
"SB2020_e2","SB2020_e2_1",2,"109",103,1,"VariableIntervalNback",3,813,"Include"
"SB2020_e2","SB2020_e2_1",2,"256",104,0,"VariableIntervalNback",3,821,"Include"
"SB2020_e2","SB2020_e2_1",2,"1",105,1,"VariableIntervalNback",4,998,"Include"
"SB2020_e2","SB2020_e2_1",2,"121",106,1,"VariableIntervalNback",5,1045,"Include"
"SB2020_e2","SB2020_e2_1",2,"162",107,0,"VariableIntervalNback",3,1023,"Include"
"SB2020_e2","SB2020_e2_1",2,"221",108,0,"VariableIntervalNback",2,873,"Include"
"SB2020_e2","SB2020_e2_1",2,"94",109,1,"VariableIntervalNback",5,1295,"Include"
"SB2020_e2","SB2020_e2_1",2,"88",110,1,"VariableIntervalNback",5,1131,"Include"
"SB2020_e2","SB2020_e2_1",2,"107",111,1,"VariableIntervalNback",3,1094,"Include"
"SB2020_e2","SB2020_e2_1",2,"113",112,1,"VariableIntervalNback",2,1061,"Include"
"SB2020_e2","SB2020_e2_1",2,"170",113,0,"VariableIntervalNback",3,799,"Include"
"SB2020_e2","SB2020_e2_1",2,"77",114,1,"VariableIntervalNback",5,969,"Include"
"SB2020_e2","SB2020_e2_1",2,"210",115,0,"VariableIntervalNback",2,1544,"Include"
"SB2020_e2","SB2020_e2_1",2,"133",116,0,"VariableIntervalNback",3,1092,"Include"
"SB2020_e2","SB2020_e2_1",2,"152",117,0,"VariableIntervalNback",2,1732,"Include"
"SB2020_e2","SB2020_e2_1",2,"160",118,0,"VariableIntervalNback",2,996,"Include"
"SB2020_e2","SB2020_e2_1",2,"134",119,0,"VariableIntervalNback",3,1396,"Include"
"SB2020_e2","SB2020_e2_1",2,"24",120,1,"VariableIntervalNback",6,1082,"Include"
"SB2020_e2","SB2020_e2_1",2,"87",121,1,"VariableIntervalNback",6,786,"Include"
"SB2020_e2","SB2020_e2_1",2,"165",122,0,"VariableIntervalNback",2,958,"Include"
"SB2020_e2","SB2020_e2_1",2,"240",123,0,"VariableIntervalNback",3,894,"Include"
"SB2020_e2","SB2020_e2_1",2,"174",124,0,"VariableIntervalNback",3,1152,"Include"
"SB2020_e2","SB2020_e2_1",2,"2",125,1,"VariableIntervalNback",4,1520,"Include"
"SB2020_e2","SB2020_e2_1",2,"137",126,0,"VariableIntervalNback",2,1302,"Include"
"SB2020_e2","SB2020_e2_1",2,"166",127,0,"VariableIntervalNback",3,1188,"Include"
"SB2020_e2","SB2020_e2_1",2,"105",128,1,"VariableIntervalNback",4,2230,"Include"
"SB2020_e2","SB2020_e2_1",2,"4",129,1,"VariableIntervalNback",2,974,"Include"
"SB2020_e2","SB2020_e2_1",2,"129",130,1,"VariableIntervalNback",3,1244,"Include"
"SB2020_e2","SB2020_e2_1",2,"130",131,1,"VariableIntervalNback",3,2779,"Include"
"SB2020_e2","SB2020_e2_1",2,"11",132,1,"VariableIntervalNback",3,844,"Include"
"SB2020_e2","SB2020_e2_1",2,"21",133,1,"VariableIntervalNback",3,868,"Include"
"SB2020_e2","SB2020_e2_1",2,"249",134,0,"VariableIntervalNback",3,758,"Include"
"SB2020_e2","SB2020_e2_1",2,"22",135,1,"VariableIntervalNback",5,1396,"Include"
"SB2020_e2","SB2020_e2_1",2,"89",136,1,"VariableIntervalNback",5,1964,"Include"
"SB2020_e2","SB2020_e2_1",2,"78",137,1,"VariableIntervalNback",5,796,"Include"
"SB2020_e2","SB2020_e2_1",2,"203",138,0,"VariableIntervalNback",3,1087,"Include"
"SB2020_e2","SB2020_e2_1",2,"128",139,1,"VariableIntervalNback",3,1064,"Include"
"SB2020_e2","SB2020_e2_1",2,"238",140,0,"VariableIntervalNback",3,1176,"Include"
"SB2020_e2","SB2020_e2_1",2,"61",141,1,"VariableIntervalNback",3,766,"Include"
"SB2020_e2","SB2020_e2_1",2,"59",142,1,"VariableIntervalNback",4,1205,"Include"
"SB2020_e2","SB2020_e2_1",2,"147",143,0,"VariableIntervalNback",3,772,"Include"
"SB2020_e2","SB2020_e2_1",2,"19",144,1,"VariableIntervalNback",5,1114,"Include"
"SB2020_e2","SB2020_e2_1",2,"206",145,0,"VariableIntervalNback",2,1700,"Include"
"SB2020_e2","SB2020_e2_1",2,"47",146,1,"VariableIntervalNback",2,1323,"Include"
"SB2020_e2","SB2020_e2_1",2,"209",147,0,"VariableIntervalNback",2,820,"Include"
"SB2020_e2","SB2020_e2_1",2,"192",148,0,"VariableIntervalNback",2,674,"Include"
"SB2020_e2","SB2020_e2_1",2,"17",149,1,"VariableIntervalNback",3,1346,"Include"
"SB2020_e2","SB2020_e2_1",2,"145",150,0,"VariableIntervalNback",3,816,"Include"
"SB2020_e2","SB2020_e2_1",2,"212",151,0,"VariableIntervalNback",1,1511,"Include"
"SB2020_e2","SB2020_e2_1",2,"72",152,1,"VariableIntervalNback",4,1642,"Include"
"SB2020_e2","SB2020_e2_1",2,"71",153,1,"VariableIntervalNback",4,1343,"Include"
"SB2020_e2","SB2020_e2_1",2,"195",154,0,"VariableIntervalNback",3,1317,"Include"
"SB2020_e2","SB2020_e2_1",2,"122",155,1,"VariableIntervalNback",4,715,"Include"
"SB2020_e2","SB2020_e2_1",2,"150",156,0,"VariableIntervalNback",3,911,"Include"
"SB2020_e2","SB2020_e2_1",2,"80",157,1,"VariableIntervalNback",3,896,"Include"
"SB2020_e2","SB2020_e2_1",2,"185",158,0,"VariableIntervalNback",3,1799,"Include"
"SB2020_e2","SB2020_e2_1",2,"200",159,0,"VariableIntervalNback",3,833,"Include"
"SB2020_e2","SB2020_e2_1",2,"119",160,1,"VariableIntervalNback",3,1662,"Include"
"SB2020_e2","SB2020_e2_1",2,"167",161,0,"VariableIntervalNback",3,1517,"Include"
"SB2020_e2","SB2020_e2_1",2,"224",162,0,"VariableIntervalNback",3,750,"Include"
"SB2020_e2","SB2020_e2_1",2,"257",163,0,"VariableIntervalNback",3,630,"Include"
"SB2020_e2","SB2020_e2_1",2,"243",164,0,"VariableIntervalNback",2,934,"Include"
"SB2020_e2","SB2020_e2_1",2,"37",165,1,"VariableIntervalNback",6,1044,"Include"
"SB2020_e2","SB2020_e2_1",2,"230",166,0,"VariableIntervalNback",5,996,"Include"
"SB2020_e2","SB2020_e2_1",2,"60",167,1,"VariableIntervalNback",6,1106,"Include"
"SB2020_e2","SB2020_e2_1",2,"163",168,0,"VariableIntervalNback",3,2242,"Include"
"SB2020_e2","SB2020_e2_1",2,"84",169,1,"VariableIntervalNback",3,1007,"Include"
"SB2020_e2","SB2020_e2_1",2,"242",170,0,"VariableIntervalNback",3,769,"Include"
"SB2020_e2","SB2020_e2_1",2,"140",171,0,"VariableIntervalNback",3,653,"Include"
"SB2020_e2","SB2020_e2_1",2,"182",172,0,"VariableIntervalNback",3,762,"Include"
"SB2020_e2","SB2020_e2_1",2,"197",173,0,"VariableIntervalNback",2,909,"Include"
"SB2020_e2","SB2020_e2_1",2,"54",174,1,"VariableIntervalNback",4,1209,"Include"
"SB2020_e2","SB2020_e2_1",2,"38",175,1,"VariableIntervalNback",4,950,"Include"
"SB2020_e2","SB2020_e2_1",2,"194",176,0,"VariableIntervalNback",3,1098,"Include"
"SB2020_e2","SB2020_e2_1",2,"5",177,1,"VariableIntervalNback",3,1153,"Include"
"SB2020_e2","SB2020_e2_1",2,"202",178,0,"VariableIntervalNback",3,773,"Include"
"SB2020_e2","SB2020_e2_1",2,"215",179,0,"VariableIntervalNback",3,717,"Include"
"SB2020_e2","SB2020_e2_1",2,"15",180,1,"VariableIntervalNback",4,1370,"Include"
"SB2020_e2","SB2020_e2_1",2,"144",181,0,"VariableIntervalNback",3,745,"Include"
"SB2020_e2","SB2020_e2_1",2,"222",182,0,"VariableIntervalNback",3,872,"Include"
"SB2020_e2","SB2020_e2_1",2,"85",183,1,"VariableIntervalNback",3,698,"Include"
"SB2020_e2","SB2020_e2_1",2,"135",184,0,"VariableIntervalNback",3,780,"Include"
"SB2020_e2","SB2020_e2_1",2,"75",185,1,"VariableIntervalNback",6,1837,"Include"
"SB2020_e2","SB2020_e2_1",2,"34",186,1,"VariableIntervalNback",4,1420,"Include"
"SB2020_e2","SB2020_e2_1",2,"217",187,0,"VariableIntervalNback",3,951,"Include"
"SB2020_e2","SB2020_e2_1",2,"45",188,1,"VariableIntervalNback",5,1630,"Include"
"SB2020_e2","SB2020_e2_1",2,"219",189,0,"VariableIntervalNback",2,1108,"Include"
"SB2020_e2","SB2020_e2_1",2,"8",190,1,"VariableIntervalNback",5,1561,"Include"
"SB2020_e2","SB2020_e2_1",2,"25",191,1,"VariableIntervalNback",2,974,"Include"
"SB2020_e2","SB2020_e2_1",2,"232",192,0,"VariableIntervalNback",1,1712,"Include"
"SB2020_e2","SB2020_e2_1",2,"138",193,0,"VariableIntervalNback",2,1209,"Include"
"SB2020_e2","SB2020_e2_1",2,"49",194,1,"VariableIntervalNback",6,908,"Include"
"SB2020_e2","SB2020_e2_1",2,"42",195,1,"VariableIntervalNback",3,1434,"Include"
"SB2020_e2","SB2020_e2_1",2,"154",196,0,"VariableIntervalNback",2,946,"Include"
"SB2020_e2","SB2020_e2_1",2,"106",197,1,"VariableIntervalNback",6,966,"Include"
"SB2020_e2","SB2020_e2_1",2,"92",198,1,"VariableIntervalNback",2,1015,"Include"
"SB2020_e2","SB2020_e2_1",2,"51",199,1,"VariableIntervalNback",3,1720,"Include"
"SB2020_e2","SB2020_e2_1",2,"101",200,1,"VariableIntervalNback",5,1173,"Include"
"SB2020_e2","SB2020_e2_1",2,"120",201,1,"VariableIntervalNback",2,1035,"Include"
"SB2020_e2","SB2020_e2_1",2,"124",202,1,"VariableIntervalNback",4,1189,"Include"
"SB2020_e2","SB2020_e2_1",2,"74",203,1,"VariableIntervalNback",6,1155,"Include"
"SB2020_e2","SB2020_e2_1",2,"168",204,0,"VariableIntervalNback",2,753,"Include"
"SB2020_e2","SB2020_e2_1",2,"41",205,1,"VariableIntervalNback",3,1061,"Include"
"SB2020_e2","SB2020_e2_1",2,"86",206,1,"VariableIntervalNback",3,882,"Include"
"SB2020_e2","SB2020_e2_1",2,"151",207,0,"VariableIntervalNback",3,755,"Include"
"SB2020_e2","SB2020_e2_1",2,"69",208,1,"VariableIntervalNback",3,675,"Include"
"SB2020_e2","SB2020_e2_1",2,"253",209,0,"VariableIntervalNback",2,1230,"Include"
"SB2020_e2","SB2020_e2_1",2,"196",210,0,"VariableIntervalNback",2,1145,"Include"
"SB2020_e2","SB2020_e2_1",2,"244",211,0,"VariableIntervalNback",2,711,"Include"
"SB2020_e2","SB2020_e2_1",2,"247",212,0,"VariableIntervalNback",1,1650,"Include"
"SB2020_e2","SB2020_e2_1",2,"103",213,1,"VariableIntervalNback",6,1167,"Include"
"SB2020_e2","SB2020_e2_1",2,"246",214,0,"VariableIntervalNback",5,2385,"Include"
"SB2020_e2","SB2020_e2_1",2,"58",215,1,"VariableIntervalNback",2,2140,"Include"
"SB2020_e2","SB2020_e2_1",2,"117",216,1,"VariableIntervalNback",2,1067,"Include"
"SB2020_e2","SB2020_e2_1",2,"13",217,1,"VariableIntervalNback",6,1341,"Include"
"SB2020_e2","SB2020_e2_1",2,"10",218,1,"VariableIntervalNback",6,851,"Include"
"SB2020_e2","SB2020_e2_1",2,"220",219,0,"VariableIntervalNback",5,1115,"Include"
"SB2020_e2","SB2020_e2_1",2,"205",220,0,"VariableIntervalNback",4,2092,"Include"
"SB2020_e2","SB2020_e2_1",2,"39",221,1,"VariableIntervalNback",4,821,"Include"
"SB2020_e2","SB2020_e2_1",2,"254",222,0,"VariableIntervalNback",4,1582,"Include"
"SB2020_e2","SB2020_e2_1",2,"83",223,1,"VariableIntervalNback",4,1764,"Include"
"SB2020_e2","SB2020_e2_1",2,"229",224,0,"VariableIntervalNback",2,847,"Include"
"SB2020_e2","SB2020_e2_1",2,"20",225,1,"VariableIntervalNback",2,802,"Include"
"SB2020_e2","SB2020_e2_1",2,"132",226,0,"VariableIntervalNback",2,777,"Include"
"SB2020_e2","SB2020_e2_1",2,"228",227,0,"VariableIntervalNback",2,2349,"Include"
"SB2020_e2","SB2020_e2_1",2,"93",228,1,"VariableIntervalNback",5,1355,"Include"
"SB2020_e2","SB2020_e2_1",2,"36",229,1,"VariableIntervalNback",4,2307,"Include"
"SB2020_e2","SB2020_e2_1",2,"250",230,0,"VariableIntervalNback",3,1197,"Include"
"SB2020_e2","SB2020_e2_1",2,"44",231,1,"VariableIntervalNback",3,1118,"Include"
"SB2020_e2","SB2020_e2_1",2,"214",232,0,"VariableIntervalNback",3,1449,"Include"
"SB2020_e2","SB2020_e2_1",2,"26",233,1,"VariableIntervalNback",3,839,"Include"
"SB2020_e2","SB2020_e2_1",2,"12",234,1,"VariableIntervalNback",3,983,"Include"
"SB2020_e2","SB2020_e2_1",2,"211",235,0,"VariableIntervalNback",3,646,"Include"
"SB2020_e2","SB2020_e2_1",2,"155",236,0,"VariableIntervalNback",3,1072,"Include"
"SB2020_e2","SB2020_e2_1",2,"172",237,0,"VariableIntervalNback",4,1471,"Include"
"SB2020_e2","SB2020_e2_1",2,"56",238,1,"VariableIntervalNback",5,1305,"Include"
"SB2020_e2","SB2020_e2_1",2,"251",239,0,"VariableIntervalNback",2,1044,"Include"
"SB2020_e2","SB2020_e2_1",2,"186",240,0,"VariableIntervalNback",2,1010,"Include"
"SB2020_e2","SB2020_e2_1",2,"204",241,0,"VariableIntervalNback",2,1119,"Include"
"SB2020_e2","SB2020_e2_1",2,"190",242,0,"VariableIntervalNback",4,1386,"Include"
"SB2020_e2","SB2020_e2_1",2,"191",243,0,"VariableIntervalNback",3,872,"Include"
"SB2020_e2","SB2020_e2_1",2,"248",244,0,"VariableIntervalNback",3,813,"Include"
"SB2020_e2","SB2020_e2_1",2,"28",245,1,"VariableIntervalNback",3,1196,"Include"
"SB2020_e2","SB2020_e2_1",2,"142",246,0,"VariableIntervalNback",2,1124,"Include"
"SB2020_e2","SB2020_e2_1",2,"189",247,0,"VariableIntervalNback",2,722,"Include"
"SB2020_e2","SB2020_e2_1",2,"213",248,0,"VariableIntervalNback",2,860,"Include"
"SB2020_e2","SB2020_e2_1",2,"146",249,0,"VariableIntervalNback",1,1349,"Include"
"SB2020_e2","SB2020_e2_1",2,"18",250,1,"VariableIntervalNback",6,1337,"Include"
"SB2020_e2","SB2020_e2_1",2,"40",251,1,"VariableIntervalNback",3,1209,"Include"
"SB2020_e2","SB2020_e2_1",2,"226",252,0,"VariableIntervalNback",3,806,"Include"
"SB2020_e2","SB2020_e2_1",2,"27",253,1,"VariableIntervalNback",3,737,"Include"
"SB2020_e2","SB2020_e2_1",2,"216",254,0,"VariableIntervalNback",3,764,"Include"
"SB2020_e2","SB2020_e2_1",2,"148",255,0,"VariableIntervalNback",2,1283,"Include"
"SB2020_e2","SB2020_e2_1",2,"176",256,0,"VariableIntervalNback",2,903,"Include"
"SB2020_e2","SB2020_e2_1",2,"100",257,1,"VariableIntervalNback",2,782,"Include"
"SB2020_e2","SB2020_e2_1",2,"66",258,1,"VariableIntervalNback",6,1099,"Include"
"SB2020_e2","SB2020_e2_1",2,"171",259,0,"VariableIntervalNback",3,921,"Include"
"SB2020_e2","SB2020_e2_1",2,"76",260,1,"VariableIntervalNback",3,902,"Include"
"SB2020_e2","SB2020_e2_10",1,"143",1,0,"VariableIntervalNback",5,5123,"Include"
"SB2020_e2","SB2020_e2_10",1,"195",2,0,"VariableIntervalNback",6,3267,"Include"
"SB2020_e2","SB2020_e2_10",1,"107",3,1,"VariableIntervalNback",6,2011,"Include"
"SB2020_e2","SB2020_e2_10",1,"79",4,1,"VariableIntervalNback",3,3575,"Include"
"SB2020_e2","SB2020_e2_10",1,"4",5,1,"VariableIntervalNback",3,2055,"Include"
"SB2020_e2","SB2020_e2_10",1,"214",6,0,"VariableIntervalNback",2,3225,"Include"
"SB2020_e2","SB2020_e2_10",1,"198",7,0,"VariableIntervalNback",2,1393,"Include"
"SB2020_e2","SB2020_e2_10",1,"241",8,0,"VariableIntervalNback",1,2494,"Include"
"SB2020_e2","SB2020_e2_10",1,"73",9,1,"VariableIntervalNback",5,1911,"Include"
"SB2020_e2","SB2020_e2_10",1,"154",10,0,"VariableIntervalNback",4,2601,"Include"
"SB2020_e2","SB2020_e2_10",1,"191",11,0,"VariableIntervalNback",6,1888,"Include"
"SB2020_e2","SB2020_e2_10",1,"226",12,0,"VariableIntervalNback",2,1889,"Include"
"SB2020_e2","SB2020_e2_10",1,"27",13,1,"VariableIntervalNback",5,1930,"Include"
"SB2020_e2","SB2020_e2_10",1,"80",14,1,"VariableIntervalNback",6,1357,"Include"
"SB2020_e2","SB2020_e2_10",1,"177",15,0,"VariableIntervalNback",4,3867,"Include"
"SB2020_e2","SB2020_e2_10",1,"24",16,1,"VariableIntervalNback",5,2133,"Include"
"SB2020_e2","SB2020_e2_10",1,"46",17,1,"VariableIntervalNback",2,1627,"Include"
"SB2020_e2","SB2020_e2_10",1,"134",18,0,"VariableIntervalNback",2,1631,"Include"
"SB2020_e2","SB2020_e2_10",1,"228",19,0,"VariableIntervalNback",1,2098,"Include"
"SB2020_e2","SB2020_e2_10",1,"31",20,1,"VariableIntervalNback",3,2671,"Include"
"SB2020_e2","SB2020_e2_10",1,"193",21,0,"VariableIntervalNback",5,2411,"Include"
"SB2020_e2","SB2020_e2_10",1,"114",22,1,"VariableIntervalNback",2,2723,"Include"
"SB2020_e2","SB2020_e2_10",1,"256",23,0,"VariableIntervalNback",3,1603,"Include"
"SB2020_e2","SB2020_e2_10",1,"23",24,1,"VariableIntervalNback",3,1492,"Include"
"SB2020_e2","SB2020_e2_10",1,"111",25,1,"VariableIntervalNback",1,3651,"Include"
"SB2020_e2","SB2020_e2_10",1,"120",26,1,"VariableIntervalNback",2,2694,"Include"
"SB2020_e2","SB2020_e2_10",1,"98",27,1,"VariableIntervalNback",2,1369,"Include"
"SB2020_e2","SB2020_e2_10",1,"91",28,1,"VariableIntervalNback",6,2983,"Include"
"SB2020_e2","SB2020_e2_10",1,"83",29,1,"VariableIntervalNback",3,1715,"Include"
"SB2020_e2","SB2020_e2_10",1,"102",30,1,"VariableIntervalNback",6,1349,"Include"
"SB2020_e2","SB2020_e2_10",1,"221",31,0,"VariableIntervalNback",3,1590,"Include"
"SB2020_e2","SB2020_e2_10",1,"160",32,0,"VariableIntervalNback",2,2045,"Include"
"SB2020_e2","SB2020_e2_10",1,"249",33,0,"VariableIntervalNback",2,1886,"Include"
"SB2020_e2","SB2020_e2_10",1,"161",34,0,"VariableIntervalNback",2,1689,"Include"
"SB2020_e2","SB2020_e2_10",1,"82",35,1,"VariableIntervalNback",2,2172,"Include"
"SB2020_e2","SB2020_e2_10",1,"224",36,0,"VariableIntervalNback",2,2531,"Include"
"SB2020_e2","SB2020_e2_10",1,"30",37,1,"VariableIntervalNback",5,2243,"Include"
"SB2020_e2","SB2020_e2_10",1,"168",38,0,"VariableIntervalNback",3,1804,"Include"
"SB2020_e2","SB2020_e2_10",1,"81",39,1,"VariableIntervalNback",4,3379,"Include"
"SB2020_e2","SB2020_e2_10",1,"35",40,1,"VariableIntervalNback",5,2481,"Include"
"SB2020_e2","SB2020_e2_10",1,"257",41,0,"VariableIntervalNback",3,1973,"Include"
"SB2020_e2","SB2020_e2_10",1,"62",42,1,"VariableIntervalNback",6,3117,"Include"
"SB2020_e2","SB2020_e2_10",1,"165",43,0,"VariableIntervalNback",2,1581,"Include"
"SB2020_e2","SB2020_e2_10",1,"242",44,0,"VariableIntervalNback",3,5260,"Include"
"SB2020_e2","SB2020_e2_10",1,"245",45,0,"VariableIntervalNback",3,1982,"Include"
"SB2020_e2","SB2020_e2_10",1,"17",46,1,"VariableIntervalNback",5,1969,"Include"
"SB2020_e2","SB2020_e2_10",1,"252",47,0,"VariableIntervalNback",3,1981,"Include"
"SB2020_e2","SB2020_e2_10",1,"158",48,0,"VariableIntervalNback",3,1307,"Include"
"SB2020_e2","SB2020_e2_10",1,"116",49,1,"VariableIntervalNback",4,2611,"Include"
"SB2020_e2","SB2020_e2_10",1,"74",50,1,"VariableIntervalNback",2,1448,"Include"
"SB2020_e2","SB2020_e2_10",1,"16",51,1,"VariableIntervalNback",5,2354,"Include"
"SB2020_e2","SB2020_e2_10",1,"39",52,1,"VariableIntervalNback",5,1213,"Include"
"SB2020_e2","SB2020_e2_10",1,"126",53,1,"VariableIntervalNback",2,1219,"Include"
"SB2020_e2","SB2020_e2_10",1,"212",54,0,"VariableIntervalNback",2,2906,"Include"
"SB2020_e2","SB2020_e2_10",1,"21",55,1,"VariableIntervalNback",3,3604,"Include"
"SB2020_e2","SB2020_e2_10",1,"213",56,0,"VariableIntervalNback",3,3430,"Include"
"SB2020_e2","SB2020_e2_10",1,"251",57,0,"VariableIntervalNback",1,2781,"Include"
"SB2020_e2","SB2020_e2_10",1,"2",58,1,"VariableIntervalNback",2,1648,"Include"
"SB2020_e2","SB2020_e2_10",1,"132",59,0,"VariableIntervalNback",2,1570,"Include"
"SB2020_e2","SB2020_e2_10",1,"115",60,1,"VariableIntervalNback",6,1934,"Include"
"SB2020_e2","SB2020_e2_10",1,"233",61,0,"VariableIntervalNback",3,3339,"Include"
"SB2020_e2","SB2020_e2_10",1,"87",62,1,"VariableIntervalNback",2,2487,"Include"
"SB2020_e2","SB2020_e2_10",1,"147",63,0,"VariableIntervalNback",4,2652,"Include"
"SB2020_e2","SB2020_e2_10",1,"51",64,1,"VariableIntervalNback",3,2654,"Include"
"SB2020_e2","SB2020_e2_10",1,"243",65,0,"VariableIntervalNback",2,2088,"Include"
"SB2020_e2","SB2020_e2_10",1,"199",66,0,"VariableIntervalNback",4,2362,"Include"
"SB2020_e2","SB2020_e2_10",1,"145",67,0,"VariableIntervalNback",2,1962,"Include"
"SB2020_e2","SB2020_e2_10",1,"206",68,0,"VariableIntervalNback",2,2042,"Include"
"SB2020_e2","SB2020_e2_10",1,"215",69,0,"VariableIntervalNback",3,2316,"Include"
"SB2020_e2","SB2020_e2_10",1,"47",70,1,"VariableIntervalNback",4,1795,"Include"
"SB2020_e2","SB2020_e2_10",1,"1",71,1,"VariableIntervalNback",3,1358,"Include"
"SB2020_e2","SB2020_e2_10",1,"54",72,1,"VariableIntervalNback",5,2799,"Include"
"SB2020_e2","SB2020_e2_10",1,"15",73,1,"VariableIntervalNback",6,1972,"Include"
"SB2020_e2","SB2020_e2_10",1,"234",74,0,"VariableIntervalNback",2,1941,"Include"
"SB2020_e2","SB2020_e2_10",1,"44",75,1,"VariableIntervalNback",4,1893,"Include"
"SB2020_e2","SB2020_e2_10",1,"89",76,1,"VariableIntervalNback",5,1388,"Include"
"SB2020_e2","SB2020_e2_10",1,"167",77,0,"VariableIntervalNback",2,2196,"Include"
"SB2020_e2","SB2020_e2_10",1,"108",78,1,"VariableIntervalNback",4,1765,"Include"
"SB2020_e2","SB2020_e2_10",1,"109",79,1,"VariableIntervalNback",3,2158,"Include"
"SB2020_e2","SB2020_e2_10",1,"117",80,1,"VariableIntervalNback",2,2879,"Include"
"SB2020_e2","SB2020_e2_10",1,"216",81,0,"VariableIntervalNback",2,1737,"Include"
"SB2020_e2","SB2020_e2_10",1,"103",82,1,"VariableIntervalNback",5,1568,"Include"
"SB2020_e2","SB2020_e2_10",1,"68",83,1,"VariableIntervalNback",5,1641,"Include"
"SB2020_e2","SB2020_e2_10",1,"86",84,1,"VariableIntervalNback",2,1954,"Include"
"SB2020_e2","SB2020_e2_10",1,"105",85,1,"VariableIntervalNback",2,2978,"Include"
"SB2020_e2","SB2020_e2_10",1,"240",86,0,"VariableIntervalNback",3,2607,"Include"
"SB2020_e2","SB2020_e2_10",1,"169",87,0,"VariableIntervalNback",3,4183,"Include"
"SB2020_e2","SB2020_e2_10",1,"90",88,1,"VariableIntervalNback",3,773,"Include"
"SB2020_e2","SB2020_e2_10",1,"96",89,1,"VariableIntervalNback",2,2328,"Include"
"SB2020_e2","SB2020_e2_10",1,"202",90,0,"VariableIntervalNback",2,2429,"Include"
"SB2020_e2","SB2020_e2_10",1,"190",91,0,"VariableIntervalNback",4,1484,"Include"
"SB2020_e2","SB2020_e2_10",1,"52",92,1,"VariableIntervalNback",3,1865,"Include"
"SB2020_e2","SB2020_e2_10",1,"227",93,0,"VariableIntervalNback",2,2307,"Include"
"SB2020_e2","SB2020_e2_10",1,"157",94,0,"VariableIntervalNback",2,2952,"Include"
"SB2020_e2","SB2020_e2_10",1,"127",95,1,"VariableIntervalNback",2,1222,"Include"
"SB2020_e2","SB2020_e2_10",1,"223",96,0,"VariableIntervalNback",3,1901,"Include"
"SB2020_e2","SB2020_e2_10",1,"187",97,0,"VariableIntervalNback",1,1979,"Include"
"SB2020_e2","SB2020_e2_10",1,"218",98,0,"VariableIntervalNback",2,1400,"Include"
"SB2020_e2","SB2020_e2_10",1,"36",99,1,"VariableIntervalNback",3,3534,"Include"
"SB2020_e2","SB2020_e2_10",1,"121",100,1,"VariableIntervalNback",3,1126,"Include"
"SB2020_e2","SB2020_e2_10",1,"209",101,0,"VariableIntervalNback",2,1748,"Include"
"SB2020_e2","SB2020_e2_10",1,"61",102,1,"VariableIntervalNback",2,2946,"Include"
"SB2020_e2","SB2020_e2_10",1,"183",103,0,"VariableIntervalNback",3,1945,"Include"
"SB2020_e2","SB2020_e2_10",1,"33",104,1,"VariableIntervalNback",4,1710,"Include"
"SB2020_e2","SB2020_e2_10",1,"217",105,0,"VariableIntervalNback",3,1416,"Include"
"SB2020_e2","SB2020_e2_10",1,"104",106,1,"VariableIntervalNback",3,932,"Include"
"SB2020_e2","SB2020_e2_10",1,"66",107,1,"VariableIntervalNback",6,1219,"Include"
"SB2020_e2","SB2020_e2_10",1,"155",108,0,"VariableIntervalNback",4,1423,"Include"
"SB2020_e2","SB2020_e2_10",1,"49",109,1,"VariableIntervalNback",2,1891,"Include"
"SB2020_e2","SB2020_e2_10",1,"42",110,1,"VariableIntervalNback",3,1794,"Include"
"SB2020_e2","SB2020_e2_10",1,"201",111,0,"VariableIntervalNback",4,1386,"Include"
"SB2020_e2","SB2020_e2_10",1,"85",112,1,"VariableIntervalNback",4,1629,"Include"
"SB2020_e2","SB2020_e2_10",1,"9",113,1,"VariableIntervalNback",3,2243,"Include"
"SB2020_e2","SB2020_e2_10",1,"148",114,0,"VariableIntervalNback",3,1723,"Include"
"SB2020_e2","SB2020_e2_10",1,"211",115,0,"VariableIntervalNback",2,5105,"Include"
"SB2020_e2","SB2020_e2_10",1,"57",116,1,"VariableIntervalNback",2,2610,"Include"
"SB2020_e2","SB2020_e2_10",1,"166",117,0,"VariableIntervalNback",1,2350,"Include"
"SB2020_e2","SB2020_e2_10",1,"26",118,1,"VariableIntervalNback",2,1056,"Include"
"SB2020_e2","SB2020_e2_10",1,"188",119,0,"VariableIntervalNback",3,1977,"Include"
"SB2020_e2","SB2020_e2_10",1,"56",120,1,"VariableIntervalNback",5,1109,"Include"
"SB2020_e2","SB2020_e2_10",1,"175",121,0,"VariableIntervalNback",2,2028,"Include"
"SB2020_e2","SB2020_e2_10",1,"153",122,0,"VariableIntervalNback",2,1360,"Include"
"SB2020_e2","SB2020_e2_10",1,"208",123,0,"VariableIntervalNback",5,1345,"Include"
"SB2020_e2","SB2020_e2_10",1,"25",124,1,"VariableIntervalNback",4,4144,"Include"
"SB2020_e2","SB2020_e2_10",1,"170",125,0,"VariableIntervalNback",3,2624,"Include"
"SB2020_e2","SB2020_e2_10",1,"129",126,1,"VariableIntervalNback",4,1531,"Include"
"SB2020_e2","SB2020_e2_10",1,"122",127,1,"VariableIntervalNback",5,1420,"Include"
"SB2020_e2","SB2020_e2_10",1,"253",128,0,"VariableIntervalNback",2,2688,"Include"
"SB2020_e2","SB2020_e2_10",1,"55",129,1,"VariableIntervalNback",4,3767,"Include"
"SB2020_e2","SB2020_e2_10",1,"149",130,0,"VariableIntervalNback",3,2485,"Include"
"SB2020_e2","SB2020_e2_10",1,"63",131,1,"VariableIntervalNback",3,838,"Include"
"SB2020_e2","SB2020_e2_10",1,"185",132,0,"VariableIntervalNback",1,1576,"Include"
"SB2020_e2","SB2020_e2_10",1,"5",133,1,"VariableIntervalNback",6,2323,"Include"
"SB2020_e2","SB2020_e2_10",1,"77",134,1,"VariableIntervalNback",2,1617,"Include"
"SB2020_e2","SB2020_e2_10",1,"137",135,0,"VariableIntervalNback",2,1629,"Include"
"SB2020_e2","SB2020_e2_10",1,"146",136,0,"VariableIntervalNback",1,1225,"Include"
"SB2020_e2","SB2020_e2_10",1,"65",137,1,"VariableIntervalNback",4,1608,"Include"
"SB2020_e2","SB2020_e2_10",1,"58",138,1,"VariableIntervalNback",4,1279,"Include"
"SB2020_e2","SB2020_e2_10",1,"151",139,0,"VariableIntervalNback",4,2881,"Include"
"SB2020_e2","SB2020_e2_10",1,"131",140,0,"VariableIntervalNback",3,2807,"Include"
"SB2020_e2","SB2020_e2_10",1,"22",141,1,"VariableIntervalNback",6,1313,"Include"
"SB2020_e2","SB2020_e2_10",1,"189",142,0,"VariableIntervalNback",3,1436,"Include"
"SB2020_e2","SB2020_e2_10",1,"179",143,0,"VariableIntervalNback",5,2342,"Include"
"SB2020_e2","SB2020_e2_10",1,"254",144,0,"VariableIntervalNback",3,995,"Include"
"SB2020_e2","SB2020_e2_10",1,"220",145,0,"VariableIntervalNback",5,1194,"Include"
"SB2020_e2","SB2020_e2_10",1,"140",146,0,"VariableIntervalNback",2,2205,"Include"
"SB2020_e2","SB2020_e2_10",1,"205",147,0,"VariableIntervalNback",2,3457,"Include"
"SB2020_e2","SB2020_e2_10",1,"45",148,1,"VariableIntervalNback",5,3390,"Include"
"SB2020_e2","SB2020_e2_10",1,"10",149,1,"VariableIntervalNback",6,3063,"Include"
"SB2020_e2","SB2020_e2_10",1,"136",150,0,"VariableIntervalNback",2,1831,"Include"
"SB2020_e2","SB2020_e2_10",1,"8",151,1,"VariableIntervalNback",3,2716,"Include"
"SB2020_e2","SB2020_e2_10",1,"7",152,1,"VariableIntervalNback",6,1201,"Include"
"SB2020_e2","SB2020_e2_10",1,"246",153,0,"VariableIntervalNback",2,2877,"Include"
"SB2020_e2","SB2020_e2_10",1,"197",154,0,"VariableIntervalNback",2,1607,"Include"
"SB2020_e2","SB2020_e2_10",1,"94",155,1,"VariableIntervalNback",3,2100,"Include"
"SB2020_e2","SB2020_e2_10",1,"239",156,0,"VariableIntervalNback",3,1713,"Include"
"SB2020_e2","SB2020_e2_10",1,"259",157,0,"VariableIntervalNback",2,1889,"Include"
"SB2020_e2","SB2020_e2_10",1,"75",158,1,"VariableIntervalNback",6,1259,"Include"
"SB2020_e2","SB2020_e2_10",1,"99",159,1,"VariableIntervalNback",6,848,"Include"
"SB2020_e2","SB2020_e2_10",1,"123",160,1,"VariableIntervalNback",3,2527,"Include"
"SB2020_e2","SB2020_e2_10",1,"11",161,1,"VariableIntervalNback",5,2282,"Include"
"SB2020_e2","SB2020_e2_10",1,"229",162,0,"VariableIntervalNback",5,1955,"Include"
"SB2020_e2","SB2020_e2_10",1,"162",163,0,"VariableIntervalNback",2,1320,"Include"
"SB2020_e2","SB2020_e2_10",1,"238",164,0,"VariableIntervalNback",2,1187,"Include"
"SB2020_e2","SB2020_e2_10",1,"3",165,1,"VariableIntervalNback",4,4449,"Include"
"SB2020_e2","SB2020_e2_10",1,"124",166,1,"VariableIntervalNback",4,928,"Include"
"SB2020_e2","SB2020_e2_10",1,"20",167,1,"VariableIntervalNback",6,1149,"Include"
"SB2020_e2","SB2020_e2_10",1,"50",168,1,"VariableIntervalNback",4,1829,"Include"
"SB2020_e2","SB2020_e2_10",1,"32",169,1,"VariableIntervalNback",6,1040,"Include"
"SB2020_e2","SB2020_e2_10",1,"78",170,1,"VariableIntervalNback",3,1964,"Include"
"SB2020_e2","SB2020_e2_10",1,"76",171,1,"VariableIntervalNback",3,1447,"Include"
"SB2020_e2","SB2020_e2_10",1,"210",172,0,"VariableIntervalNback",5,2403,"Include"
"SB2020_e2","SB2020_e2_10",1,"67",173,1,"VariableIntervalNback",5,1492,"Include"
"SB2020_e2","SB2020_e2_10",1,"225",174,0,"VariableIntervalNback",2,1386,"Include"
"SB2020_e2","SB2020_e2_10",1,"236",175,0,"VariableIntervalNback",2,1186,"Include"
"SB2020_e2","SB2020_e2_10",1,"28",176,1,"VariableIntervalNback",2,1503,"Include"
"SB2020_e2","SB2020_e2_10",1,"13",177,1,"VariableIntervalNback",1,1498,"Include"
"SB2020_e2","SB2020_e2_10",1,"180",178,0,"VariableIntervalNback",2,1814,"Include"
"SB2020_e2","SB2020_e2_10",1,"18",179,1,"VariableIntervalNback",5,1228,"Include"
"SB2020_e2","SB2020_e2_10",1,"125",180,1,"VariableIntervalNback",4,1698,"Include"
"SB2020_e2","SB2020_e2_10",1,"19",181,1,"VariableIntervalNback",2,1171,"Include"
"SB2020_e2","SB2020_e2_10",1,"133",182,0,"VariableIntervalNback",3,3821,"Include"
"SB2020_e2","SB2020_e2_10",1,"71",183,1,"VariableIntervalNback",6,1052,"Include"
"SB2020_e2","SB2020_e2_10",1,"84",184,1,"VariableIntervalNback",3,1567,"Include"
"SB2020_e2","SB2020_e2_10",1,"34",185,1,"VariableIntervalNback",3,1174,"Include"
"SB2020_e2","SB2020_e2_10",1,"260",186,0,"VariableIntervalNback",3,1433,"Include"
"SB2020_e2","SB2020_e2_10",1,"100",187,1,"VariableIntervalNback",2,1861,"Include"
"SB2020_e2","SB2020_e2_10",1,"41",188,1,"VariableIntervalNback",5,2676,"Include"
"SB2020_e2","SB2020_e2_10",1,"247",189,0,"VariableIntervalNback",2,2666,"Include"
"SB2020_e2","SB2020_e2_10",1,"113",190,1,"VariableIntervalNback",2,1433,"Include"
"SB2020_e2","SB2020_e2_10",1,"219",191,0,"VariableIntervalNback",2,1434,"Include"
"SB2020_e2","SB2020_e2_10",1,"232",192,0,"VariableIntervalNback",2,992,"Include"
"SB2020_e2","SB2020_e2_10",1,"176",193,0,"VariableIntervalNback",2,952,"Include"
"SB2020_e2","SB2020_e2_10",1,"92",194,1,"VariableIntervalNback",5,1265,"Include"
"SB2020_e2","SB2020_e2_10",1,"248",195,0,"VariableIntervalNback",3,1280,"Include"
"SB2020_e2","SB2020_e2_10",1,"14",196,1,"VariableIntervalNback",3,861,"Include"
"SB2020_e2","SB2020_e2_10",1,"144",197,0,"VariableIntervalNback",4,1694,"Include"
"SB2020_e2","SB2020_e2_10",1,"178",198,0,"VariableIntervalNback",3,992,"Include"
"SB2020_e2","SB2020_e2_10",1,"173",199,0,"VariableIntervalNback",5,1484,"Include"
"SB2020_e2","SB2020_e2_10",1,"37",200,1,"VariableIntervalNback",5,1597,"Include"
"SB2020_e2","SB2020_e2_10",1,"70",201,1,"VariableIntervalNback",2,1286,"Include"
"SB2020_e2","SB2020_e2_10",1,"106",202,1,"VariableIntervalNback",2,1405,"Include"
"SB2020_e2","SB2020_e2_10",1,"204",203,0,"VariableIntervalNback",2,2012,"Include"
"SB2020_e2","SB2020_e2_10",1,"235",204,0,"VariableIntervalNback",2,905,"Include"
"SB2020_e2","SB2020_e2_10",1,"6",205,1,"VariableIntervalNback",2,2105,"Include"
"SB2020_e2","SB2020_e2_10",1,"258",206,0,"VariableIntervalNback",2,1220,"Include"
"SB2020_e2","SB2020_e2_10",1,"69",207,1,"VariableIntervalNback",2,803,"Include"
"SB2020_e2","SB2020_e2_10",1,"156",208,0,"VariableIntervalNback",2,1075,"Include"
"SB2020_e2","SB2020_e2_10",1,"174",209,0,"VariableIntervalNback",2,1732,"Include"
"SB2020_e2","SB2020_e2_10",1,"192",210,0,"VariableIntervalNback",4,2586,"Include"
"SB2020_e2","SB2020_e2_10",1,"203",211,0,"VariableIntervalNback",3,1174,"Include"
"SB2020_e2","SB2020_e2_10",1,"93",212,1,"VariableIntervalNback",2,967,"Include"
"SB2020_e2","SB2020_e2_10",1,"250",213,0,"VariableIntervalNback",2,2564,"Include"
"SB2020_e2","SB2020_e2_10",1,"38",214,1,"VariableIntervalNback",2,611,"Include"
"SB2020_e2","SB2020_e2_10",1,"230",215,0,"VariableIntervalNback",2,1061,"Include"
"SB2020_e2","SB2020_e2_10",1,"138",216,0,"VariableIntervalNback",2,952,"Include"
"SB2020_e2","SB2020_e2_10",1,"118",217,1,"VariableIntervalNback",3,3073,"Include"
"SB2020_e2","SB2020_e2_10",1,"164",218,0,"VariableIntervalNback",2,1617,"Include"
"SB2020_e2","SB2020_e2_10",1,"72",219,1,"VariableIntervalNback",3,830,"Include"
"SB2020_e2","SB2020_e2_10",1,"194",220,0,"VariableIntervalNback",4,2381,"Include"
"SB2020_e2","SB2020_e2_10",1,"12",221,1,"VariableIntervalNback",6,1038,"Include"
"SB2020_e2","SB2020_e2_10",1,"237",222,0,"VariableIntervalNback",3,972,"Include"
"SB2020_e2","SB2020_e2_10",1,"130",223,1,"VariableIntervalNback",2,2122,"Include"
"SB2020_e2","SB2020_e2_10",1,"135",224,0,"VariableIntervalNback",2,1099,"Include"
"SB2020_e2","SB2020_e2_10",1,"172",225,0,"VariableIntervalNback",2,1319,"Include"
"SB2020_e2","SB2020_e2_10",1,"53",226,1,"VariableIntervalNback",2,1248,"Include"
"SB2020_e2","SB2020_e2_10",1,"255",227,0,"VariableIntervalNback",2,945,"Include"
"SB2020_e2","SB2020_e2_10",1,"59",228,1,"VariableIntervalNback",5,1902,"Include"
"SB2020_e2","SB2020_e2_10",1,"159",229,0,"VariableIntervalNback",5,2289,"Include"
"SB2020_e2","SB2020_e2_10",1,"207",230,0,"VariableIntervalNback",3,1629,"Include"
"SB2020_e2","SB2020_e2_10",1,"231",231,0,"VariableIntervalNback",3,1220,"Include"
"SB2020_e2","SB2020_e2_10",1,"141",232,0,"VariableIntervalNback",4,1700,"Include"
"SB2020_e2","SB2020_e2_10",1,"29",233,1,"VariableIntervalNback",3,2121,"Include"
"SB2020_e2","SB2020_e2_10",1,"139",234,0,"VariableIntervalNback",2,1324,"Include"
"SB2020_e2","SB2020_e2_10",1,"200",235,0,"VariableIntervalNback",5,1363,"Include"
"SB2020_e2","SB2020_e2_10",1,"64",236,1,"VariableIntervalNback",4,1719,"Include"
"SB2020_e2","SB2020_e2_10",1,"48",237,1,"VariableIntervalNback",2,1508,"Include"
"SB2020_e2","SB2020_e2_10",1,"184",238,0,"VariableIntervalNback",2,1016,"Include"
"SB2020_e2","SB2020_e2_10",1,"181",239,0,"VariableIntervalNback",5,1902,"Include"
"SB2020_e2","SB2020_e2_10",1,"244",240,0,"VariableIntervalNback",3,1342,"Include"
"SB2020_e2","SB2020_e2_10",1,"142",241,0,"VariableIntervalNback",3,938,"Include"
"SB2020_e2","SB2020_e2_10",1,"88",242,1,"VariableIntervalNback",3,3323,"Include"
"SB2020_e2","SB2020_e2_10",1,"128",243,1,"VariableIntervalNback",3,2888,"Include"
"SB2020_e2","SB2020_e2_10",1,"222",244,0,"VariableIntervalNback",4,1793,"Include"
"SB2020_e2","SB2020_e2_10",1,"97",245,1,"VariableIntervalNback",3,1498,"Include"
"SB2020_e2","SB2020_e2_10",1,"43",246,1,"VariableIntervalNback",2,2058,"Include"
"SB2020_e2","SB2020_e2_10",1,"40",247,1,"VariableIntervalNback",2,2798,"Include"
"SB2020_e2","SB2020_e2_10",1,"152",248,0,"VariableIntervalNback",2,749,"Include"
"SB2020_e2","SB2020_e2_10",1,"182",249,0,"VariableIntervalNback",2,1065,"Include"
"SB2020_e2","SB2020_e2_10",1,"112",250,1,"VariableIntervalNback",4,2113,"Include"
"SB2020_e2","SB2020_e2_10",1,"186",251,0,"VariableIntervalNback",3,1007,"Include"
"SB2020_e2","SB2020_e2_10",1,"60",252,1,"VariableIntervalNback",5,1582,"Include"
"SB2020_e2","SB2020_e2_10",1,"163",253,0,"VariableIntervalNback",5,1807,"Include"
"SB2020_e2","SB2020_e2_10",1,"196",254,0,"VariableIntervalNback",3,870,"Include"
"SB2020_e2","SB2020_e2_10",1,"119",255,1,"VariableIntervalNback",5,1065,"Include"
"SB2020_e2","SB2020_e2_10",1,"95",256,1,"VariableIntervalNback",5,2631,"Include"
"SB2020_e2","SB2020_e2_10",1,"150",257,0,"VariableIntervalNback",3,2273,"Include"
"SB2020_e2","SB2020_e2_10",1,"110",258,1,"VariableIntervalNback",3,1522,"Include"
"SB2020_e2","SB2020_e2_10",1,"101",259,1,"VariableIntervalNback",5,1625,"Include"
"SB2020_e2","SB2020_e2_10",1,"171",260,0,"VariableIntervalNback",4,1732,"Include"
"SB2020_e2","SB2020_e2_10",2,"324",1,0,"FixedIntervalNback",5,3562,"Include"
"SB2020_e2","SB2020_e2_10",2,"99",2,1,"FixedIntervalNback",6,1143,"Include"
"SB2020_e2","SB2020_e2_10",2,"277",3,0,"FixedIntervalNback",5,1867,"Include"
"SB2020_e2","SB2020_e2_10",2,"309",4,0,"FixedIntervalNback",5,2541,"Include"
"SB2020_e2","SB2020_e2_10",2,"128",5,1,"FixedIntervalNback",5,1733,"Include"
"SB2020_e2","SB2020_e2_10",2,"379",6,0,"FixedIntervalNback",3,1987,"Include"
"SB2020_e2","SB2020_e2_10",2,"9",7,1,"FixedIntervalNback",5,1308,"Include"
"SB2020_e2","SB2020_e2_10",2,"87",8,1,"FixedIntervalNback",4,2087,"Include"
"SB2020_e2","SB2020_e2_10",2,"72",9,1,"FixedIntervalNback",6,1206,"Include"
"SB2020_e2","SB2020_e2_10",2,"57",10,1,"FixedIntervalNback",6,1345,"Include"
"SB2020_e2","SB2020_e2_10",2,"56",11,1,"FixedIntervalNback",4,1607,"Include"
"SB2020_e2","SB2020_e2_10",2,"301",12,0,"FixedIntervalNback",2,1246,"Include"
"SB2020_e2","SB2020_e2_10",2,"337",13,0,"FixedIntervalNback",2,1122,"Include"
"SB2020_e2","SB2020_e2_10",2,"17",14,1,"FixedIntervalNback",2,1669,"Include"
"SB2020_e2","SB2020_e2_10",2,"5",15,1,"FixedIntervalNback",6,1198,"Include"
"SB2020_e2","SB2020_e2_10",2,"70",16,1,"FixedIntervalNback",6,931,"Include"
"SB2020_e2","SB2020_e2_10",2,"267",17,0,"FixedIntervalNback",3,1827,"Include"
"SB2020_e2","SB2020_e2_10",2,"336",18,0,"FixedIntervalNback",5,1247,"Include"
"SB2020_e2","SB2020_e2_10",2,"342",19,0,"FixedIntervalNback",2,1195,"Include"
"SB2020_e2","SB2020_e2_10",2,"377",20,0,"FixedIntervalNback",4,2371,"Include"
"SB2020_e2","SB2020_e2_10",2,"354",21,0,"FixedIntervalNback",4,1157,"Include"
"SB2020_e2","SB2020_e2_10",2,"278",22,0,"FixedIntervalNback",3,1287,"Include"
"SB2020_e2","SB2020_e2_10",2,"312",23,0,"FixedIntervalNback",5,1161,"Include"
"SB2020_e2","SB2020_e2_10",2,"371",24,0,"FixedIntervalNback",5,1625,"Include"
"SB2020_e2","SB2020_e2_10",2,"19",25,1,"FixedIntervalNback",3,1055,"Include"
"SB2020_e2","SB2020_e2_10",2,"300",26,0,"FixedIntervalNback",2,998,"Include"
"SB2020_e2","SB2020_e2_10",2,"46",27,1,"FixedIntervalNback",5,1036,"Include"
"SB2020_e2","SB2020_e2_10",2,"27",28,1,"FixedIntervalNback",6,969,"Include"
"SB2020_e2","SB2020_e2_10",2,"365",29,0,"FixedIntervalNback",2,1012,"Include"
"SB2020_e2","SB2020_e2_10",2,"352",30,0,"FixedIntervalNback",1,1451,"Include"
"SB2020_e2","SB2020_e2_10",2,"375",31,0,"FixedIntervalNback",2,1482,"Include"
"SB2020_e2","SB2020_e2_10",2,"117",32,1,"FixedIntervalNback",5,1098,"Include"
"SB2020_e2","SB2020_e2_10",2,"388",33,0,"FixedIntervalNback",2,1087,"Include"
"SB2020_e2","SB2020_e2_10",2,"325",34,0,"FixedIntervalNback",2,851,"Include"
"SB2020_e2","SB2020_e2_10",2,"92",35,1,"FixedIntervalNback",5,931,"Include"
"SB2020_e2","SB2020_e2_10",2,"296",36,0,"FixedIntervalNback",5,1094,"Include"
"SB2020_e2","SB2020_e2_10",2,"29",37,1,"FixedIntervalNback",2,1066,"Include"
"SB2020_e2","SB2020_e2_10",2,"113",38,1,"FixedIntervalNback",2,681,"Include"
"SB2020_e2","SB2020_e2_10",2,"298",39,0,"FixedIntervalNback",2,745,"Include"
"SB2020_e2","SB2020_e2_10",2,"364",40,0,"FixedIntervalNback",2,640,"Include"
"SB2020_e2","SB2020_e2_10",2,"288",41,0,"FixedIntervalNback",2,948,"Include"
"SB2020_e2","SB2020_e2_10",2,"347",42,0,"FixedIntervalNback",3,1959,"Include"
"SB2020_e2","SB2020_e2_10",2,"39",43,1,"FixedIntervalNback",4,1103,"Include"
"SB2020_e2","SB2020_e2_10",2,"48",44,1,"FixedIntervalNback",3,1285,"Include"
"SB2020_e2","SB2020_e2_10",2,"272",45,0,"FixedIntervalNback",3,1170,"Include"
"SB2020_e2","SB2020_e2_10",2,"341",46,0,"FixedIntervalNback",4,2437,"Include"
"SB2020_e2","SB2020_e2_10",2,"316",47,0,"FixedIntervalNback",3,781,"Include"
"SB2020_e2","SB2020_e2_10",2,"380",48,0,"FixedIntervalNback",2,1872,"Include"
"SB2020_e2","SB2020_e2_10",2,"385",49,0,"FixedIntervalNback",2,1143,"Include"
"SB2020_e2","SB2020_e2_10",2,"302",50,0,"FixedIntervalNback",2,999,"Include"
"SB2020_e2","SB2020_e2_10",2,"320",51,0,"FixedIntervalNback",2,670,"Include"
"SB2020_e2","SB2020_e2_10",2,"80",52,1,"FixedIntervalNback",2,682,"Include"
"SB2020_e2","SB2020_e2_10",2,"389",53,0,"FixedIntervalNback",2,733,"Include"
"SB2020_e2","SB2020_e2_10",2,"263",54,0,"FixedIntervalNback",2,788,"Include"
"SB2020_e2","SB2020_e2_10",2,"304",55,0,"FixedIntervalNback",4,1101,"Include"
"SB2020_e2","SB2020_e2_10",2,"23",56,1,"FixedIntervalNback",4,763,"Include"
"SB2020_e2","SB2020_e2_10",2,"90",57,1,"FixedIntervalNback",4,1156,"Include"
"SB2020_e2","SB2020_e2_10",2,"362",58,0,"FixedIntervalNback",4,1664,"Include"
"SB2020_e2","SB2020_e2_10",2,"346",59,0,"FixedIntervalNback",3,974,"Include"
"SB2020_e2","SB2020_e2_10",2,"313",60,0,"FixedIntervalNback",2,1252,"Include"
"SB2020_e2","SB2020_e2_10",2,"36",61,1,"FixedIntervalNback",5,1143,"Include"
"SB2020_e2","SB2020_e2_10",2,"315",62,0,"FixedIntervalNback",4,1052,"Include"
"SB2020_e2","SB2020_e2_10",2,"112",63,1,"FixedIntervalNback",6,1110,"Include"
"SB2020_e2","SB2020_e2_10",2,"383",64,0,"FixedIntervalNback",3,1392,"Include"
"SB2020_e2","SB2020_e2_10",2,"289",65,0,"FixedIntervalNback",3,1240,"Include"
"SB2020_e2","SB2020_e2_10",2,"357",66,0,"FixedIntervalNback",3,862,"Include"
"SB2020_e2","SB2020_e2_10",2,"89",67,1,"FixedIntervalNback",5,1119,"Include"
"SB2020_e2","SB2020_e2_10",2,"292",68,0,"FixedIntervalNback",2,947,"Include"
"SB2020_e2","SB2020_e2_10",2,"73",69,1,"FixedIntervalNback",2,814,"Include"
"SB2020_e2","SB2020_e2_10",2,"93",70,1,"FixedIntervalNback",2,875,"Include"
"SB2020_e2","SB2020_e2_10",2,"261",71,0,"FixedIntervalNback",2,676,"Include"
"SB2020_e2","SB2020_e2_10",2,"328",72,0,"FixedIntervalNback",2,1104,"Include"
"SB2020_e2","SB2020_e2_10",2,"329",73,0,"FixedIntervalNback",2,1035,"Include"
"SB2020_e2","SB2020_e2_10",2,"79",74,1,"FixedIntervalNback",3,594,"Include"
"SB2020_e2","SB2020_e2_10",2,"363",75,0,"FixedIntervalNback",3,2215,"Include"
"SB2020_e2","SB2020_e2_10",2,"51",76,1,"FixedIntervalNback",5,1265,"Include"
"SB2020_e2","SB2020_e2_10",2,"360",77,0,"FixedIntervalNback",3,1178,"Include"
"SB2020_e2","SB2020_e2_10",2,"88",78,1,"FixedIntervalNback",3,857,"Include"
"SB2020_e2","SB2020_e2_10",2,"387",79,0,"FixedIntervalNback",3,888,"Include"
"SB2020_e2","SB2020_e2_10",2,"299",80,0,"FixedIntervalNback",3,604,"Include"
"SB2020_e2","SB2020_e2_10",2,"33",81,1,"FixedIntervalNback",4,867,"Include"
"SB2020_e2","SB2020_e2_10",2,"50",82,1,"FixedIntervalNback",3,959,"Include"
"SB2020_e2","SB2020_e2_10",2,"74",83,1,"FixedIntervalNback",5,1000,"Include"
"SB2020_e2","SB2020_e2_10",2,"22",84,1,"FixedIntervalNback",2,999,"Include"
"SB2020_e2","SB2020_e2_10",2,"28",85,1,"FixedIntervalNback",6,1298,"Include"
"SB2020_e2","SB2020_e2_10",2,"11",86,1,"FixedIntervalNback",6,894,"Include"
"SB2020_e2","SB2020_e2_10",2,"61",87,1,"FixedIntervalNback",4,1323,"Include"
"SB2020_e2","SB2020_e2_10",2,"285",88,0,"FixedIntervalNback",3,1638,"Include"
"SB2020_e2","SB2020_e2_10",2,"63",89,1,"FixedIntervalNback",3,1699,"Include"
"SB2020_e2","SB2020_e2_10",2,"78",90,1,"FixedIntervalNback",3,1135,"Include"
"SB2020_e2","SB2020_e2_10",2,"129",91,1,"FixedIntervalNback",4,1029,"Include"
"SB2020_e2","SB2020_e2_10",2,"35",92,1,"FixedIntervalNback",3,739,"Include"
"SB2020_e2","SB2020_e2_10",2,"344",93,0,"FixedIntervalNback",3,895,"Include"
"SB2020_e2","SB2020_e2_10",2,"100",94,1,"FixedIntervalNback",3,830,"Include"
"SB2020_e2","SB2020_e2_10",2,"122",95,1,"FixedIntervalNback",6,1440,"Include"
"SB2020_e2","SB2020_e2_10",2,"332",96,0,"FixedIntervalNback",2,819,"Include"
"SB2020_e2","SB2020_e2_10",2,"384",97,0,"FixedIntervalNback",2,1141,"Include"
"SB2020_e2","SB2020_e2_10",2,"125",98,1,"FixedIntervalNback",6,1067,"Include"
"SB2020_e2","SB2020_e2_10",2,"280",99,0,"FixedIntervalNback",2,796,"Include"
"SB2020_e2","SB2020_e2_10",2,"318",100,0,"FixedIntervalNback",2,948,"Include"
"SB2020_e2","SB2020_e2_10",2,"376",101,0,"FixedIntervalNback",2,1168,"Include"
"SB2020_e2","SB2020_e2_10",2,"358",102,0,"FixedIntervalNback",2,750,"Include"
"SB2020_e2","SB2020_e2_10",2,"64",103,1,"FixedIntervalNback",6,1213,"Include"
"SB2020_e2","SB2020_e2_10",2,"372",104,0,"FixedIntervalNback",2,894,"Include"
"SB2020_e2","SB2020_e2_10",2,"294",105,0,"FixedIntervalNback",2,913,"Include"
"SB2020_e2","SB2020_e2_10",2,"82",106,1,"FixedIntervalNback",2,1245,"Include"
"SB2020_e2","SB2020_e2_10",2,"13",107,1,"FixedIntervalNback",5,1711,"Include"
"SB2020_e2","SB2020_e2_10",2,"279",108,0,"FixedIntervalNback",3,1321,"Include"
"SB2020_e2","SB2020_e2_10",2,"30",109,1,"FixedIntervalNback",4,1611,"Include"
"SB2020_e2","SB2020_e2_10",2,"322",110,0,"FixedIntervalNback",3,1608,"Include"
"SB2020_e2","SB2020_e2_10",2,"68",111,1,"FixedIntervalNback",2,1612,"Include"
"SB2020_e2","SB2020_e2_10",2,"306",112,0,"FixedIntervalNback",2,911,"Include"
"SB2020_e2","SB2020_e2_10",2,"69",113,1,"FixedIntervalNback",6,2114,"Include"
"SB2020_e2","SB2020_e2_10",2,"119",114,1,"FixedIntervalNback",5,1292,"Include"
"SB2020_e2","SB2020_e2_10",2,"38",115,1,"FixedIntervalNback",2,1213,"Include"
"SB2020_e2","SB2020_e2_10",2,"124",116,1,"FixedIntervalNback",6,939,"Include"
"SB2020_e2","SB2020_e2_10",2,"86",117,1,"FixedIntervalNback",6,893,"Include"
"SB2020_e2","SB2020_e2_10",2,"374",118,0,"FixedIntervalNback",3,1151,"Include"
"SB2020_e2","SB2020_e2_10",2,"55",119,1,"FixedIntervalNback",6,1175,"Include"
"SB2020_e2","SB2020_e2_10",2,"45",120,1,"FixedIntervalNback",5,1087,"Include"
"SB2020_e2","SB2020_e2_10",2,"12",121,1,"FixedIntervalNback",2,1319,"Include"
"SB2020_e2","SB2020_e2_10",2,"34",122,1,"FixedIntervalNback",5,1314,"Include"
"SB2020_e2","SB2020_e2_10",2,"330",123,0,"FixedIntervalNback",2,817,"Include"
"SB2020_e2","SB2020_e2_10",2,"335",124,0,"FixedIntervalNback",3,2068,"Include"
"SB2020_e2","SB2020_e2_10",2,"126",125,1,"FixedIntervalNback",3,813,"Include"
"SB2020_e2","SB2020_e2_10",2,"369",126,0,"FixedIntervalNback",4,1663,"Include"
"SB2020_e2","SB2020_e2_10",2,"95",127,1,"FixedIntervalNback",3,789,"Include"
"SB2020_e2","SB2020_e2_10",2,"307",128,0,"FixedIntervalNback",3,1432,"Include"
"SB2020_e2","SB2020_e2_10",2,"53",129,1,"FixedIntervalNback",4,1135,"Include"
"SB2020_e2","SB2020_e2_10",2,"43",130,1,"FixedIntervalNback",4,1574,"Include"
"SB2020_e2","SB2020_e2_10",2,"368",131,0,"FixedIntervalNback",5,1058,"Include"
"SB2020_e2","SB2020_e2_10",2,"287",132,0,"FixedIntervalNback",3,810,"Include"
"SB2020_e2","SB2020_e2_10",2,"297",133,0,"FixedIntervalNback",3,1181,"Include"
"SB2020_e2","SB2020_e2_10",2,"65",134,1,"FixedIntervalNback",5,1023,"Include"
"SB2020_e2","SB2020_e2_10",2,"266",135,0,"FixedIntervalNback",3,860,"Include"
"SB2020_e2","SB2020_e2_10",2,"338",136,0,"FixedIntervalNback",2,1178,"Include"
"SB2020_e2","SB2020_e2_10",2,"118",137,1,"FixedIntervalNback",5,1025,"Include"
"SB2020_e2","SB2020_e2_10",2,"356",138,0,"FixedIntervalNback",4,1575,"Include"
"SB2020_e2","SB2020_e2_10",2,"348",139,0,"FixedIntervalNback",4,1859,"Include"
"SB2020_e2","SB2020_e2_10",2,"3",140,1,"FixedIntervalNback",3,766,"Include"
"SB2020_e2","SB2020_e2_10",2,"102",141,1,"FixedIntervalNback",3,734,"Include"
"SB2020_e2","SB2020_e2_10",2,"4",142,1,"FixedIntervalNback",2,1178,"Include"
"SB2020_e2","SB2020_e2_10",2,"20",143,1,"FixedIntervalNback",5,1564,"Include"
"SB2020_e2","SB2020_e2_10",2,"265",144,0,"FixedIntervalNback",3,1149,"Include"
"SB2020_e2","SB2020_e2_10",2,"103",145,1,"FixedIntervalNback",4,1313,"Include"
"SB2020_e2","SB2020_e2_10",2,"327",146,0,"FixedIntervalNback",3,894,"Include"
"SB2020_e2","SB2020_e2_10",2,"67",147,1,"FixedIntervalNback",5,962,"Include"
"SB2020_e2","SB2020_e2_10",2,"123",148,1,"FixedIntervalNback",2,835,"Include"
"SB2020_e2","SB2020_e2_10",2,"96",149,1,"FixedIntervalNback",3,664,"Include"
"SB2020_e2","SB2020_e2_10",2,"91",150,1,"FixedIntervalNback",3,888,"Include"
"SB2020_e2","SB2020_e2_10",2,"52",151,1,"FixedIntervalNback",3,1109,"Include"
"SB2020_e2","SB2020_e2_10",2,"24",152,1,"FixedIntervalNback",2,808,"Include"
"SB2020_e2","SB2020_e2_10",2,"291",153,0,"FixedIntervalNback",4,1281,"Include"
"SB2020_e2","SB2020_e2_10",2,"15",154,1,"FixedIntervalNback",6,925,"Include"
"SB2020_e2","SB2020_e2_10",2,"44",155,1,"FixedIntervalNback",5,1054,"Include"
"SB2020_e2","SB2020_e2_10",2,"273",156,0,"FixedIntervalNback",4,1973,"Include"
"SB2020_e2","SB2020_e2_10",2,"382",157,0,"FixedIntervalNback",5,961,"Include"
"SB2020_e2","SB2020_e2_10",2,"350",158,0,"FixedIntervalNback",2,845,"Include"
"SB2020_e2","SB2020_e2_10",2,"98",159,1,"FixedIntervalNback",6,949,"Include"
"SB2020_e2","SB2020_e2_10",2,"83",160,1,"FixedIntervalNback",2,849,"Include"
"SB2020_e2","SB2020_e2_10",2,"314",161,0,"FixedIntervalNback",2,960,"Include"
"SB2020_e2","SB2020_e2_10",2,"349",162,0,"FixedIntervalNback",2,924,"Include"
"SB2020_e2","SB2020_e2_10",2,"21",163,1,"FixedIntervalNback",2,608,"Include"
"SB2020_e2","SB2020_e2_10",2,"284",164,0,"FixedIntervalNback",2,743,"Include"
"SB2020_e2","SB2020_e2_10",2,"334",165,0,"FixedIntervalNback",3,1131,"Include"
"SB2020_e2","SB2020_e2_10",2,"7",166,1,"FixedIntervalNback",6,1058,"Include"
"SB2020_e2","SB2020_e2_10",2,"104",167,1,"FixedIntervalNback",6,887,"Include"
"SB2020_e2","SB2020_e2_10",2,"281",168,0,"FixedIntervalNback",4,1433,"Include"
"SB2020_e2","SB2020_e2_10",2,"85",169,1,"FixedIntervalNback",5,1054,"Include"
"SB2020_e2","SB2020_e2_10",2,"262",170,0,"FixedIntervalNback",3,1492,"Include"
"SB2020_e2","SB2020_e2_10",2,"295",171,0,"FixedIntervalNback",3,1603,"Include"
"SB2020_e2","SB2020_e2_10",2,"130",172,1,"FixedIntervalNback",3,918,"Include"
"SB2020_e2","SB2020_e2_10",2,"359",173,0,"FixedIntervalNback",2,2387,"Include"
"SB2020_e2","SB2020_e2_10",2,"390",174,0,"FixedIntervalNback",1,1046,"Include"
"SB2020_e2","SB2020_e2_10",2,"367",175,0,"FixedIntervalNback",2,1068,"Include"
"SB2020_e2","SB2020_e2_10",2,"121",176,1,"FixedIntervalNback",4,3100,"Include"
"SB2020_e2","SB2020_e2_10",2,"8",177,1,"FixedIntervalNback",4,1039,"Include"
"SB2020_e2","SB2020_e2_10",2,"76",178,1,"FixedIntervalNback",4,1062,"Include"
"SB2020_e2","SB2020_e2_10",2,"59",179,1,"FixedIntervalNback",2,984,"Include"
"SB2020_e2","SB2020_e2_10",2,"115",180,1,"FixedIntervalNback",6,1307,"Include"
"SB2020_e2","SB2020_e2_10",2,"97",181,1,"FixedIntervalNback",4,1555,"Include"
"SB2020_e2","SB2020_e2_10",2,"321",182,0,"FixedIntervalNback",5,1364,"Include"
"SB2020_e2","SB2020_e2_10",2,"31",183,1,"FixedIntervalNback",6,1159,"Include"
"SB2020_e2","SB2020_e2_10",2,"114",184,1,"FixedIntervalNback",4,1129,"Include"
"SB2020_e2","SB2020_e2_10",2,"94",185,1,"FixedIntervalNback",6,1019,"Include"
"SB2020_e2","SB2020_e2_10",2,"339",186,0,"FixedIntervalNback",3,1324,"Include"
"SB2020_e2","SB2020_e2_10",2,"108",187,1,"FixedIntervalNback",6,1104,"Include"
"SB2020_e2","SB2020_e2_10",2,"264",188,0,"FixedIntervalNback",5,1080,"Include"
"SB2020_e2","SB2020_e2_10",2,"105",189,1,"FixedIntervalNback",5,1179,"Include"
"SB2020_e2","SB2020_e2_10",2,"276",190,0,"FixedIntervalNback",2,891,"Include"
"SB2020_e2","SB2020_e2_10",2,"110",191,1,"FixedIntervalNback",2,745,"Include"
"SB2020_e2","SB2020_e2_10",2,"47",192,1,"FixedIntervalNback",2,837,"Include"
"SB2020_e2","SB2020_e2_10",2,"366",193,0,"FixedIntervalNback",2,847,"Include"
"SB2020_e2","SB2020_e2_10",2,"381",194,0,"FixedIntervalNback",3,1103,"Include"
"SB2020_e2","SB2020_e2_10",2,"16",195,1,"FixedIntervalNback",3,705,"Include"
"SB2020_e2","SB2020_e2_10",2,"71",196,1,"FixedIntervalNback",6,870,"Include"
"SB2020_e2","SB2020_e2_10",2,"58",197,1,"FixedIntervalNback",5,990,"Include"
"SB2020_e2","SB2020_e2_10",2,"41",198,1,"FixedIntervalNback",5,1556,"Include"
"SB2020_e2","SB2020_e2_10",2,"373",199,0,"FixedIntervalNback",2,1190,"Include"
"SB2020_e2","SB2020_e2_10",2,"323",200,0,"FixedIntervalNback",3,1007,"Include"
"SB2020_e2","SB2020_e2_10",2,"355",201,0,"FixedIntervalNback",3,795,"Include"
"SB2020_e2","SB2020_e2_10",2,"333",202,0,"FixedIntervalNback",3,710,"Include"
"SB2020_e2","SB2020_e2_10",2,"351",203,0,"FixedIntervalNback",3,808,"Include"
"SB2020_e2","SB2020_e2_10",2,"66",204,1,"FixedIntervalNback",3,1237,"Include"
"SB2020_e2","SB2020_e2_10",2,"270",205,0,"FixedIntervalNback",3,2647,"Include"
"SB2020_e2","SB2020_e2_10",2,"26",206,1,"FixedIntervalNback",3,479,"Include"
"SB2020_e2","SB2020_e2_10",2,"340",207,0,"FixedIntervalNback",3,914,"Include"
"SB2020_e2","SB2020_e2_10",2,"111",208,1,"FixedIntervalNback",3,1034,"Include"
"SB2020_e2","SB2020_e2_10",2,"42",209,1,"FixedIntervalNback",3,765,"Include"
"SB2020_e2","SB2020_e2_10",2,"54",210,1,"FixedIntervalNback",3,1169,"Include"
"SB2020_e2","SB2020_e2_10",2,"370",211,0,"FixedIntervalNback",3,838,"Include"
"SB2020_e2","SB2020_e2_10",2,"303",212,0,"FixedIntervalNback",3,1090,"Include"
"SB2020_e2","SB2020_e2_10",2,"378",213,0,"FixedIntervalNback",5,1100,"Include"
"SB2020_e2","SB2020_e2_10",2,"120",214,1,"FixedIntervalNback",5,1655,"Include"
"SB2020_e2","SB2020_e2_10",2,"37",215,1,"FixedIntervalNback",3,1083,"Include"
"SB2020_e2","SB2020_e2_10",2,"77",216,1,"FixedIntervalNback",5,1368,"Include"
"SB2020_e2","SB2020_e2_10",2,"127",217,1,"FixedIntervalNback",6,948,"Include"
"SB2020_e2","SB2020_e2_10",2,"305",218,0,"FixedIntervalNback",2,1138,"Include"
"SB2020_e2","SB2020_e2_10",2,"1",219,1,"FixedIntervalNback",2,1428,"Include"
"SB2020_e2","SB2020_e2_10",2,"310",220,0,"FixedIntervalNback",2,895,"Include"
"SB2020_e2","SB2020_e2_10",2,"18",221,1,"FixedIntervalNback",3,732,"Include"
"SB2020_e2","SB2020_e2_10",2,"326",222,0,"FixedIntervalNback",3,1045,"Include"
"SB2020_e2","SB2020_e2_10",2,"353",223,0,"FixedIntervalNback",3,1237,"Include"
"SB2020_e2","SB2020_e2_10",2,"40",224,1,"FixedIntervalNback",2,1466,"Include"
"SB2020_e2","SB2020_e2_10",2,"293",225,0,"FixedIntervalNback",2,1013,"Include"
"SB2020_e2","SB2020_e2_10",2,"274",226,0,"FixedIntervalNback",2,620,"Include"
"SB2020_e2","SB2020_e2_10",2,"308",227,0,"FixedIntervalNback",2,1037,"Include"
"SB2020_e2","SB2020_e2_10",2,"271",228,0,"FixedIntervalNback",2,1110,"Include"
"SB2020_e2","SB2020_e2_10",2,"81",229,1,"FixedIntervalNback",2,731,"Include"
"SB2020_e2","SB2020_e2_10",2,"32",230,1,"FixedIntervalNback",2,684,"Include"
"SB2020_e2","SB2020_e2_10",2,"14",231,1,"FixedIntervalNback",2,801,"Include"
"SB2020_e2","SB2020_e2_10",2,"311",232,0,"FixedIntervalNback",2,696,"Include"
"SB2020_e2","SB2020_e2_10",2,"6",233,1,"FixedIntervalNback",2,804,"Include"
"SB2020_e2","SB2020_e2_10",2,"109",234,1,"FixedIntervalNback",5,1136,"Include"
"SB2020_e2","SB2020_e2_10",2,"116",235,1,"FixedIntervalNback",2,1467,"Include"
"SB2020_e2","SB2020_e2_10",2,"269",236,0,"FixedIntervalNback",4,2158,"Include"
"SB2020_e2","SB2020_e2_10",2,"361",237,0,"FixedIntervalNback",4,793,"Include"
"SB2020_e2","SB2020_e2_10",2,"107",238,1,"FixedIntervalNback",6,1249,"Include"
"SB2020_e2","SB2020_e2_10",2,"62",239,1,"FixedIntervalNback",5,1652,"Include"
"SB2020_e2","SB2020_e2_10",2,"386",240,0,"FixedIntervalNback",3,914,"Include"
"SB2020_e2","SB2020_e2_10",2,"25",241,1,"FixedIntervalNback",5,1058,"Include"
"SB2020_e2","SB2020_e2_10",2,"268",242,0,"FixedIntervalNback",5,755,"Include"
"SB2020_e2","SB2020_e2_10",2,"343",243,0,"FixedIntervalNback",4,714,"Include"
"SB2020_e2","SB2020_e2_10",2,"331",244,0,"FixedIntervalNback",3,1026,"Include"
"SB2020_e2","SB2020_e2_10",2,"101",245,1,"FixedIntervalNback",5,1021,"Include"
"SB2020_e2","SB2020_e2_10",2,"10",246,1,"FixedIntervalNback",3,857,"Include"
"SB2020_e2","SB2020_e2_10",2,"290",247,0,"FixedIntervalNback",2,1313,"Include"
"SB2020_e2","SB2020_e2_10",2,"60",248,1,"FixedIntervalNback",6,1660,"Include"
"SB2020_e2","SB2020_e2_10",2,"317",249,0,"FixedIntervalNback",3,1032,"Include"
"SB2020_e2","SB2020_e2_10",2,"75",250,1,"FixedIntervalNback",3,837,"Include"
"SB2020_e2","SB2020_e2_10",2,"49",251,1,"FixedIntervalNback",4,691,"Include"
"SB2020_e2","SB2020_e2_10",2,"106",252,1,"FixedIntervalNback",4,918,"Include"
"SB2020_e2","SB2020_e2_10",2,"345",253,0,"FixedIntervalNback",4,602,"Include"
"SB2020_e2","SB2020_e2_10",2,"84",254,1,"FixedIntervalNback",5,1007,"Include"
"SB2020_e2","SB2020_e2_10",2,"283",255,0,"FixedIntervalNback",5,1030,"Include"
"SB2020_e2","SB2020_e2_10",2,"2",256,1,"FixedIntervalNback",3,1228,"Include"
"SB2020_e2","SB2020_e2_10",2,"286",257,0,"FixedIntervalNback",3,1075,"Include"
"SB2020_e2","SB2020_e2_10",2,"282",258,0,"FixedIntervalNback",5,1333,"Include"
"SB2020_e2","SB2020_e2_10",2,"319",259,0,"FixedIntervalNback",2,852,"Include"
"SB2020_e2","SB2020_e2_10",2,"275",260,0,"FixedIntervalNback",2,1125,"Include"
"SB2020_e2","SB2020_e2_11",1,"500",1,0,"FixedIntervalNback",5,4186,"Include"
"SB2020_e2","SB2020_e2_11",1,"195",2,1,"FixedIntervalNback",4,2314,"Include"
"SB2020_e2","SB2020_e2_11",1,"242",3,1,"FixedIntervalNback",1,1307,"Include"
"SB2020_e2","SB2020_e2_11",1,"229",4,1,"FixedIntervalNback",2,1040,"Include"
"SB2020_e2","SB2020_e2_11",1,"495",5,0,"FixedIntervalNback",2,2790,"Include"
"SB2020_e2","SB2020_e2_11",1,"187",6,1,"FixedIntervalNback",3,3363,"Include"
"SB2020_e2","SB2020_e2_11",1,"411",7,0,"FixedIntervalNback",4,3567,"Include"
"SB2020_e2","SB2020_e2_11",1,"430",8,0,"FixedIntervalNback",3,2298,"Include"
"SB2020_e2","SB2020_e2_11",1,"400",9,0,"FixedIntervalNback",4,2830,"Include"
"SB2020_e2","SB2020_e2_11",1,"230",10,1,"FixedIntervalNback",2,1334,"Include"
"SB2020_e2","SB2020_e2_11",1,"394",11,0,"FixedIntervalNback",5,2107,"Include"
"SB2020_e2","SB2020_e2_11",1,"213",12,1,"FixedIntervalNback",2,4392,"Include"
"SB2020_e2","SB2020_e2_11",1,"142",13,1,"FixedIntervalNback",6,2149,"Include"
"SB2020_e2","SB2020_e2_11",1,"177",14,1,"FixedIntervalNback",4,1502,"Include"
"SB2020_e2","SB2020_e2_11",1,"200",15,1,"FixedIntervalNback",5,1431,"Include"
"SB2020_e2","SB2020_e2_11",1,"445",16,0,"FixedIntervalNback",3,2226,"Include"
"SB2020_e2","SB2020_e2_11",1,"204",17,1,"FixedIntervalNback",6,1460,"Include"
"SB2020_e2","SB2020_e2_11",1,"474",18,0,"FixedIntervalNback",4,1841,"Include"
"SB2020_e2","SB2020_e2_11",1,"190",19,1,"FixedIntervalNback",2,1426,"Include"
"SB2020_e2","SB2020_e2_11",1,"408",20,0,"FixedIntervalNback",3,1451,"Include"
"SB2020_e2","SB2020_e2_11",1,"472",21,0,"FixedIntervalNback",3,1265,"Include"
"SB2020_e2","SB2020_e2_11",1,"208",22,1,"FixedIntervalNback",2,1223,"Include"
"SB2020_e2","SB2020_e2_11",1,"247",23,1,"FixedIntervalNback",3,1174,"Include"
"SB2020_e2","SB2020_e2_11",1,"410",24,0,"FixedIntervalNback",3,980,"Include"
"SB2020_e2","SB2020_e2_11",1,"424",25,0,"FixedIntervalNback",3,995,"Include"
"SB2020_e2","SB2020_e2_11",1,"520",26,0,"FixedIntervalNback",2,870,"Include"
"SB2020_e2","SB2020_e2_11",1,"504",27,0,"FixedIntervalNback",2,885,"Include"
"SB2020_e2","SB2020_e2_11",1,"189",28,1,"FixedIntervalNback",5,718,"Include"
"SB2020_e2","SB2020_e2_11",1,"508",29,0,"FixedIntervalNback",3,3453,"Include"
"SB2020_e2","SB2020_e2_11",1,"401",30,0,"FixedIntervalNback",5,1477,"Include"
"SB2020_e2","SB2020_e2_11",1,"217",31,1,"FixedIntervalNback",3,1267,"Include"
"SB2020_e2","SB2020_e2_11",1,"473",32,0,"FixedIntervalNback",3,2388,"Include"
"SB2020_e2","SB2020_e2_11",1,"246",33,1,"FixedIntervalNback",6,1792,"Include"
"SB2020_e2","SB2020_e2_11",1,"196",34,1,"FixedIntervalNback",5,1656,"Include"
"SB2020_e2","SB2020_e2_11",1,"439",35,0,"FixedIntervalNback",3,3035,"Include"
"SB2020_e2","SB2020_e2_11",1,"463",36,0,"FixedIntervalNback",3,1105,"Include"
"SB2020_e2","SB2020_e2_11",1,"227",37,1,"FixedIntervalNback",4,3266,"Include"
"SB2020_e2","SB2020_e2_11",1,"249",38,1,"FixedIntervalNback",3,1255,"Include"
"SB2020_e2","SB2020_e2_11",1,"513",39,0,"FixedIntervalNback",2,2108,"Include"
"SB2020_e2","SB2020_e2_11",1,"197",40,1,"FixedIntervalNback",4,1647,"Include"
"SB2020_e2","SB2020_e2_11",1,"447",41,0,"FixedIntervalNback",3,1853,"Include"
"SB2020_e2","SB2020_e2_11",1,"157",42,1,"FixedIntervalNback",5,4017,"Include"
"SB2020_e2","SB2020_e2_11",1,"491",43,0,"FixedIntervalNback",3,1590,"Include"
"SB2020_e2","SB2020_e2_11",1,"449",44,0,"FixedIntervalNback",2,2120,"Include"
"SB2020_e2","SB2020_e2_11",1,"232",45,1,"FixedIntervalNback",3,1388,"Include"
"SB2020_e2","SB2020_e2_11",1,"255",46,1,"FixedIntervalNback",6,1518,"Include"
"SB2020_e2","SB2020_e2_11",1,"518",47,0,"FixedIntervalNback",4,1897,"Include"
"SB2020_e2","SB2020_e2_11",1,"158",48,1,"FixedIntervalNback",4,1084,"Include"
"SB2020_e2","SB2020_e2_11",1,"422",49,0,"FixedIntervalNback",3,1619,"Include"
"SB2020_e2","SB2020_e2_11",1,"239",50,1,"FixedIntervalNback",3,1502,"Include"
"SB2020_e2","SB2020_e2_11",1,"178",51,1,"FixedIntervalNback",5,1212,"Include"
"SB2020_e2","SB2020_e2_11",1,"484",52,0,"FixedIntervalNback",4,2237,"Include"
"SB2020_e2","SB2020_e2_11",1,"509",53,0,"FixedIntervalNback",3,2457,"Include"
"SB2020_e2","SB2020_e2_11",1,"514",54,0,"FixedIntervalNback",3,1895,"Include"
"SB2020_e2","SB2020_e2_11",1,"152",55,1,"FixedIntervalNback",5,1244,"Include"
"SB2020_e2","SB2020_e2_11",1,"159",56,1,"FixedIntervalNback",5,1732,"Include"
"SB2020_e2","SB2020_e2_11",1,"149",57,1,"FixedIntervalNback",6,1051,"Include"
"SB2020_e2","SB2020_e2_11",1,"421",58,0,"FixedIntervalNback",3,1540,"Include"
"SB2020_e2","SB2020_e2_11",1,"192",59,1,"FixedIntervalNback",6,1556,"Include"
"SB2020_e2","SB2020_e2_11",1,"144",60,1,"FixedIntervalNback",2,1077,"Include"
"SB2020_e2","SB2020_e2_11",1,"406",61,0,"FixedIntervalNback",2,1636,"Include"
"SB2020_e2","SB2020_e2_11",1,"254",62,1,"FixedIntervalNback",5,1435,"Include"
"SB2020_e2","SB2020_e2_11",1,"438",63,0,"FixedIntervalNback",3,3187,"Include"
"SB2020_e2","SB2020_e2_11",1,"477",64,0,"FixedIntervalNback",3,1316,"Include"
"SB2020_e2","SB2020_e2_11",1,"506",65,0,"FixedIntervalNback",2,1185,"Include"
"SB2020_e2","SB2020_e2_11",1,"228",66,1,"FixedIntervalNback",2,1264,"Include"
"SB2020_e2","SB2020_e2_11",1,"413",67,0,"FixedIntervalNback",2,891,"Include"
"SB2020_e2","SB2020_e2_11",1,"151",68,1,"FixedIntervalNback",4,1231,"Include"
"SB2020_e2","SB2020_e2_11",1,"150",69,1,"FixedIntervalNback",3,735,"Include"
"SB2020_e2","SB2020_e2_11",1,"423",70,0,"FixedIntervalNback",3,682,"Include"
"SB2020_e2","SB2020_e2_11",1,"234",71,1,"FixedIntervalNback",2,811,"Include"
"SB2020_e2","SB2020_e2_11",1,"203",72,1,"FixedIntervalNback",2,775,"Include"
"SB2020_e2","SB2020_e2_11",1,"256",73,1,"FixedIntervalNback",3,1242,"Include"
"SB2020_e2","SB2020_e2_11",1,"482",74,0,"FixedIntervalNback",4,1120,"Include"
"SB2020_e2","SB2020_e2_11",1,"184",75,1,"FixedIntervalNback",4,778,"Include"
"SB2020_e2","SB2020_e2_11",1,"181",76,1,"FixedIntervalNback",3,729,"Include"
"SB2020_e2","SB2020_e2_11",1,"392",77,0,"FixedIntervalNback",2,920,"Include"
"SB2020_e2","SB2020_e2_11",1,"488",78,0,"FixedIntervalNback",2,1698,"Include"
"SB2020_e2","SB2020_e2_11",1,"180",79,1,"FixedIntervalNback",6,1542,"Include"
"SB2020_e2","SB2020_e2_11",1,"432",80,0,"FixedIntervalNback",4,1644,"Include"
"SB2020_e2","SB2020_e2_11",1,"428",81,0,"FixedIntervalNback",2,1869,"Include"
"SB2020_e2","SB2020_e2_11",1,"434",82,0,"FixedIntervalNback",3,1533,"Include"
"SB2020_e2","SB2020_e2_11",1,"442",83,0,"FixedIntervalNback",3,757,"Include"
"SB2020_e2","SB2020_e2_11",1,"426",84,0,"FixedIntervalNback",2,1945,"Include"
"SB2020_e2","SB2020_e2_11",1,"517",85,0,"FixedIntervalNback",2,1007,"Include"
"SB2020_e2","SB2020_e2_11",1,"486",86,0,"FixedIntervalNback",4,3692,"Include"
"SB2020_e2","SB2020_e2_11",1,"464",87,0,"FixedIntervalNback",3,1479,"Include"
"SB2020_e2","SB2020_e2_11",1,"436",88,0,"FixedIntervalNback",3,887,"Include"
"SB2020_e2","SB2020_e2_11",1,"425",89,0,"FixedIntervalNback",3,3078,"Include"
"SB2020_e2","SB2020_e2_11",1,"451",90,0,"FixedIntervalNback",4,822,"Include"
"SB2020_e2","SB2020_e2_11",1,"440",91,0,"FixedIntervalNback",2,2463,"Include"
"SB2020_e2","SB2020_e2_11",1,"253",92,1,"FixedIntervalNback",2,1366,"Include"
"SB2020_e2","SB2020_e2_11",1,"207",93,1,"FixedIntervalNback",3,1492,"Include"
"SB2020_e2","SB2020_e2_11",1,"136",94,1,"FixedIntervalNback",3,2701,"Include"
"SB2020_e2","SB2020_e2_11",1,"156",95,1,"FixedIntervalNback",4,841,"Include"
"SB2020_e2","SB2020_e2_11",1,"174",96,1,"FixedIntervalNback",3,1080,"Include"
"SB2020_e2","SB2020_e2_11",1,"148",97,1,"FixedIntervalNback",4,1310,"Include"
"SB2020_e2","SB2020_e2_11",1,"409",98,0,"FixedIntervalNback",6,1120,"Include"
"SB2020_e2","SB2020_e2_11",1,"172",99,1,"FixedIntervalNback",6,1568,"Include"
"SB2020_e2","SB2020_e2_11",1,"467",100,0,"FixedIntervalNback",4,4590,"Include"
"SB2020_e2","SB2020_e2_11",1,"519",101,0,"FixedIntervalNback",2,1327,"Include"
"SB2020_e2","SB2020_e2_11",1,"466",102,0,"FixedIntervalNback",1,1691,"Include"
"SB2020_e2","SB2020_e2_11",1,"258",103,1,"FixedIntervalNback",2,1355,"Include"
"SB2020_e2","SB2020_e2_11",1,"237",104,1,"FixedIntervalNback",2,1217,"Include"
"SB2020_e2","SB2020_e2_11",1,"179",105,1,"FixedIntervalNback",4,3774,"Include"
"SB2020_e2","SB2020_e2_11",1,"176",106,1,"FixedIntervalNback",3,1080,"Include"
"SB2020_e2","SB2020_e2_11",1,"492",107,0,"FixedIntervalNback",2,1228,"Include"
"SB2020_e2","SB2020_e2_11",1,"244",108,1,"FixedIntervalNback",2,1078,"Include"
"SB2020_e2","SB2020_e2_11",1,"483",109,0,"FixedIntervalNback",2,1395,"Include"
"SB2020_e2","SB2020_e2_11",1,"260",110,1,"FixedIntervalNback",1,1121,"Include"
"SB2020_e2","SB2020_e2_11",1,"441",111,0,"FixedIntervalNback",3,1221,"Include"
"SB2020_e2","SB2020_e2_11",1,"446",112,0,"FixedIntervalNback",4,1527,"Include"
"SB2020_e2","SB2020_e2_11",1,"479",113,0,"FixedIntervalNback",4,1652,"Include"
"SB2020_e2","SB2020_e2_11",1,"206",114,1,"FixedIntervalNback",2,1185,"Include"
"SB2020_e2","SB2020_e2_11",1,"205",115,1,"FixedIntervalNback",2,1138,"Include"
"SB2020_e2","SB2020_e2_11",1,"465",116,0,"FixedIntervalNback",1,1532,"Include"
"SB2020_e2","SB2020_e2_11",1,"471",117,0,"FixedIntervalNback",3,1264,"Include"
"SB2020_e2","SB2020_e2_11",1,"475",118,0,"FixedIntervalNback",4,1459,"Include"
"SB2020_e2","SB2020_e2_11",1,"461",119,0,"FixedIntervalNback",2,807,"Include"
"SB2020_e2","SB2020_e2_11",1,"191",120,1,"FixedIntervalNback",3,1387,"Include"
"SB2020_e2","SB2020_e2_11",1,"183",121,1,"FixedIntervalNback",3,1484,"Include"
"SB2020_e2","SB2020_e2_11",1,"194",122,1,"FixedIntervalNback",2,2283,"Include"
"SB2020_e2","SB2020_e2_11",1,"135",123,1,"FixedIntervalNback",2,1112,"Include"
"SB2020_e2","SB2020_e2_11",1,"238",124,1,"FixedIntervalNback",6,1349,"Include"
"SB2020_e2","SB2020_e2_11",1,"215",125,1,"FixedIntervalNback",5,1236,"Include"
"SB2020_e2","SB2020_e2_11",1,"211",126,1,"FixedIntervalNback",2,1740,"Include"
"SB2020_e2","SB2020_e2_11",1,"153",127,1,"FixedIntervalNback",5,1348,"Include"
"SB2020_e2","SB2020_e2_11",1,"216",128,1,"FixedIntervalNback",6,1314,"Include"
"SB2020_e2","SB2020_e2_11",1,"498",129,0,"FixedIntervalNback",3,979,"Include"
"SB2020_e2","SB2020_e2_11",1,"201",130,1,"FixedIntervalNback",6,1528,"Include"
"SB2020_e2","SB2020_e2_11",1,"188",131,1,"FixedIntervalNback",6,974,"Include"
"SB2020_e2","SB2020_e2_11",1,"505",132,0,"FixedIntervalNback",3,1553,"Include"
"SB2020_e2","SB2020_e2_11",1,"168",133,1,"FixedIntervalNback",3,1498,"Include"
"SB2020_e2","SB2020_e2_11",1,"417",134,0,"FixedIntervalNback",3,1018,"Include"
"SB2020_e2","SB2020_e2_11",1,"444",135,0,"FixedIntervalNback",2,991,"Include"
"SB2020_e2","SB2020_e2_11",1,"453",136,0,"FixedIntervalNback",2,968,"Include"
"SB2020_e2","SB2020_e2_11",1,"161",137,1,"FixedIntervalNback",6,1373,"Include"
"SB2020_e2","SB2020_e2_11",1,"166",138,1,"FixedIntervalNback",4,1684,"Include"
"SB2020_e2","SB2020_e2_11",1,"171",139,1,"FixedIntervalNback",6,1203,"Include"
"SB2020_e2","SB2020_e2_11",1,"433",140,0,"FixedIntervalNback",3,1233,"Include"
"SB2020_e2","SB2020_e2_11",1,"507",141,0,"FixedIntervalNback",3,815,"Include"
"SB2020_e2","SB2020_e2_11",1,"185",142,1,"FixedIntervalNback",6,1167,"Include"
"SB2020_e2","SB2020_e2_11",1,"164",143,1,"FixedIntervalNback",6,1000,"Include"
"SB2020_e2","SB2020_e2_11",1,"418",144,0,"FixedIntervalNback",2,1294,"Include"
"SB2020_e2","SB2020_e2_11",1,"134",145,1,"FixedIntervalNback",5,1268,"Include"
"SB2020_e2","SB2020_e2_11",1,"407",146,0,"FixedIntervalNback",6,1096,"Include"
"SB2020_e2","SB2020_e2_11",1,"133",147,1,"FixedIntervalNback",3,1128,"Include"
"SB2020_e2","SB2020_e2_11",1,"251",148,1,"FixedIntervalNback",3,898,"Include"
"SB2020_e2","SB2020_e2_11",1,"416",149,0,"FixedIntervalNback",2,726,"Include"
"SB2020_e2","SB2020_e2_11",1,"450",150,0,"FixedIntervalNback",1,1290,"Include"
"SB2020_e2","SB2020_e2_11",1,"259",151,1,"FixedIntervalNback",6,1163,"Include"
"SB2020_e2","SB2020_e2_11",1,"497",152,0,"FixedIntervalNback",3,862,"Include"
"SB2020_e2","SB2020_e2_11",1,"186",153,1,"FixedIntervalNback",2,1194,"Include"
"SB2020_e2","SB2020_e2_11",1,"138",154,1,"FixedIntervalNback",3,1303,"Include"
"SB2020_e2","SB2020_e2_11",1,"155",155,1,"FixedIntervalNback",3,770,"Include"
"SB2020_e2","SB2020_e2_11",1,"243",156,1,"FixedIntervalNback",6,1345,"Include"
"SB2020_e2","SB2020_e2_11",1,"462",157,0,"FixedIntervalNback",3,1002,"Include"
"SB2020_e2","SB2020_e2_11",1,"131",158,1,"FixedIntervalNback",4,1282,"Include"
"SB2020_e2","SB2020_e2_11",1,"160",159,1,"FixedIntervalNback",4,879,"Include"
"SB2020_e2","SB2020_e2_11",1,"210",160,1,"FixedIntervalNback",3,1102,"Include"
"SB2020_e2","SB2020_e2_11",1,"221",161,1,"FixedIntervalNback",4,1009,"Include"
"SB2020_e2","SB2020_e2_11",1,"250",162,1,"FixedIntervalNback",4,1631,"Include"
"SB2020_e2","SB2020_e2_11",1,"402",163,0,"FixedIntervalNback",4,735,"Include"
"SB2020_e2","SB2020_e2_11",1,"226",164,1,"FixedIntervalNback",2,1795,"Include"
"SB2020_e2","SB2020_e2_11",1,"257",165,1,"FixedIntervalNback",3,1070,"Include"
"SB2020_e2","SB2020_e2_11",1,"427",166,0,"FixedIntervalNback",2,1318,"Include"
"SB2020_e2","SB2020_e2_11",1,"146",167,1,"FixedIntervalNback",1,1408,"Include"
"SB2020_e2","SB2020_e2_11",1,"202",168,1,"FixedIntervalNback",2,1193,"Include"
"SB2020_e2","SB2020_e2_11",1,"218",169,1,"FixedIntervalNback",2,1099,"Include"
"SB2020_e2","SB2020_e2_11",1,"456",170,0,"FixedIntervalNback",3,551,"Include"
"SB2020_e2","SB2020_e2_11",1,"219",171,1,"FixedIntervalNback",1,978,"Include"
"SB2020_e2","SB2020_e2_11",1,"459",172,0,"FixedIntervalNback",2,762,"Include"
"SB2020_e2","SB2020_e2_11",1,"139",173,1,"FixedIntervalNback",3,645,"Include"
"SB2020_e2","SB2020_e2_11",1,"457",174,0,"FixedIntervalNback",2,475,"Include"
"SB2020_e2","SB2020_e2_11",1,"454",175,0,"FixedIntervalNback",4,1178,"Include"
"SB2020_e2","SB2020_e2_11",1,"241",176,1,"FixedIntervalNback",3,643,"Include"
"SB2020_e2","SB2020_e2_11",1,"414",177,0,"FixedIntervalNback",4,1245,"Include"
"SB2020_e2","SB2020_e2_11",1,"165",178,1,"FixedIntervalNback",3,1083,"Include"
"SB2020_e2","SB2020_e2_11",1,"143",179,1,"FixedIntervalNback",2,2486,"Include"
"SB2020_e2","SB2020_e2_11",1,"222",180,1,"FixedIntervalNback",5,1945,"Include"
"SB2020_e2","SB2020_e2_11",1,"140",181,1,"FixedIntervalNback",5,883,"Include"
"SB2020_e2","SB2020_e2_11",1,"496",182,0,"FixedIntervalNback",2,829,"Include"
"SB2020_e2","SB2020_e2_11",1,"199",183,1,"FixedIntervalNback",3,1189,"Include"
"SB2020_e2","SB2020_e2_11",1,"141",184,1,"FixedIntervalNback",1,939,"Include"
"SB2020_e2","SB2020_e2_11",1,"212",185,1,"FixedIntervalNback",1,1379,"Include"
"SB2020_e2","SB2020_e2_11",1,"132",186,1,"FixedIntervalNback",2,704,"Include"
"SB2020_e2","SB2020_e2_11",1,"470",187,0,"FixedIntervalNback",4,877,"Include"
"SB2020_e2","SB2020_e2_11",1,"493",188,0,"FixedIntervalNback",2,726,"Include"
"SB2020_e2","SB2020_e2_11",1,"476",189,0,"FixedIntervalNback",1,602,"Include"
"SB2020_e2","SB2020_e2_11",1,"173",190,1,"FixedIntervalNback",3,672,"Include"
"SB2020_e2","SB2020_e2_11",1,"448",191,0,"FixedIntervalNback",2,662,"Include"
"SB2020_e2","SB2020_e2_11",1,"223",192,1,"FixedIntervalNback",5,687,"Include"
"SB2020_e2","SB2020_e2_11",1,"420",193,0,"FixedIntervalNback",2,666,"Include"
"SB2020_e2","SB2020_e2_11",1,"512",194,0,"FixedIntervalNback",3,545,"Include"
"SB2020_e2","SB2020_e2_11",1,"494",195,0,"FixedIntervalNback",1,412,"Include"
"SB2020_e2","SB2020_e2_11",1,"412",196,0,"FixedIntervalNback",2,704,"Include"
"SB2020_e2","SB2020_e2_11",1,"193",197,1,"FixedIntervalNback",3,1184,"Include"
"SB2020_e2","SB2020_e2_11",1,"233",198,1,"FixedIntervalNback",3,1042,"Include"
"SB2020_e2","SB2020_e2_11",1,"503",199,0,"FixedIntervalNback",2,765,"Include"
"SB2020_e2","SB2020_e2_11",1,"231",200,1,"FixedIntervalNback",5,754,"Include"
"SB2020_e2","SB2020_e2_11",1,"510",201,0,"FixedIntervalNback",2,793,"Include"
"SB2020_e2","SB2020_e2_11",1,"455",202,0,"FixedIntervalNback",3,626,"Include"
"SB2020_e2","SB2020_e2_11",1,"395",203,0,"FixedIntervalNback",1,818,"Include"
"SB2020_e2","SB2020_e2_11",1,"516",204,0,"FixedIntervalNback",2,682,"Include"
"SB2020_e2","SB2020_e2_11",1,"458",205,0,"FixedIntervalNback",2,637,"Include"
"SB2020_e2","SB2020_e2_11",1,"220",206,1,"FixedIntervalNback",3,613,"Include"
"SB2020_e2","SB2020_e2_11",1,"182",207,1,"FixedIntervalNback",3,626,"Include"
"SB2020_e2","SB2020_e2_11",1,"170",208,1,"FixedIntervalNback",3,884,"Include"
"SB2020_e2","SB2020_e2_11",1,"393",209,0,"FixedIntervalNback",3,785,"Include"
"SB2020_e2","SB2020_e2_11",1,"396",210,0,"FixedIntervalNback",2,540,"Include"
"SB2020_e2","SB2020_e2_11",1,"452",211,0,"FixedIntervalNback",4,2056,"Include"
"SB2020_e2","SB2020_e2_11",1,"245",212,1,"FixedIntervalNback",3,889,"Include"
"SB2020_e2","SB2020_e2_11",1,"490",213,0,"FixedIntervalNback",3,1384,"Include"
"SB2020_e2","SB2020_e2_11",1,"481",214,0,"FixedIntervalNback",3,1072,"Include"
"SB2020_e2","SB2020_e2_11",1,"460",215,0,"FixedIntervalNback",2,598,"Include"
"SB2020_e2","SB2020_e2_11",1,"214",216,1,"FixedIntervalNback",6,1323,"Include"
"SB2020_e2","SB2020_e2_11",1,"499",217,0,"FixedIntervalNback",2,1108,"Include"
"SB2020_e2","SB2020_e2_11",1,"435",218,0,"FixedIntervalNback",2,714,"Include"
"SB2020_e2","SB2020_e2_11",1,"169",219,1,"FixedIntervalNback",3,947,"Include"
"SB2020_e2","SB2020_e2_11",1,"145",220,1,"FixedIntervalNback",6,1085,"Include"
"SB2020_e2","SB2020_e2_11",1,"175",221,1,"FixedIntervalNback",6,869,"Include"
"SB2020_e2","SB2020_e2_11",1,"391",222,0,"FixedIntervalNback",1,625,"Include"
"SB2020_e2","SB2020_e2_11",1,"225",223,1,"FixedIntervalNback",2,945,"Include"
"SB2020_e2","SB2020_e2_11",1,"235",224,1,"FixedIntervalNback",1,1832,"Include"
"SB2020_e2","SB2020_e2_11",1,"415",225,0,"FixedIntervalNback",3,1107,"Include"
"SB2020_e2","SB2020_e2_11",1,"487",226,0,"FixedIntervalNback",2,971,"Include"
"SB2020_e2","SB2020_e2_11",1,"419",227,0,"FixedIntervalNback",1,1292,"Include"
"SB2020_e2","SB2020_e2_11",1,"405",228,0,"FixedIntervalNback",3,857,"Include"
