"exp","id","block","item","trial","isold","condition1","rating","RT_ON","RT_CONF","excluding"
"SCR2019_e1","SCR2019_e1_1",1,"CENT",1,0,"Rep3_BiasLiberal",1,1157,839,"Include"
"SCR2019_e1","SCR2019_e1_1",1,"HEAD",2,1,"Rep3_BiasLiberal",6,573,567,"Include"
"SCR2019_e1","SCR2019_e1_1",1,"MOTHER",3,0,"Rep3_BiasLiberal",6,773,255,"Include"
"SCR2019_e1","SCR2019_e1_1",1,"LINE",4,0,"Rep3_BiasLiberal",2,2174,335,"Include"
"SCR2019_e1","SCR2019_e1_1",1,"PEOPLE",5,0,"Rep3_BiasLiberal",6,2220,591,"Include"
"SCR2019_e1","SCR2019_e1_1",1,"DAY",6,0,"Rep3_BiasLiberal",3,1038,423,"Include"
"SCR2019_e1","SCR2019_e1_1",1,"CHAIN",7,0,"Rep3_BiasLiberal",1,1228,320,"Include"
"SCR2019_e1","SCR2019_e1_1",1,"FELLOW",8,0,"Rep3_BiasLiberal",1,1172,183,"Include"
"SCR2019_e1","SCR2019_e1_1",1,"NECK",9,1,"Rep3_BiasLiberal",6,939,287,"Include"
"SCR2019_e1","SCR2019_e1_1",1,"ARM",10,0,"Rep3_BiasLiberal",1,1149,239,"Include"
"SCR2019_e1","SCR2019_e1_1",1,"HEART",11,0,"Rep3_BiasLiberal",1,812,166,"Include"
"SCR2019_e1","SCR2019_e1_1",1,"LEADER",12,0,"Rep3_BiasLiberal",1,693,214,"Include"
"SCR2019_e1","SCR2019_e1_1",1,"KEY",13,0,"Rep3_BiasLiberal",1,780,151,"Include"
"SCR2019_e1","SCR2019_e1_1",1,"WATER",14,0,"Rep3_BiasLiberal",2,3244,199,"Include"
"SCR2019_e1","SCR2019_e1_1",1,"DESK",15,1,"Rep3_BiasLiberal",6,669,750,"Include"
"SCR2019_e1","SCR2019_e1_1",1,"EDGE",16,1,"Rep3_BiasLiberal",6,795,200,"Include"
"SCR2019_e1","SCR2019_e1_1",1,"BOTTLE",17,1,"Rep3_BiasLiberal",5,1019,367,"Include"
"SCR2019_e1","SCR2019_e1_1",1,"BODY",18,1,"Rep3_BiasLiberal",6,660,207,"Include"
"SCR2019_e1","SCR2019_e1_1",1,"CHILD",19,0,"Rep3_BiasLiberal",4,1196,271,"Include"
"SCR2019_e1","SCR2019_e1_1",1,"WELL",20,1,"Rep3_BiasLiberal",2,2206,614,"Include"
"SCR2019_e1","SCR2019_e1_1",1,"FOOT",21,1,"Rep3_BiasLiberal",6,1231,1895,"Include"
"SCR2019_e1","SCR2019_e1_1",1,"GUY",22,0,"Rep3_BiasLiberal",1,1973,727,"Include"
"SCR2019_e1","SCR2019_e1_1",1,"CHIEF",23,1,"Rep3_BiasLiberal",6,772,280,"Include"
"SCR2019_e1","SCR2019_e1_1",1,"HOUSE",24,0,"Rep3_BiasLiberal",1,1052,319,"Include"
"SCR2019_e1","SCR2019_e1_1",1,"COVER",25,1,"Rep3_BiasLiberal",1,1093,199,"Include"
"SCR2019_e1","SCR2019_e1_1",1,"STUDENT",26,1,"Rep3_BiasLiberal",6,903,382,"Include"
"SCR2019_e1","SCR2019_e1_1",1,"TEAM",27,0,"Rep3_BiasLiberal",1,900,407,"Include"
"SCR2019_e1","SCR2019_e1_1",1,"ANGLE",28,1,"Rep3_BiasLiberal",6,1460,351,"Include"
"SCR2019_e1","SCR2019_e1_1",1,"BOAT",29,0,"Rep3_BiasLiberal",6,1093,311,"Include"
"SCR2019_e1","SCR2019_e1_1",1,"GUN",30,1,"Rep3_BiasLiberal",5,1270,486,"Include"
"SCR2019_e1","SCR2019_e1_1",1,"HORSE",31,1,"Rep3_BiasLiberal",6,684,295,"Include"
"SCR2019_e1","SCR2019_e1_1",1,"WOMAN",32,1,"Rep3_BiasLiberal",6,572,295,"Include"
"SCR2019_e1","SCR2019_e1_1",1,"MOUTH",33,0,"Rep3_BiasLiberal",1,2060,407,"Include"
"SCR2019_e1","SCR2019_e1_1",1,"TEST",34,0,"Rep3_BiasLiberal",4,806,1462,"Include"
"SCR2019_e1","SCR2019_e1_1",1,"GIRL",35,1,"Rep3_BiasLiberal",6,886,919,"Include"
"SCR2019_e1","SCR2019_e1_1",1,"LEAD",36,0,"Rep3_BiasLiberal",1,1348,223,"Include"
"SCR2019_e1","SCR2019_e1_1",1,"SNOW",37,0,"Rep3_BiasLiberal",1,997,166,"Include"
"SCR2019_e1","SCR2019_e1_1",1,"RADIO",38,1,"Rep3_BiasLiberal",1,1558,222,"Include"
"SCR2019_e1","SCR2019_e1_1",1,"ROCK",39,0,"Rep3_BiasLiberal",6,2646,263,"Include"
"SCR2019_e1","SCR2019_e1_1",1,"CATTLE",40,0,"Rep3_BiasLiberal",1,1038,190,"Include"
"SCR2019_e1","SCR2019_e1_1",1,"WATCH",41,1,"Rep3_BiasLiberal",6,1236,279,"Include"
"SCR2019_e1","SCR2019_e1_1",1,"INDIAN",42,1,"Rep3_BiasLiberal",6,668,239,"Include"
"SCR2019_e1","SCR2019_e1_1",1,"CAPTAIN",43,0,"Rep3_BiasLiberal",6,2381,270,"Include"
"SCR2019_e1","SCR2019_e1_1",1,"DRINK",44,0,"Rep3_BiasLiberal",1,1063,175,"Include"
"SCR2019_e1","SCR2019_e1_1",1,"JUDGE",45,1,"Rep3_BiasLiberal",6,731,216,"Include"
"SCR2019_e1","SCR2019_e1_1",1,"POOL",46,0,"Rep3_BiasLiberal",6,661,175,"Include"
"SCR2019_e1","SCR2019_e1_1",1,"FATHER",47,1,"Rep3_BiasLiberal",6,534,167,"Include"
"SCR2019_e1","SCR2019_e1_1",1,"WINTER",48,1,"Rep3_BiasLiberal",6,701,223,"Include"
"SCR2019_e1","SCR2019_e1_1",1,"ISLAND",49,1,"Rep3_BiasLiberal",6,453,230,"Include"
"SCR2019_e1","SCR2019_e1_1",1,"BROTHER",50,1,"Rep3_BiasLiberal",6,485,247,"Include"
"SCR2019_e1","SCR2019_e1_1",1,"FEET",51,1,"Rep3_BiasLiberal",6,557,158,"Include"
"SCR2019_e1","SCR2019_e1_1",1,"SIGN",52,0,"Rep3_BiasLiberal",1,1132,223,"Include"
"SCR2019_e1","SCR2019_e1_1",1,"BOX",53,1,"Rep3_BiasLiberal",6,1589,183,"Include"
"SCR2019_e1","SCR2019_e1_1",1,"EYE",54,1,"Rep3_BiasLiberal",6,1053,431,"Include"
"SCR2019_e1","SCR2019_e1_1",1,"CHURCH",55,1,"Rep3_BiasLiberal",6,916,239,"Include"
"SCR2019_e1","SCR2019_e1_1",1,"KING",56,0,"Rep3_BiasLiberal",6,1652,271,"Include"
"SCR2019_e1","SCR2019_e1_1",1,"HUSBAND",57,1,"Rep3_BiasLiberal",6,670,223,"Include"
"SCR2019_e1","SCR2019_e1_1",1,"HAND",58,0,"Rep3_BiasLiberal",1,3092,215,"Include"
"SCR2019_e1","SCR2019_e1_1",1,"FAMILY",59,0,"Rep3_BiasLiberal",6,1588,191,"Include"
"SCR2019_e1","SCR2019_e1_1",1,"BABY",60,0,"Rep3_BiasLiberal",1,1086,191,"Include"
"SCR2019_e1","SCR2019_e1_1",1,"OFFICE",61,0,"Rep3_BiasLiberal",1,757,150,"Include"
"SCR2019_e1","SCR2019_e1_1",1,"LEG",62,0,"Rep3_BiasLiberal",6,708,238,"Include"
"SCR2019_e1","SCR2019_e1_1",1,"FRAME",63,0,"Rep3_BiasLiberal",1,942,167,"Include"
"SCR2019_e1","SCR2019_e1_1",1,"PAPER",64,1,"Rep3_BiasLiberal",3,748,2103,"Include"
"SCR2019_e1","SCR2019_e1_1",1,"RECORD",65,0,"Rep3_BiasLiberal",6,2095,366,"Include"
"SCR2019_e1","SCR2019_e1_1",1,"DRESS",66,1,"Rep3_BiasLiberal",5,1741,679,"Include"
"SCR2019_e1","SCR2019_e1_1",1,"ANIMAL",67,1,"Rep3_BiasLiberal",6,1852,239,"Include"
"SCR2019_e1","SCR2019_e1_1",1,"MOTOR",68,0,"Rep3_BiasLiberal",1,782,239,"Include"
"SCR2019_e1","SCR2019_e1_1",1,"LIBRARY",69,1,"Rep3_BiasLiberal",1,620,2375,"Include"
"SCR2019_e1","SCR2019_e1_1",1,"FACE",70,1,"Rep3_BiasLiberal",6,846,343,"Include"
"SCR2019_e1","SCR2019_e1_1",1,"MAN",71,1,"Rep3_BiasLiberal",6,757,174,"Include"
"SCR2019_e1","SCR2019_e1_1",1,"DOG",72,0,"Rep3_BiasLiberal",6,709,159,"Include"
"SCR2019_e1","SCR2019_e1_1",1,"JURY",73,0,"Rep3_BiasLiberal",1,1022,351,"Include"
"SCR2019_e1","SCR2019_e1_1",1,"BEAR",74,1,"Rep3_BiasLiberal",6,844,343,"Include"
"SCR2019_e1","SCR2019_e1_1",1,"COUSIN",75,1,"Rep3_BiasLiberal",6,861,327,"Include"
"SCR2019_e1","SCR2019_e1_1",1,"FRIEND",76,0,"Rep3_BiasLiberal",1,1285,278,"Include"
"SCR2019_e1","SCR2019_e1_1",1,"TRUCK",77,1,"Rep3_BiasLiberal",6,1133,279,"Include"
"SCR2019_e1","SCR2019_e1_1",1,"PAGE",78,1,"Rep3_BiasLiberal",6,660,223,"Include"
"SCR2019_e1","SCR2019_e1_1",1,"ARTIST",79,0,"Rep3_BiasLiberal",1,916,255,"Include"
"SCR2019_e1","SCR2019_e1_1",1,"WIFE",80,1,"Rep3_BiasLiberal",6,885,271,"Include"
"SCR2019_e1","SCR2019_e1_1",1,"ARTICLE",81,1,"Rep3_BiasLiberal",6,1340,246,"Include"
"SCR2019_e1","SCR2019_e1_1",1,"SEAT",82,0,"Rep3_BiasLiberal",1,860,247,"Include"
"SCR2019_e1","SCR2019_e1_1",1,"PRODUCT",83,1,"Rep3_BiasLiberal",6,612,239,"Include"
"SCR2019_e1","SCR2019_e1_1",1,"SWEET",84,0,"Rep3_BiasLiberal",1,1092,199,"Include"
"SCR2019_e1","SCR2019_e1_1",1,"BOY",85,1,"Rep3_BiasLiberal",6,589,183,"Include"
"SCR2019_e1","SCR2019_e1_1",1,"TEACHER",86,0,"Rep3_BiasLiberal",6,765,230,"Include"
"SCR2019_e1","SCR2019_e1_1",1,"LADY",87,0,"Rep3_BiasLiberal",6,1086,223,"Include"
"SCR2019_e1","SCR2019_e1_1",1,"BAY",88,1,"Rep3_BiasLiberal",6,1006,239,"Include"
"SCR2019_e1","SCR2019_e1_1",1,"ROAD",89,0,"Rep3_BiasLiberal",1,892,238,"Include"
"SCR2019_e1","SCR2019_e1_1",1,"WHEEL",90,0,"Rep3_BiasLiberal",1,861,206,"Include"
"SCR2019_e1","SCR2019_e1_1",1,"SHIP",91,1,"Rep3_BiasLiberal",5,1428,327,"Include"
"SCR2019_e1","SCR2019_e1_1",1,"HOTEL",92,0,"Rep3_BiasLiberal",5,804,255,"Include"
"SCR2019_e1","SCR2019_e1_1",1,"KID",93,0,"Rep3_BiasLiberal",5,870,623,"Include"
"SCR2019_e1","SCR2019_e1_1",1,"POINT",94,1,"Rep3_BiasLiberal",6,774,975,"Include"
"SCR2019_e1","SCR2019_e1_1",1,"PERSON",95,1,"Rep3_BiasLiberal",6,948,215,"Include"
"SCR2019_e1","SCR2019_e1_1",1,"COAST",96,1,"Rep3_BiasLiberal",6,612,239,"Include"
"SCR2019_e1","SCR2019_e1_1",1,"GROUND",97,0,"Rep3_BiasLiberal",1,988,247,"Include"
"SCR2019_e1","SCR2019_e1_1",1,"DOCTOR",98,0,"Rep3_BiasLiberal",6,749,270,"Include"
"SCR2019_e1","SCR2019_e1_1",1,"STREET",99,1,"Rep3_BiasLiberal",6,606,151,"Include"
"SCR2019_e1","SCR2019_e1_1",1,"UNCLE",100,1,"Rep3_BiasLiberal",6,668,246,"Include"
"SCR2019_e1","SCR2019_e1_2",1,"OFFICE",1,1,"Rep3_BiasNone",6,841,626,"Include"
"SCR2019_e1","SCR2019_e1_2",1,"CHURCH",2,0,"Rep3_BiasNone",1,794,457,"Include"
"SCR2019_e1","SCR2019_e1_2",1,"TEST",3,1,"Rep3_BiasNone",6,1345,978,"Include"
"SCR2019_e1","SCR2019_e1_2",1,"JUDGE",4,0,"Rep3_BiasNone",1,2655,822,"Include"
"SCR2019_e1","SCR2019_e1_2",1,"TEAM",5,1,"Rep3_BiasNone",6,988,372,"Include"
"SCR2019_e1","SCR2019_e1_2",1,"CHAIN",6,1,"Rep3_BiasNone",6,835,342,"Include"
"SCR2019_e1","SCR2019_e1_2",1,"RADIO",7,0,"Rep3_BiasNone",1,711,502,"Include"
"SCR2019_e1","SCR2019_e1_2",1,"LEG",8,1,"Rep3_BiasNone",6,602,388,"Include"
"SCR2019_e1","SCR2019_e1_2",1,"SWEET",9,1,"Rep3_BiasNone",6,691,289,"Include"
"SCR2019_e1","SCR2019_e1_2",1,"FRAME",10,1,"Rep3_BiasNone",6,1017,271,"Include"
"SCR2019_e1","SCR2019_e1_2",1,"GIRL",11,0,"Rep3_BiasNone",1,1016,407,"Include"
"SCR2019_e1","SCR2019_e1_2",1,"BODY",12,0,"Rep3_BiasNone",1,1570,374,"Include"
"SCR2019_e1","SCR2019_e1_2",1,"FOOT",13,0,"Rep3_BiasNone",1,1741,519,"Include"
"SCR2019_e1","SCR2019_e1_2",1,"WINTER",14,0,"Rep3_BiasNone",1,692,349,"Include"
"SCR2019_e1","SCR2019_e1_2",1,"UNCLE",15,0,"Rep3_BiasNone",1,1463,745,"Include"
"SCR2019_e1","SCR2019_e1_2",1,"COUSIN",16,0,"Rep3_BiasNone",1,627,387,"Include"
"SCR2019_e1","SCR2019_e1_2",1,"COVER",17,0,"Rep3_BiasNone",1,567,342,"Include"
"SCR2019_e1","SCR2019_e1_2",1,"FACE",18,0,"Rep3_BiasNone",1,756,304,"Include"
"SCR2019_e1","SCR2019_e1_2",1,"BABY",19,1,"Rep3_BiasNone",6,743,338,"Include"
"SCR2019_e1","SCR2019_e1_2",1,"POINT",20,0,"Rep3_BiasNone",1,712,309,"Include"
"SCR2019_e1","SCR2019_e1_2",1,"HEAD",21,0,"Rep3_BiasNone",1,1674,855,"Include"
"SCR2019_e1","SCR2019_e1_2",1,"SNOW",22,1,"Rep3_BiasNone",3,711,4294,"Include"
"SCR2019_e1","SCR2019_e1_2",1,"SIGN",23,1,"Rep3_BiasNone",6,1069,389,"Include"
"SCR2019_e1","SCR2019_e1_2",1,"POOL",24,1,"Rep3_BiasNone",6,687,308,"Include"
"SCR2019_e1","SCR2019_e1_2",1,"CAPTAIN",25,1,"Rep3_BiasNone",6,780,259,"Include"
"SCR2019_e1","SCR2019_e1_2",1,"ARTIST",26,1,"Rep3_BiasNone",1,990,364,"Include"
"SCR2019_e1","SCR2019_e1_2",1,"MOTOR",27,1,"Rep3_BiasNone",6,896,298,"Include"
"SCR2019_e1","SCR2019_e1_2",1,"FATHER",28,0,"Rep3_BiasNone",3,1903,1410,"Include"
"SCR2019_e1","SCR2019_e1_2",1,"EYE",29,0,"Rep3_BiasNone",1,993,769,"Include"
"SCR2019_e1","SCR2019_e1_2",1,"FAMILY",30,1,"Rep3_BiasNone",6,679,523,"Include"
"SCR2019_e1","SCR2019_e1_2",1,"PAGE",31,0,"Rep3_BiasNone",1,987,1280,"Include"
"SCR2019_e1","SCR2019_e1_2",1,"WELL",32,0,"Rep3_BiasNone",1,1612,696,"Include"
"SCR2019_e1","SCR2019_e1_2",1,"DRINK",33,1,"Rep3_BiasNone",6,908,297,"Include"
"SCR2019_e1","SCR2019_e1_2",1,"HAND",34,1,"Rep3_BiasNone",6,674,260,"Include"
"SCR2019_e1","SCR2019_e1_2",1,"NECK",35,0,"Rep3_BiasNone",1,939,295,"Include"
"SCR2019_e1","SCR2019_e1_2",1,"LADY",36,1,"Rep3_BiasNone",6,796,278,"Include"
"SCR2019_e1","SCR2019_e1_2",1,"MAN",37,0,"Rep3_BiasNone",6,1198,287,"Include"
"SCR2019_e1","SCR2019_e1_2",1,"LEAD",38,1,"Rep3_BiasNone",6,990,376,"Include"
"SCR2019_e1","SCR2019_e1_2",1,"BOTTLE",39,0,"Rep3_BiasNone",4,951,1388,"Include"
"SCR2019_e1","SCR2019_e1_2",1,"BROTHER",40,0,"Rep3_BiasNone",1,942,370,"Include"
"SCR2019_e1","SCR2019_e1_2",1,"GUY",41,1,"Rep3_BiasNone",6,675,275,"Include"
"SCR2019_e1","SCR2019_e1_2",1,"COAST",42,0,"Rep3_BiasNone",1,888,325,"Include"
"SCR2019_e1","SCR2019_e1_2",1,"ROCK",43,1,"Rep3_BiasNone",6,741,265,"Include"
"SCR2019_e1","SCR2019_e1_2",1,"CHIEF",44,0,"Rep3_BiasNone",1,1824,315,"Include"
"SCR2019_e1","SCR2019_e1_2",1,"WIFE",45,0,"Rep3_BiasNone",1,1241,284,"Include"
"SCR2019_e1","SCR2019_e1_2",1,"DOCTOR",46,1,"Rep3_BiasNone",6,679,301,"Include"
"SCR2019_e1","SCR2019_e1_2",1,"ANGLE",47,0,"Rep3_BiasNone",1,932,278,"Include"
"SCR2019_e1","SCR2019_e1_2",1,"PAPER",48,0,"Rep3_BiasNone",1,743,324,"Include"
"SCR2019_e1","SCR2019_e1_2",1,"CHILD",49,1,"Rep3_BiasNone",6,619,343,"Include"
"SCR2019_e1","SCR2019_e1_2",1,"LEADER",50,1,"Rep3_BiasNone",6,828,337,"Include"
"SCR2019_e1","SCR2019_e1_2",1,"BEAR",51,0,"Rep3_BiasNone",1,663,272,"Include"
"SCR2019_e1","SCR2019_e1_2",1,"TRUCK",52,0,"Rep3_BiasNone",1,635,262,"Include"
"SCR2019_e1","SCR2019_e1_2",1,"FEET",53,0,"Rep3_BiasNone",1,752,281,"Include"
"SCR2019_e1","SCR2019_e1_2",1,"SEAT",54,1,"Rep3_BiasNone",6,834,294,"Include"
"SCR2019_e1","SCR2019_e1_2",1,"MOUTH",55,1,"Rep3_BiasNone",6,594,289,"Include"
"SCR2019_e1","SCR2019_e1_2",1,"GROUND",56,1,"Rep3_BiasNone",6,661,313,"Include"
"SCR2019_e1","SCR2019_e1_2",1,"LINE",57,1,"Rep3_BiasNone",6,668,294,"Include"
"SCR2019_e1","SCR2019_e1_2",1,"KEY",58,1,"Rep3_BiasNone",6,579,270,"Include"
"SCR2019_e1","SCR2019_e1_2",1,"HOUSE",59,1,"Rep3_BiasNone",6,777,344,"Include"
"SCR2019_e1","SCR2019_e1_2",1,"BOX",60,0,"Rep3_BiasNone",1,1246,250,"Include"
"SCR2019_e1","SCR2019_e1_2",1,"SHIP",61,0,"Rep3_BiasNone",1,1342,268,"Include"
"SCR2019_e1","SCR2019_e1_2",1,"STREET",62,0,"Rep3_BiasNone",1,857,325,"Include"
"SCR2019_e1","SCR2019_e1_2",1,"HORSE",63,0,"Rep3_BiasNone",1,767,300,"Include"
"SCR2019_e1","SCR2019_e1_2",1,"DOG",64,1,"Rep3_BiasNone",6,615,266,"Include"
"SCR2019_e1","SCR2019_e1_2",1,"DESK",65,0,"Rep3_BiasNone",1,1515,363,"Include"
"SCR2019_e1","SCR2019_e1_2",1,"ROAD",66,1,"Rep3_BiasNone",6,745,233,"Include"
"SCR2019_e1","SCR2019_e1_2",1,"TEACHER",67,1,"Rep3_BiasNone",6,821,307,"Include"
"SCR2019_e1","SCR2019_e1_2",1,"KING",68,1,"Rep3_BiasNone",6,660,273,"Include"
"SCR2019_e1","SCR2019_e1_2",1,"DRESS",69,0,"Rep3_BiasNone",4,1169,1110,"Include"
"SCR2019_e1","SCR2019_e1_2",1,"DAY",70,1,"Rep3_BiasNone",6,1112,262,"Include"
"SCR2019_e1","SCR2019_e1_2",1,"EDGE",71,0,"Rep3_BiasNone",1,643,288,"Include"
"SCR2019_e1","SCR2019_e1_2",1,"HEART",72,1,"Rep3_BiasNone",6,765,280,"Include"
"SCR2019_e1","SCR2019_e1_2",1,"PRODUCT",73,0,"Rep3_BiasNone",1,644,244,"Include"
"SCR2019_e1","SCR2019_e1_2",1,"RECORD",74,1,"Rep3_BiasNone",6,986,270,"Include"
"SCR2019_e1","SCR2019_e1_2",1,"KID",75,1,"Rep3_BiasNone",6,602,279,"Include"
"SCR2019_e1","SCR2019_e1_2",1,"WOMAN",76,0,"Rep3_BiasNone",6,1066,1308,"Include"
"SCR2019_e1","SCR2019_e1_2",1,"STUDENT",77,0,"Rep3_BiasNone",1,1323,769,"Include"
"SCR2019_e1","SCR2019_e1_2",1,"FELLOW",78,1,"Rep3_BiasNone",6,686,225,"Include"
"SCR2019_e1","SCR2019_e1_2",1,"MOTHER",79,1,"Rep3_BiasNone",6,633,217,"Include"
"SCR2019_e1","SCR2019_e1_2",1,"BOY",80,0,"Rep3_BiasNone",4,1188,1139,"Include"
"SCR2019_e1","SCR2019_e1_2",1,"HOTEL",81,1,"Rep3_BiasNone",6,630,287,"Include"
"SCR2019_e1","SCR2019_e1_2",1,"WATCH",82,0,"Rep3_BiasNone",1,1675,278,"Include"
"SCR2019_e1","SCR2019_e1_2",1,"PEOPLE",83,1,"Rep3_BiasNone",6,616,226,"Include"
"SCR2019_e1","SCR2019_e1_2",1,"INDIAN",84,0,"Rep3_BiasNone",1,828,900,"Include"
"SCR2019_e1","SCR2019_e1_2",1,"BAY",85,0,"Rep3_BiasNone",1,921,250,"Include"
"SCR2019_e1","SCR2019_e1_2",1,"ISLAND",86,0,"Rep3_BiasNone",1,557,221,"Include"
"SCR2019_e1","SCR2019_e1_2",1,"GUN",87,0,"Rep3_BiasNone",1,805,234,"Include"
"SCR2019_e1","SCR2019_e1_2",1,"CATTLE",88,1,"Rep3_BiasNone",6,654,245,"Include"
"SCR2019_e1","SCR2019_e1_2",1,"PERSON",89,0,"Rep3_BiasNone",6,799,237,"Include"
"SCR2019_e1","SCR2019_e1_2",1,"HUSBAND",90,0,"Rep3_BiasNone",1,995,195,"Include"
"SCR2019_e1","SCR2019_e1_2",1,"ARM",91,1,"Rep3_BiasNone",6,646,290,"Include"
"SCR2019_e1","SCR2019_e1_2",1,"LIBRARY",92,0,"Rep3_BiasNone",1,741,264,"Include"
"SCR2019_e1","SCR2019_e1_2",1,"CENT",93,1,"Rep3_BiasNone",6,745,269,"Include"
"SCR2019_e1","SCR2019_e1_2",1,"WATER",94,1,"Rep3_BiasNone",6,844,298,"Include"
"SCR2019_e1","SCR2019_e1_2",1,"FRIEND",95,1,"Rep3_BiasNone",6,577,258,"Include"
"SCR2019_e1","SCR2019_e1_2",1,"BOAT",96,1,"Rep3_BiasNone",6,852,325,"Include"
"SCR2019_e1","SCR2019_e1_2",1,"WHEEL",97,1,"Rep3_BiasNone",6,611,245,"Include"
"SCR2019_e1","SCR2019_e1_2",1,"ANIMAL",98,0,"Rep3_BiasNone",6,1157,262,"Include"
"SCR2019_e1","SCR2019_e1_2",1,"JURY",99,1,"Rep3_BiasNone",6,637,325,"Include"
"SCR2019_e1","SCR2019_e1_2",1,"ARTICLE",100,0,"Rep3_BiasNone",1,991,309,"Include"
"SCR2019_e1","SCR2019_e1_3",1,"CATTLE",1,1,"Rep3_BiasLiberal",6,703,329,"Include"
"SCR2019_e1","SCR2019_e1_3",1,"PEOPLE",2,1,"Rep3_BiasLiberal",6,684,267,"Include"
"SCR2019_e1","SCR2019_e1_3",1,"SWEET",3,1,"Rep3_BiasLiberal",6,1774,243,"Include"
"SCR2019_e1","SCR2019_e1_3",1,"PAGE",4,0,"Rep3_BiasLiberal",1,1179,219,"Include"
"SCR2019_e1","SCR2019_e1_3",1,"RECORD",5,1,"Rep3_BiasLiberal",6,1109,206,"Include"
"SCR2019_e1","SCR2019_e1_3",1,"BOY",6,0,"Rep3_BiasLiberal",6,1079,192,"Include"
"SCR2019_e1","SCR2019_e1_3",1,"LINE",7,1,"Rep3_BiasLiberal",6,852,164,"Include"
"SCR2019_e1","SCR2019_e1_3",1,"TEACHER",8,1,"Rep3_BiasLiberal",6,1577,293,"Include"
"SCR2019_e1","SCR2019_e1_3",1,"COUSIN",9,0,"Rep3_BiasLiberal",1,1122,203,"Include"
"SCR2019_e1","SCR2019_e1_3",1,"NECK",10,0,"Rep3_BiasLiberal",1,1068,172,"Include"
"SCR2019_e1","SCR2019_e1_3",1,"DRINK",11,1,"Rep3_BiasLiberal",1,1110,138,"Include"
"SCR2019_e1","SCR2019_e1_3",1,"KID",12,1,"Rep3_BiasLiberal",6,797,118,"Include"
"SCR2019_e1","SCR2019_e1_3",1,"MOTOR",13,1,"Rep3_BiasLiberal",6,1008,107,"Include"
"SCR2019_e1","SCR2019_e1_3",1,"FEET",14,0,"Rep3_BiasLiberal",6,1308,1117,"Include"
"SCR2019_e1","SCR2019_e1_3",1,"SEAT",15,1,"Rep3_BiasLiberal",6,1267,134,"Include"
"SCR2019_e1","SCR2019_e1_3",1,"KING",16,1,"Rep3_BiasLiberal",6,656,165,"Include"
"SCR2019_e1","SCR2019_e1_3",1,"SHIP",17,0,"Rep3_BiasLiberal",1,1095,149,"Include"
"SCR2019_e1","SCR2019_e1_3",1,"FAMILY",18,1,"Rep3_BiasLiberal",6,1026,204,"Include"
"SCR2019_e1","SCR2019_e1_3",1,"LEAD",19,1,"Rep3_BiasLiberal",6,938,210,"Include"
"SCR2019_e1","SCR2019_e1_3",1,"HUSBAND",20,0,"Rep3_BiasLiberal",1,846,183,"Include"
"SCR2019_e1","SCR2019_e1_3",1,"COVER",21,0,"Rep3_BiasLiberal",1,949,194,"Include"
"SCR2019_e1","SCR2019_e1_3",1,"TEAM",22,1,"Rep3_BiasLiberal",6,783,195,"Include"
"SCR2019_e1","SCR2019_e1_3",1,"BOX",23,0,"Rep3_BiasLiberal",1,926,199,"Include"
"SCR2019_e1","SCR2019_e1_3",1,"BOAT",24,1,"Rep3_BiasLiberal",6,991,151,"Include"
"SCR2019_e1","SCR2019_e1_3",1,"CENT",25,1,"Rep3_BiasLiberal",6,660,204,"Include"
"SCR2019_e1","SCR2019_e1_3",1,"SIGN",26,1,"Rep3_BiasLiberal",6,901,166,"Include"
"SCR2019_e1","SCR2019_e1_3",1,"ISLAND",27,0,"Rep3_BiasLiberal",1,791,172,"Include"
"SCR2019_e1","SCR2019_e1_3",1,"CHIEF",28,0,"Rep3_BiasLiberal",1,944,204,"Include"
"SCR2019_e1","SCR2019_e1_3",1,"HOTEL",29,1,"Rep3_BiasLiberal",6,941,174,"Include"
"SCR2019_e1","SCR2019_e1_3",1,"UNCLE",30,0,"Rep3_BiasLiberal",1,708,153,"Include"
"SCR2019_e1","SCR2019_e1_3",1,"CHILD",31,1,"Rep3_BiasLiberal",6,670,147,"Include"
"SCR2019_e1","SCR2019_e1_3",1,"ANGLE",32,0,"Rep3_BiasLiberal",1,793,179,"Include"
"SCR2019_e1","SCR2019_e1_3",1,"ARM",33,1,"Rep3_BiasLiberal",6,674,152,"Include"
"SCR2019_e1","SCR2019_e1_3",1,"WATER",34,1,"Rep3_BiasLiberal",6,654,141,"Include"
"SCR2019_e1","SCR2019_e1_3",1,"JURY",35,1,"Rep3_BiasLiberal",6,585,157,"Include"
"SCR2019_e1","SCR2019_e1_3",1,"OFFICE",36,1,"Rep3_BiasLiberal",6,659,123,"Include"
"SCR2019_e1","SCR2019_e1_3",1,"TEST",37,1,"Rep3_BiasLiberal",6,1131,135,"Include"
"SCR2019_e1","SCR2019_e1_3",1,"BODY",38,0,"Rep3_BiasLiberal",1,1076,224,"Include"
"SCR2019_e1","SCR2019_e1_3",1,"HOUSE",39,1,"Rep3_BiasLiberal",6,854,185,"Include"
"SCR2019_e1","SCR2019_e1_3",1,"SNOW",40,1,"Rep3_BiasLiberal",6,853,202,"Include"
"SCR2019_e1","SCR2019_e1_3",1,"BEAR",41,0,"Rep3_BiasLiberal",6,550,264,"Include"
"SCR2019_e1","SCR2019_e1_3",1,"GROUND",42,1,"Rep3_BiasLiberal",6,723,165,"Include"
"SCR2019_e1","SCR2019_e1_3",1,"POINT",43,0,"Rep3_BiasLiberal",1,1656,197,"Include"
"SCR2019_e1","SCR2019_e1_3",1,"ROCK",44,1,"Rep3_BiasLiberal",6,10092,1193,"Include"
"SCR2019_e1","SCR2019_e1_3",1,"STREET",45,0,"Rep3_BiasLiberal",1,2364,305,"Include"
"SCR2019_e1","SCR2019_e1_3",1,"BABY",46,1,"Rep3_BiasLiberal",6,1263,671,"Include"
"SCR2019_e1","SCR2019_e1_3",1,"BAY",47,0,"Rep3_BiasLiberal",6,5528,1324,"Include"
"SCR2019_e1","SCR2019_e1_3",1,"CHURCH",48,0,"Rep3_BiasLiberal",1,1222,268,"Include"
"SCR2019_e1","SCR2019_e1_3",1,"HAND",49,1,"Rep3_BiasLiberal",6,828,214,"Include"
"SCR2019_e1","SCR2019_e1_3",1,"FATHER",50,0,"Rep3_BiasLiberal",6,2047,1091,"Include"
"SCR2019_e1","SCR2019_e1_3",1,"FRIEND",51,1,"Rep3_BiasLiberal",6,719,475,"Include"
"SCR2019_e1","SCR2019_e1_3",1,"WHEEL",52,1,"Rep3_BiasLiberal",6,670,178,"Include"
"SCR2019_e1","SCR2019_e1_3",1,"GIRL",53,0,"Rep3_BiasLiberal",6,877,215,"Include"
"SCR2019_e1","SCR2019_e1_3",1,"HEART",54,1,"Rep3_BiasLiberal",6,649,174,"Include"
"SCR2019_e1","SCR2019_e1_3",1,"COAST",55,0,"Rep3_BiasLiberal",1,1307,205,"Include"
"SCR2019_e1","SCR2019_e1_3",1,"DAY",56,1,"Rep3_BiasLiberal",6,975,123,"Include"
"SCR2019_e1","SCR2019_e1_3",1,"LADY",57,1,"Rep3_BiasLiberal",6,735,141,"Include"
"SCR2019_e1","SCR2019_e1_3",1,"EDGE",58,0,"Rep3_BiasLiberal",1,1057,145,"Include"
"SCR2019_e1","SCR2019_e1_3",1,"FRAME",59,1,"Rep3_BiasLiberal",6,3735,173,"Include"
"SCR2019_e1","SCR2019_e1_3",1,"HEAD",60,0,"Rep3_BiasLiberal",6,1117,150,"Include"
"SCR2019_e1","SCR2019_e1_3",1,"EYE",61,0,"Rep3_BiasLiberal",6,633,597,"Include"
"SCR2019_e1","SCR2019_e1_3",1,"PERSON",62,0,"Rep3_BiasLiberal",1,872,209,"Include"
"SCR2019_e1","SCR2019_e1_3",1,"DOG",63,1,"Rep3_BiasLiberal",6,1320,220,"Include"
"SCR2019_e1","SCR2019_e1_3",1,"WINTER",64,0,"Rep3_BiasLiberal",1,824,198,"Include"
"SCR2019_e1","SCR2019_e1_3",1,"FELLOW",65,1,"Rep3_BiasLiberal",6,655,182,"Include"
"SCR2019_e1","SCR2019_e1_3",1,"DESK",66,0,"Rep3_BiasLiberal",1,824,163,"Include"
"SCR2019_e1","SCR2019_e1_3",1,"WATCH",67,0,"Rep3_BiasLiberal",1,1035,160,"Include"
"SCR2019_e1","SCR2019_e1_3",1,"PAPER",68,0,"Rep3_BiasLiberal",1,640,189,"Include"
"SCR2019_e1","SCR2019_e1_3",1,"DOCTOR",69,1,"Rep3_BiasLiberal",6,762,235,"Include"
"SCR2019_e1","SCR2019_e1_3",1,"PRODUCT",70,0,"Rep3_BiasLiberal",1,741,170,"Include"
"SCR2019_e1","SCR2019_e1_3",1,"INDIAN",71,0,"Rep3_BiasLiberal",1,801,179,"Include"
"SCR2019_e1","SCR2019_e1_3",1,"ARTICLE",72,0,"Rep3_BiasLiberal",1,1144,294,"Include"
"SCR2019_e1","SCR2019_e1_3",1,"HORSE",73,0,"Rep3_BiasLiberal",1,997,186,"Include"
"SCR2019_e1","SCR2019_e1_3",1,"MAN",74,0,"Rep3_BiasLiberal",6,1000,257,"Include"
"SCR2019_e1","SCR2019_e1_3",1,"RADIO",75,0,"Rep3_BiasLiberal",1,780,146,"Include"
"SCR2019_e1","SCR2019_e1_3",1,"DRESS",76,0,"Rep3_BiasLiberal",1,838,127,"Include"
"SCR2019_e1","SCR2019_e1_3",1,"FOOT",77,0,"Rep3_BiasLiberal",1,581,204,"Include"
"SCR2019_e1","SCR2019_e1_3",1,"ROAD",78,1,"Rep3_BiasLiberal",6,937,175,"Include"
"SCR2019_e1","SCR2019_e1_3",1,"BROTHER",79,0,"Rep3_BiasLiberal",1,918,184,"Include"
"SCR2019_e1","SCR2019_e1_3",1,"LEADER",80,1,"Rep3_BiasLiberal",6,886,185,"Include"
"SCR2019_e1","SCR2019_e1_3",1,"POOL",81,1,"Rep3_BiasLiberal",6,871,183,"Include"
"SCR2019_e1","SCR2019_e1_3",1,"CHAIN",82,1,"Rep3_BiasLiberal",6,1078,167,"Include"
"SCR2019_e1","SCR2019_e1_3",1,"WELL",83,0,"Rep3_BiasLiberal",1,851,167,"Include"
"SCR2019_e1","SCR2019_e1_3",1,"ANIMAL",84,0,"Rep3_BiasLiberal",6,690,164,"Include"
"SCR2019_e1","SCR2019_e1_3",1,"CAPTAIN",85,1,"Rep3_BiasLiberal",6,737,190,"Include"
"SCR2019_e1","SCR2019_e1_3",1,"BOTTLE",86,0,"Rep3_BiasLiberal",1,741,194,"Include"
"SCR2019_e1","SCR2019_e1_3",1,"LEG",87,1,"Rep3_BiasLiberal",6,644,214,"Include"
"SCR2019_e1","SCR2019_e1_3",1,"KEY",88,1,"Rep3_BiasLiberal",6,881,198,"Include"
"SCR2019_e1","SCR2019_e1_3",1,"JUDGE",89,0,"Rep3_BiasLiberal",6,2127,209,"Include"
"SCR2019_e1","SCR2019_e1_3",1,"GUN",90,0,"Rep3_BiasLiberal",1,769,212,"Include"
"SCR2019_e1","SCR2019_e1_3",1,"TRUCK",91,0,"Rep3_BiasLiberal",1,2541,254,"Include"
"SCR2019_e1","SCR2019_e1_3",1,"WOMAN",92,0,"Rep3_BiasLiberal",6,2258,265,"Include"
"SCR2019_e1","SCR2019_e1_3",1,"GUY",93,1,"Rep3_BiasLiberal",6,1506,220,"Include"
"SCR2019_e1","SCR2019_e1_3",1,"FACE",94,0,"Rep3_BiasLiberal",6,2098,60,"Include"
"SCR2019_e1","SCR2019_e1_3",1,"MOUTH",95,1,"Rep3_BiasLiberal",6,685,144,"Include"
"SCR2019_e1","SCR2019_e1_3",1,"ARTIST",96,1,"Rep3_BiasLiberal",6,773,117,"Include"
"SCR2019_e1","SCR2019_e1_3",1,"STUDENT",97,0,"Rep3_BiasLiberal",1,1095,140,"Include"
"SCR2019_e1","SCR2019_e1_3",1,"MOTHER",98,1,"Rep3_BiasLiberal",6,1479,118,"Include"
"SCR2019_e1","SCR2019_e1_3",1,"WIFE",99,0,"Rep3_BiasLiberal",1,755,136,"Include"
"SCR2019_e1","SCR2019_e1_3",1,"LIBRARY",100,0,"Rep3_BiasLiberal",1,831,141,"Include"
"SCR2019_e1","SCR2019_e1_4",1,"HUSBAND",1,1,"Rep1_BiasNone",6,2441,1836,"Include"
"SCR2019_e1","SCR2019_e1_4",1,"WELL",2,1,"Rep1_BiasNone",6,2580,1574,"Include"
"SCR2019_e1","SCR2019_e1_4",1,"BABY",3,0,"Rep1_BiasNone",2,2937,1309,"Include"
"SCR2019_e1","SCR2019_e1_4",1,"FELLOW",4,0,"Rep1_BiasNone",2,5489,1792,"Include"
"SCR2019_e1","SCR2019_e1_4",1,"ROCK",5,0,"Rep1_BiasNone",5,4087,1459,"Include"
"SCR2019_e1","SCR2019_e1_4",1,"HOTEL",6,0,"Rep1_BiasNone",5,4322,2394,"Include"
"SCR2019_e1","SCR2019_e1_4",1,"FEET",7,1,"Rep1_BiasNone",6,2536,2040,"Include"
"SCR2019_e1","SCR2019_e1_4",1,"ANIMAL",8,1,"Rep1_BiasNone",2,6717,1638,"Include"
"SCR2019_e1","SCR2019_e1_4",1,"LEAD",9,0,"Rep1_BiasNone",6,2356,1681,"Include"
"SCR2019_e1","SCR2019_e1_4",1,"COVER",10,1,"Rep1_BiasNone",6,1574,1258,"Include"
"SCR2019_e1","SCR2019_e1_4",1,"TRUCK",11,1,"Rep1_BiasNone",6,1793,644,"Include"
"SCR2019_e1","SCR2019_e1_4",1,"PEOPLE",12,0,"Rep1_BiasNone",6,1597,509,"Include"
"SCR2019_e1","SCR2019_e1_4",1,"PRODUCT",13,1,"Rep1_BiasNone",6,1579,557,"Include"
"SCR2019_e1","SCR2019_e1_4",1,"LIBRARY",14,1,"Rep1_BiasNone",2,2495,1389,"Include"
"SCR2019_e1","SCR2019_e1_4",1,"ARTICLE",15,1,"Rep1_BiasNone",5,2035,1742,"Include"
"SCR2019_e1","SCR2019_e1_4",1,"TEACHER",16,0,"Rep1_BiasNone",5,2967,1334,"Include"
"SCR2019_e1","SCR2019_e1_4",1,"WINTER",17,1,"Rep1_BiasNone",6,2667,988,"Include"
"SCR2019_e1","SCR2019_e1_4",1,"FATHER",18,1,"Rep1_BiasNone",6,1321,645,"Include"
"SCR2019_e1","SCR2019_e1_4",1,"FRIEND",19,0,"Rep1_BiasNone",2,4000,1773,"Include"
"SCR2019_e1","SCR2019_e1_4",1,"SNOW",20,0,"Rep1_BiasNone",2,2121,1633,"Include"
"SCR2019_e1","SCR2019_e1_4",1,"CENT",21,0,"Rep1_BiasNone",1,2329,1341,"Include"
"SCR2019_e1","SCR2019_e1_4",1,"CHAIN",22,0,"Rep1_BiasNone",2,2680,846,"Include"
"SCR2019_e1","SCR2019_e1_4",1,"SWEET",23,0,"Rep1_BiasNone",1,1611,949,"Include"
"SCR2019_e1","SCR2019_e1_4",1,"CATTLE",24,0,"Rep1_BiasNone",2,2714,1661,"Include"
"SCR2019_e1","SCR2019_e1_4",1,"ISLAND",25,1,"Rep1_BiasNone",2,1833,1789,"Include"
"SCR2019_e1","SCR2019_e1_4",1,"BAY",26,1,"Rep1_BiasNone",6,2169,838,"Include"
"SCR2019_e1","SCR2019_e1_4",1,"UNCLE",27,1,"Rep1_BiasNone",6,1516,601,"Include"
"SCR2019_e1","SCR2019_e1_4",1,"BEAR",28,1,"Rep1_BiasNone",6,1297,590,"Include"
"SCR2019_e1","SCR2019_e1_4",1,"JUDGE",29,1,"Rep1_BiasNone",6,1111,461,"Include"
"SCR2019_e1","SCR2019_e1_4",1,"PAGE",30,1,"Rep1_BiasNone",6,1338,363,"Include"
"SCR2019_e1","SCR2019_e1_4",1,"POOL",31,0,"Rep1_BiasNone",2,4571,806,"Include"
"SCR2019_e1","SCR2019_e1_4",1,"DESK",32,1,"Rep1_BiasNone",2,3067,527,"Include"
"SCR2019_e1","SCR2019_e1_4",1,"JURY",33,0,"Rep1_BiasNone",5,4115,429,"Include"
"SCR2019_e1","SCR2019_e1_4",1,"DRINK",34,0,"Rep1_BiasNone",2,2961,669,"Include"
"SCR2019_e1","SCR2019_e1_4",1,"MOTOR",35,0,"Rep1_BiasNone",2,3680,470,"Include"
"SCR2019_e1","SCR2019_e1_4",1,"TEST",36,0,"Rep1_BiasNone",2,2938,630,"Include"
"SCR2019_e1","SCR2019_e1_4",1,"GIRL",37,1,"Rep1_BiasNone",5,2319,702,"Include"
"SCR2019_e1","SCR2019_e1_4",1,"BROTHER",38,1,"Rep1_BiasNone",5,1346,622,"Include"
"SCR2019_e1","SCR2019_e1_4",1,"MAN",39,1,"Rep1_BiasNone",5,1915,478,"Include"
"SCR2019_e1","SCR2019_e1_4",1,"FOOT",40,1,"Rep1_BiasNone",6,2111,1285,"Include"
"SCR2019_e1","SCR2019_e1_4",1,"DOCTOR",41,0,"Rep1_BiasNone",2,3834,820,"Include"
"SCR2019_e1","SCR2019_e1_4",1,"BOAT",42,0,"Rep1_BiasNone",5,4681,611,"Include"
"SCR2019_e1","SCR2019_e1_4",1,"FRAME",43,0,"Rep1_BiasNone",2,2733,877,"Include"
"SCR2019_e1","SCR2019_e1_4",1,"FACE",44,1,"Rep1_BiasNone",6,1721,1036,"Include"
"SCR2019_e1","SCR2019_e1_4",1,"DRESS",45,1,"Rep1_BiasNone",6,1145,477,"Include"
"SCR2019_e1","SCR2019_e1_4",1,"HEART",46,0,"Rep1_BiasNone",2,3072,572,"Include"
"SCR2019_e1","SCR2019_e1_4",1,"STUDENT",47,1,"Rep1_BiasNone",6,2107,1158,"Include"
"SCR2019_e1","SCR2019_e1_4",1,"LINE",48,0,"Rep1_BiasNone",2,3257,1029,"Include"
"SCR2019_e1","SCR2019_e1_4",1,"LEADER",49,0,"Rep1_BiasNone",2,6560,654,"Include"
"SCR2019_e1","SCR2019_e1_4",1,"HORSE",50,1,"Rep1_BiasNone",2,2167,478,"Include"
"SCR2019_e1","SCR2019_e1_4",1,"NECK",51,1,"Rep1_BiasNone",5,1623,1553,"Include"
"SCR2019_e1","SCR2019_e1_4",1,"KID",52,0,"Rep1_BiasNone",2,1944,933,"Include"
"SCR2019_e1","SCR2019_e1_4",1,"SEAT",53,0,"Rep1_BiasNone",2,2900,1785,"Include"
"SCR2019_e1","SCR2019_e1_4",1,"ANGLE",54,1,"Rep1_BiasNone",5,2035,5972,"Include"
"SCR2019_e1","SCR2019_e1_4",1,"RECORD",55,0,"Rep1_BiasNone",2,1781,518,"Include"
"SCR2019_e1","SCR2019_e1_4",1,"EYE",56,1,"Rep1_BiasNone",2,2632,417,"Include"
"SCR2019_e1","SCR2019_e1_4",1,"BODY",57,1,"Rep1_BiasNone",5,3655,952,"Include"
"SCR2019_e1","SCR2019_e1_4",1,"WATCH",58,1,"Rep1_BiasNone",6,2942,839,"Include"
"SCR2019_e1","SCR2019_e1_4",1,"OFFICE",59,0,"Rep1_BiasNone",2,2474,517,"Include"
"SCR2019_e1","SCR2019_e1_4",1,"POINT",60,1,"Rep1_BiasNone",6,2320,894,"Include"
"SCR2019_e1","SCR2019_e1_4",1,"INDIAN",61,1,"Rep1_BiasNone",6,1206,598,"Include"
"SCR2019_e1","SCR2019_e1_4",1,"GUN",62,1,"Rep1_BiasNone",6,1208,461,"Include"
"SCR2019_e1","SCR2019_e1_4",1,"LEG",63,0,"Rep1_BiasNone",5,5895,796,"Include"
"SCR2019_e1","SCR2019_e1_4",1,"SHIP",64,1,"Rep1_BiasNone",2,2515,533,"Include"
"SCR2019_e1","SCR2019_e1_4",1,"HAND",65,0,"Rep1_BiasNone",2,3786,461,"Include"
"SCR2019_e1","SCR2019_e1_4",1,"KEY",66,0,"Rep1_BiasNone",5,4373,641,"Include"
"SCR2019_e1","SCR2019_e1_4",1,"ARM",67,0,"Rep1_BiasNone",5,3890,1405,"Include"
"SCR2019_e1","SCR2019_e1_4",1,"WATER",68,0,"Rep1_BiasNone",2,3544,632,"Include"
"SCR2019_e1","SCR2019_e1_4",1,"COUSIN",69,1,"Rep1_BiasNone",5,1659,1166,"Include"
"SCR2019_e1","SCR2019_e1_4",1,"EDGE",70,1,"Rep1_BiasNone",5,1717,458,"Include"
"SCR2019_e1","SCR2019_e1_4",1,"PAPER",71,1,"Rep1_BiasNone",5,887,385,"Include"
"SCR2019_e1","SCR2019_e1_4",1,"DAY",72,0,"Rep1_BiasNone",2,2784,479,"Include"
"SCR2019_e1","SCR2019_e1_4",1,"RADIO",73,1,"Rep1_BiasNone",5,1924,382,"Include"
"SCR2019_e1","SCR2019_e1_4",1,"HOUSE",74,0,"Rep1_BiasNone",2,1994,435,"Include"
"SCR2019_e1","SCR2019_e1_4",1,"GUY",75,0,"Rep1_BiasNone",5,2344,1005,"Include"
"SCR2019_e1","SCR2019_e1_4",1,"ROAD",76,0,"Rep1_BiasNone",2,3863,2364,"Include"
"SCR2019_e1","SCR2019_e1_4",1,"COAST",77,1,"Rep1_BiasNone",2,5233,454,"Include"
"SCR2019_e1","SCR2019_e1_4",1,"KING",78,0,"Rep1_BiasNone",2,1352,379,"Include"
"SCR2019_e1","SCR2019_e1_4",1,"FAMILY",79,0,"Rep1_BiasNone",2,2484,1891,"Include"
"SCR2019_e1","SCR2019_e1_4",1,"MOUTH",80,0,"Rep1_BiasNone",2,4959,288,"Include"
"SCR2019_e1","SCR2019_e1_4",1,"BOY",81,1,"Rep1_BiasNone",2,4723,380,"Include"
"SCR2019_e1","SCR2019_e1_4",1,"STREET",82,1,"Rep1_BiasNone",2,1307,327,"Include"
"SCR2019_e1","SCR2019_e1_4",1,"WOMAN",83,1,"Rep1_BiasNone",2,2023,373,"Include"
"SCR2019_e1","SCR2019_e1_4",1,"WHEEL",84,0,"Rep1_BiasNone",5,1542,432,"Include"
"SCR2019_e1","SCR2019_e1_4",1,"CHILD",85,0,"Rep1_BiasNone",5,3107,397,"Include"
"SCR2019_e1","SCR2019_e1_4",1,"TEAM",86,0,"Rep1_BiasNone",5,2769,406,"Include"
"SCR2019_e1","SCR2019_e1_4",1,"ARTIST",87,0,"Rep1_BiasNone",5,2683,413,"Include"
"SCR2019_e1","SCR2019_e1_4",1,"CHIEF",88,1,"Rep1_BiasNone",5,1241,485,"Include"
"SCR2019_e1","SCR2019_e1_4",1,"DOG",89,0,"Rep1_BiasNone",5,1746,373,"Include"
"SCR2019_e1","SCR2019_e1_4",1,"GROUND",90,0,"Rep1_BiasNone",2,2058,805,"Include"
"SCR2019_e1","SCR2019_e1_4",1,"LADY",91,0,"Rep1_BiasNone",2,1163,1078,"Include"
"SCR2019_e1","SCR2019_e1_4",1,"SIGN",92,0,"Rep1_BiasNone",2,2007,426,"Include"
"SCR2019_e1","SCR2019_e1_4",1,"CHURCH",93,1,"Rep1_BiasNone",5,1125,506,"Include"
"SCR2019_e1","SCR2019_e1_4",1,"PERSON",94,1,"Rep1_BiasNone",5,1082,470,"Include"
"SCR2019_e1","SCR2019_e1_4",1,"BOTTLE",95,1,"Rep1_BiasNone",5,1297,398,"Include"
"SCR2019_e1","SCR2019_e1_4",1,"MOTHER",96,0,"Rep1_BiasNone",5,868,293,"Include"
"SCR2019_e1","SCR2019_e1_4",1,"CAPTAIN",97,0,"Rep1_BiasNone",2,1917,348,"Include"
"SCR2019_e1","SCR2019_e1_4",1,"WIFE",98,1,"Rep1_BiasNone",2,3800,1087,"Include"
"SCR2019_e1","SCR2019_e1_4",1,"HEAD",99,1,"Rep1_BiasNone",5,1497,1404,"Include"
"SCR2019_e1","SCR2019_e1_4",1,"BOX",100,1,"Rep1_BiasNone",2,1668,1709,"Include"
"SCR2019_e1","SCR2019_e1_5",1,"RADIO",1,1,"Rep1_BiasConservative",5,4070,1845,"Include"
"SCR2019_e1","SCR2019_e1_5",1,"ISLAND",2,1,"Rep1_BiasConservative",6,1920,990,"Include"
"SCR2019_e1","SCR2019_e1_5",1,"FRIEND",3,0,"Rep1_BiasConservative",1,2389,2437,"Include"
"SCR2019_e1","SCR2019_e1_5",1,"ROCK",4,0,"Rep1_BiasConservative",1,1993,1109,"Include"
"SCR2019_e1","SCR2019_e1_5",1,"FOOT",5,1,"Rep1_BiasConservative",6,1347,1292,"Include"
"SCR2019_e1","SCR2019_e1_5",1,"TEST",6,0,"Rep1_BiasConservative",1,1468,2062,"Include"
"SCR2019_e1","SCR2019_e1_5",1,"KID",7,0,"Rep1_BiasConservative",1,1721,949,"Include"
"SCR2019_e1","SCR2019_e1_5",1,"LEG",8,0,"Rep1_BiasConservative",1,1882,757,"Include"
"SCR2019_e1","SCR2019_e1_5",1,"GUN",9,1,"Rep1_BiasConservative",6,1439,750,"Include"
"SCR2019_e1","SCR2019_e1_5",1,"FAMILY",10,0,"Rep1_BiasConservative",1,1853,1117,"Include"
"SCR2019_e1","SCR2019_e1_5",1,"MOTHER",11,0,"Rep1_BiasConservative",2,1871,2085,"Include"
"SCR2019_e1","SCR2019_e1_5",1,"BROTHER",12,1,"Rep1_BiasConservative",6,1327,1141,"Include"
"SCR2019_e1","SCR2019_e1_5",1,"DRESS",13,1,"Rep1_BiasConservative",2,1655,913,"Include"
"SCR2019_e1","SCR2019_e1_5",1,"TRUCK",14,1,"Rep1_BiasConservative",6,1312,1045,"Include"
"SCR2019_e1","SCR2019_e1_5",1,"BEAR",15,1,"Rep1_BiasConservative",5,3526,981,"Include"
"SCR2019_e1","SCR2019_e1_5",1,"BODY",16,1,"Rep1_BiasConservative",5,1399,1725,"Include"
"SCR2019_e1","SCR2019_e1_5",1,"TEACHER",17,0,"Rep1_BiasConservative",2,2037,980,"Include"
"SCR2019_e1","SCR2019_e1_5",1,"DAY",18,0,"Rep1_BiasConservative",1,2078,1333,"Include"
"SCR2019_e1","SCR2019_e1_5",1,"STREET",19,1,"Rep1_BiasConservative",6,1221,646,"Include"
"SCR2019_e1","SCR2019_e1_5",1,"DRINK",20,0,"Rep1_BiasConservative",2,1700,2303,"Include"
"SCR2019_e1","SCR2019_e1_5",1,"HOUSE",21,0,"Rep1_BiasConservative",5,2221,558,"Include"
"SCR2019_e1","SCR2019_e1_5",1,"SIGN",22,0,"Rep1_BiasConservative",1,1391,1669,"Include"
"SCR2019_e1","SCR2019_e1_5",1,"CHURCH",23,1,"Rep1_BiasConservative",1,1685,1245,"Include"
"SCR2019_e1","SCR2019_e1_5",1,"ROAD",24,0,"Rep1_BiasConservative",2,1750,637,"Include"
"SCR2019_e1","SCR2019_e1_5",1,"OFFICE",25,0,"Rep1_BiasConservative",1,1395,982,"Include"
"SCR2019_e1","SCR2019_e1_5",1,"POOL",26,0,"Rep1_BiasConservative",1,1339,535,"Include"
"SCR2019_e1","SCR2019_e1_5",1,"STUDENT",27,1,"Rep1_BiasConservative",5,1945,1014,"Include"
"SCR2019_e1","SCR2019_e1_5",1,"GROUND",28,0,"Rep1_BiasConservative",1,1612,1622,"Include"
"SCR2019_e1","SCR2019_e1_5",1,"LEAD",29,0,"Rep1_BiasConservative",1,1435,607,"Include"
"SCR2019_e1","SCR2019_e1_5",1,"CHIEF",30,1,"Rep1_BiasConservative",6,1310,974,"Include"
"SCR2019_e1","SCR2019_e1_5",1,"EDGE",31,1,"Rep1_BiasConservative",2,2594,1022,"Include"
"SCR2019_e1","SCR2019_e1_5",1,"PAGE",32,1,"Rep1_BiasConservative",2,2162,702,"Include"
"SCR2019_e1","SCR2019_e1_5",1,"COAST",33,1,"Rep1_BiasConservative",5,1865,885,"Include"
"SCR2019_e1","SCR2019_e1_5",1,"LIBRARY",34,1,"Rep1_BiasConservative",6,2017,910,"Include"
"SCR2019_e1","SCR2019_e1_5",1,"FRAME",35,0,"Rep1_BiasConservative",1,1594,694,"Include"
"SCR2019_e1","SCR2019_e1_5",1,"WIFE",36,1,"Rep1_BiasConservative",3,2768,2886,"Include"
"SCR2019_e1","SCR2019_e1_5",1,"BAY",37,1,"Rep1_BiasConservative",6,2055,1293,"Include"
"SCR2019_e1","SCR2019_e1_5",1,"SWEET",38,0,"Rep1_BiasConservative",1,1394,493,"Include"
"SCR2019_e1","SCR2019_e1_5",1,"SHIP",39,1,"Rep1_BiasConservative",2,2437,846,"Include"
"SCR2019_e1","SCR2019_e1_5",1,"BABY",40,0,"Rep1_BiasConservative",1,1524,633,"Include"
"SCR2019_e1","SCR2019_e1_5",1,"GIRL",41,1,"Rep1_BiasConservative",1,1477,1285,"Include"
"SCR2019_e1","SCR2019_e1_5",1,"CENT",42,0,"Rep1_BiasConservative",1,1311,477,"Include"
"SCR2019_e1","SCR2019_e1_5",1,"DOG",43,0,"Rep1_BiasConservative",1,1527,710,"Include"
"SCR2019_e1","SCR2019_e1_5",1,"WOMAN",44,1,"Rep1_BiasConservative",2,2518,1719,"Include"
"SCR2019_e1","SCR2019_e1_5",1,"DOCTOR",45,0,"Rep1_BiasConservative",1,1248,414,"Include"
"SCR2019_e1","SCR2019_e1_5",1,"WELL",46,1,"Rep1_BiasConservative",6,1835,686,"Include"
"SCR2019_e1","SCR2019_e1_5",1,"JUDGE",47,1,"Rep1_BiasConservative",6,1171,551,"Include"
"SCR2019_e1","SCR2019_e1_5",1,"HOTEL",48,0,"Rep1_BiasConservative",1,1454,862,"Include"
"SCR2019_e1","SCR2019_e1_5",1,"CATTLE",49,0,"Rep1_BiasConservative",1,1354,397,"Include"
"SCR2019_e1","SCR2019_e1_5",1,"BOTTLE",50,1,"Rep1_BiasConservative",6,1620,1245,"Include"
"SCR2019_e1","SCR2019_e1_5",1,"LINE",51,0,"Rep1_BiasConservative",2,1495,2109,"Include"
"SCR2019_e1","SCR2019_e1_5",1,"GUY",52,0,"Rep1_BiasConservative",1,1565,541,"Include"
"SCR2019_e1","SCR2019_e1_5",1,"HEAD",53,1,"Rep1_BiasConservative",6,1481,510,"Include"
"SCR2019_e1","SCR2019_e1_5",1,"WATER",54,0,"Rep1_BiasConservative",2,1233,1308,"Include"
"SCR2019_e1","SCR2019_e1_5",1,"HEART",55,0,"Rep1_BiasConservative",2,1513,413,"Include"
"SCR2019_e1","SCR2019_e1_5",1,"BOAT",56,0,"Rep1_BiasConservative",6,1615,718,"Include"
"SCR2019_e1","SCR2019_e1_5",1,"HORSE",57,1,"Rep1_BiasConservative",6,1005,365,"Include"
"SCR2019_e1","SCR2019_e1_5",1,"CHILD",58,0,"Rep1_BiasConservative",2,1522,846,"Include"
"SCR2019_e1","SCR2019_e1_5",1,"MOUTH",59,0,"Rep1_BiasConservative",1,1331,1006,"Include"
"SCR2019_e1","SCR2019_e1_5",1,"RECORD",60,0,"Rep1_BiasConservative",2,2474,1277,"Include"
"SCR2019_e1","SCR2019_e1_5",1,"MOTOR",61,0,"Rep1_BiasConservative",2,1650,1925,"Include"
"SCR2019_e1","SCR2019_e1_5",1,"TEAM",62,0,"Rep1_BiasConservative",2,1936,589,"Include"
"SCR2019_e1","SCR2019_e1_5",1,"BOX",63,1,"Rep1_BiasConservative",3,2797,1118,"Include"
"SCR2019_e1","SCR2019_e1_5",1,"WINTER",64,1,"Rep1_BiasConservative",1,1549,1237,"Include"
"SCR2019_e1","SCR2019_e1_5",1,"FACE",65,1,"Rep1_BiasConservative",6,2907,1078,"Include"
"SCR2019_e1","SCR2019_e1_5",1,"SNOW",66,0,"Rep1_BiasConservative",1,1451,527,"Include"
"SCR2019_e1","SCR2019_e1_5",1,"PAPER",67,1,"Rep1_BiasConservative",5,2327,2373,"Include"
"SCR2019_e1","SCR2019_e1_5",1,"LEADER",68,0,"Rep1_BiasConservative",2,1996,1701,"Include"
"SCR2019_e1","SCR2019_e1_5",1,"INDIAN",69,1,"Rep1_BiasConservative",6,1990,542,"Include"
"SCR2019_e1","SCR2019_e1_5",1,"BOY",70,1,"Rep1_BiasConservative",6,2545,331,"Include"
"SCR2019_e1","SCR2019_e1_5",1,"FEET",71,1,"Rep1_BiasConservative",6,1608,443,"Include"
"SCR2019_e1","SCR2019_e1_5",1,"MAN",72,1,"Rep1_BiasConservative",6,1520,654,"Include"
"SCR2019_e1","SCR2019_e1_5",1,"KING",73,0,"Rep1_BiasConservative",1,1321,421,"Include"
"SCR2019_e1","SCR2019_e1_5",1,"PRODUCT",74,1,"Rep1_BiasConservative",5,1926,2470,"Include"
"SCR2019_e1","SCR2019_e1_5",1,"WATCH",75,1,"Rep1_BiasConservative",6,1333,422,"Include"
"SCR2019_e1","SCR2019_e1_5",1,"FELLOW",76,0,"Rep1_BiasConservative",2,2064,294,"Include"
"SCR2019_e1","SCR2019_e1_5",1,"ANGLE",77,1,"Rep1_BiasConservative",6,1805,189,"Include"
"SCR2019_e1","SCR2019_e1_5",1,"ANIMAL",78,1,"Rep1_BiasConservative",6,910,158,"Include"
"SCR2019_e1","SCR2019_e1_5",1,"POINT",79,1,"Rep1_BiasConservative",3,5447,358,"Include"
"SCR2019_e1","SCR2019_e1_5",1,"ARM",80,0,"Rep1_BiasConservative",1,1652,366,"Include"
"SCR2019_e1","SCR2019_e1_5",1,"KEY",81,0,"Rep1_BiasConservative",1,1439,518,"Include"
"SCR2019_e1","SCR2019_e1_5",1,"LADY",82,0,"Rep1_BiasConservative",1,1375,374,"Include"
"SCR2019_e1","SCR2019_e1_5",1,"FATHER",83,1,"Rep1_BiasConservative",3,2155,544,"Include"
"SCR2019_e1","SCR2019_e1_5",1,"CHAIN",84,0,"Rep1_BiasConservative",1,1687,263,"Include"
"SCR2019_e1","SCR2019_e1_5",1,"HAND",85,0,"Rep1_BiasConservative",6,1267,278,"Include"
"SCR2019_e1","SCR2019_e1_5",1,"HUSBAND",86,1,"Rep1_BiasConservative",6,1265,286,"Include"
"SCR2019_e1","SCR2019_e1_5",1,"COVER",87,1,"Rep1_BiasConservative",6,1558,295,"Include"
"SCR2019_e1","SCR2019_e1_5",1,"EYE",88,1,"Rep1_BiasConservative",6,1403,205,"Include"
"SCR2019_e1","SCR2019_e1_5",1,"ARTIST",89,0,"Rep1_BiasConservative",1,2556,1006,"Include"
"SCR2019_e1","SCR2019_e1_5",1,"JURY",90,0,"Rep1_BiasConservative",1,1572,421,"Include"
"SCR2019_e1","SCR2019_e1_5",1,"PEOPLE",91,0,"Rep1_BiasConservative",1,1674,326,"Include"
"SCR2019_e1","SCR2019_e1_5",1,"DESK",92,1,"Rep1_BiasConservative",4,2357,213,"Include"
"SCR2019_e1","SCR2019_e1_5",1,"SEAT",93,0,"Rep1_BiasConservative",2,1560,1301,"Include"
"SCR2019_e1","SCR2019_e1_5",1,"CAPTAIN",94,0,"Rep1_BiasConservative",3,3485,1133,"Include"
"SCR2019_e1","SCR2019_e1_5",1,"WHEEL",95,0,"Rep1_BiasConservative",2,1912,1341,"Include"
"SCR2019_e1","SCR2019_e1_5",1,"COUSIN",96,1,"Rep1_BiasConservative",6,1327,280,"Include"
"SCR2019_e1","SCR2019_e1_5",1,"ARTICLE",97,1,"Rep1_BiasConservative",6,1336,189,"Include"
"SCR2019_e1","SCR2019_e1_5",1,"UNCLE",98,1,"Rep1_BiasConservative",6,1483,165,"Include"
"SCR2019_e1","SCR2019_e1_5",1,"NECK",99,1,"Rep1_BiasConservative",2,1948,1237,"Include"
"SCR2019_e1","SCR2019_e1_5",1,"PERSON",100,1,"Rep1_BiasConservative",3,5849,1309,"Include"
"SCR2019_e1","SCR2019_e1_6",1,"FOOT",1,0,"Rep3_BiasNone",2,2249,2670,"Include"
"SCR2019_e1","SCR2019_e1_6",1,"TEAM",2,1,"Rep3_BiasNone",6,1083,589,"Include"
"SCR2019_e1","SCR2019_e1_6",1,"LEG",3,1,"Rep3_BiasNone",6,1915,606,"Include"
"SCR2019_e1","SCR2019_e1_6",1,"JURY",4,1,"Rep3_BiasNone",6,761,829,"Include"
"SCR2019_e1","SCR2019_e1_6",1,"EDGE",5,0,"Rep3_BiasNone",1,1306,637,"Include"
"SCR2019_e1","SCR2019_e1_6",1,"WOMAN",6,0,"Rep3_BiasNone",2,4745,1294,"Include"
"SCR2019_e1","SCR2019_e1_6",1,"SIGN",7,1,"Rep3_BiasNone",6,1114,830,"Include"
"SCR2019_e1","SCR2019_e1_6",1,"HORSE",8,0,"Rep3_BiasNone",1,1800,846,"Include"
"SCR2019_e1","SCR2019_e1_6",1,"MOTOR",9,1,"Rep3_BiasNone",6,1097,398,"Include"
"SCR2019_e1","SCR2019_e1_6",1,"FACE",10,0,"Rep3_BiasNone",1,3031,365,"Include"
"SCR2019_e1","SCR2019_e1_6",1,"LEADER",11,1,"Rep3_BiasNone",6,922,318,"Include"
"SCR2019_e1","SCR2019_e1_6",1,"GUY",12,1,"Rep3_BiasNone",6,841,334,"Include"
"SCR2019_e1","SCR2019_e1_6",1,"DRINK",13,1,"Rep3_BiasNone",6,841,318,"Include"
"SCR2019_e1","SCR2019_e1_6",1,"WINTER",14,0,"Rep3_BiasNone",6,1243,285,"Include"
"SCR2019_e1","SCR2019_e1_6",1,"STREET",15,0,"Rep3_BiasNone",6,1003,526,"Include"
"SCR2019_e1","SCR2019_e1_6",1,"FRIEND",16,1,"Rep3_BiasNone",6,1948,1821,"Include"
"SCR2019_e1","SCR2019_e1_6",1,"SWEET",17,1,"Rep3_BiasNone",6,970,430,"Include"
"SCR2019_e1","SCR2019_e1_6",1,"KEY",18,1,"Rep3_BiasNone",6,906,350,"Include"
"SCR2019_e1","SCR2019_e1_6",1,"ARTICLE",19,0,"Rep3_BiasNone",1,1162,382,"Include"
"SCR2019_e1","SCR2019_e1_6",1,"ROCK",20,1,"Rep3_BiasNone",6,1305,382,"Include"
"SCR2019_e1","SCR2019_e1_6",1,"HOUSE",21,1,"Rep3_BiasNone",6,2985,270,"Include"
"SCR2019_e1","SCR2019_e1_6",1,"WHEEL",22,1,"Rep3_BiasNone",6,747,269,"Include"
"SCR2019_e1","SCR2019_e1_6",1,"PERSON",23,0,"Rep3_BiasNone",1,1130,270,"Include"
"SCR2019_e1","SCR2019_e1_6",1,"POOL",24,1,"Rep3_BiasNone",6,1162,271,"Include"
"SCR2019_e1","SCR2019_e1_6",1,"PEOPLE",25,1,"Rep3_BiasNone",6,744,271,"Include"
"SCR2019_e1","SCR2019_e1_6",1,"PAGE",26,0,"Rep3_BiasNone",1,937,286,"Include"
"SCR2019_e1","SCR2019_e1_6",1,"FAMILY",27,1,"Rep3_BiasNone",6,889,270,"Include"
"SCR2019_e1","SCR2019_e1_6",1,"BROTHER",28,0,"Rep3_BiasNone",1,842,238,"Include"
"SCR2019_e1","SCR2019_e1_6",1,"FATHER",29,0,"Rep3_BiasNone",1,1929,286,"Include"
"SCR2019_e1","SCR2019_e1_6",1,"GIRL",30,0,"Rep3_BiasNone",1,1834,350,"Include"
"SCR2019_e1","SCR2019_e1_6",1,"BABY",31,1,"Rep3_BiasNone",6,761,302,"Include"
"SCR2019_e1","SCR2019_e1_6",1,"WIFE",32,0,"Rep3_BiasNone",1,1083,253,"Include"
"SCR2019_e1","SCR2019_e1_6",1,"HAND",33,1,"Rep3_BiasNone",6,971,270,"Include"
"SCR2019_e1","SCR2019_e1_6",1,"ARTIST",34,1,"Rep3_BiasNone",6,746,238,"Include"
"SCR2019_e1","SCR2019_e1_6",1,"WELL",35,0,"Rep3_BiasNone",1,1529,238,"Include"
"SCR2019_e1","SCR2019_e1_6",1,"STUDENT",36,0,"Rep3_BiasNone",1,2057,302,"Include"
"SCR2019_e1","SCR2019_e1_6",1,"DESK",37,0,"Rep3_BiasNone",1,1146,238,"Include"
"SCR2019_e1","SCR2019_e1_6",1,"BOX",38,0,"Rep3_BiasNone",1,731,253,"Include"
"SCR2019_e1","SCR2019_e1_6",1,"LINE",39,1,"Rep3_BiasNone",6,858,252,"Include"
"SCR2019_e1","SCR2019_e1_6",1,"POINT",40,0,"Rep3_BiasNone",1,1162,238,"Include"
"SCR2019_e1","SCR2019_e1_6",1,"DOG",41,1,"Rep3_BiasNone",6,1161,271,"Include"
"SCR2019_e1","SCR2019_e1_6",1,"DRESS",42,0,"Rep3_BiasNone",1,1577,238,"Include"
"SCR2019_e1","SCR2019_e1_6",1,"BODY",43,0,"Rep3_BiasNone",1,2666,254,"Include"
"SCR2019_e1","SCR2019_e1_6",1,"BEAR",44,0,"Rep3_BiasNone",1,874,254,"Include"
"SCR2019_e1","SCR2019_e1_6",1,"MAN",45,0,"Rep3_BiasNone",6,1211,285,"Include"
"SCR2019_e1","SCR2019_e1_6",1,"MOTHER",46,1,"Rep3_BiasNone",6,762,286,"Include"
"SCR2019_e1","SCR2019_e1_6",1,"DOCTOR",47,1,"Rep3_BiasNone",6,2218,269,"Include"
"SCR2019_e1","SCR2019_e1_6",1,"CHURCH",48,0,"Rep3_BiasNone",1,2282,238,"Include"
"SCR2019_e1","SCR2019_e1_6",1,"CATTLE",49,1,"Rep3_BiasNone",6,777,271,"Include"
"SCR2019_e1","SCR2019_e1_6",1,"INDIAN",50,0,"Rep3_BiasNone",1,1097,240,"Include"
"SCR2019_e1","SCR2019_e1_6",1,"RECORD",51,1,"Rep3_BiasNone",6,1017,270,"Include"
"SCR2019_e1","SCR2019_e1_6",1,"WATER",52,1,"Rep3_BiasNone",6,697,254,"Include"
"SCR2019_e1","SCR2019_e1_6",1,"WATCH",53,0,"Rep3_BiasNone",1,1387,207,"Include"
"SCR2019_e1","SCR2019_e1_6",1,"SEAT",54,1,"Rep3_BiasNone",6,1209,254,"Include"
"SCR2019_e1","SCR2019_e1_6",1,"HOTEL",55,1,"Rep3_BiasNone",6,681,238,"Include"
"SCR2019_e1","SCR2019_e1_6",1,"OFFICE",56,1,"Rep3_BiasNone",6,761,238,"Include"
"SCR2019_e1","SCR2019_e1_6",1,"NECK",57,0,"Rep3_BiasNone",1,1197,205,"Include"
"SCR2019_e1","SCR2019_e1_6",1,"GUN",58,0,"Rep3_BiasNone",1,1019,254,"Include"
"SCR2019_e1","SCR2019_e1_6",1,"EYE",59,0,"Rep3_BiasNone",1,1834,254,"Include"
"SCR2019_e1","SCR2019_e1_6",1,"PAPER",60,0,"Rep3_BiasNone",1,746,253,"Include"
"SCR2019_e1","SCR2019_e1_6",1,"HEAD",61,0,"Rep3_BiasNone",1,3193,238,"Include"
"SCR2019_e1","SCR2019_e1_6",1,"ANIMAL",62,0,"Rep3_BiasNone",1,986,254,"Include"
"SCR2019_e1","SCR2019_e1_6",1,"GROUND",63,1,"Rep3_BiasNone",6,1211,269,"Include"
"SCR2019_e1","SCR2019_e1_6",1,"CHIEF",64,0,"Rep3_BiasNone",1,1162,254,"Include"
"SCR2019_e1","SCR2019_e1_6",1,"BOTTLE",65,0,"Rep3_BiasNone",1,873,270,"Include"
"SCR2019_e1","SCR2019_e1_6",1,"COVER",66,0,"Rep3_BiasNone",1,937,239,"Include"
"SCR2019_e1","SCR2019_e1_6",1,"CAPTAIN",67,1,"Rep3_BiasNone",6,761,286,"Include"
"SCR2019_e1","SCR2019_e1_6",1,"ROAD",68,1,"Rep3_BiasNone",1,1626,222,"Include"
"SCR2019_e1","SCR2019_e1_6",1,"UNCLE",69,0,"Rep3_BiasNone",1,905,222,"Include"
"SCR2019_e1","SCR2019_e1_6",1,"KING",70,1,"Rep3_BiasNone",6,1769,254,"Include"
"SCR2019_e1","SCR2019_e1_6",1,"FEET",71,0,"Rep3_BiasNone",1,1145,238,"Include"
"SCR2019_e1","SCR2019_e1_6",1,"ISLAND",72,0,"Rep3_BiasNone",1,731,221,"Include"
"SCR2019_e1","SCR2019_e1_6",1,"BOAT",73,1,"Rep3_BiasNone",6,874,238,"Include"
"SCR2019_e1","SCR2019_e1_6",1,"FRAME",74,1,"Rep3_BiasNone",6,1402,207,"Include"
"SCR2019_e1","SCR2019_e1_6",1,"JUDGE",75,0,"Rep3_BiasNone",6,3658,237,"Include"
"SCR2019_e1","SCR2019_e1_6",1,"SNOW",76,1,"Rep3_BiasNone",6,668,236,"Include"
"SCR2019_e1","SCR2019_e1_6",1,"TEACHER",77,1,"Rep3_BiasNone",6,794,254,"Include"
"SCR2019_e1","SCR2019_e1_6",1,"TEST",78,1,"Rep3_BiasNone",6,826,222,"Include"
"SCR2019_e1","SCR2019_e1_6",1,"HUSBAND",79,0,"Rep3_BiasNone",1,1209,206,"Include"
"SCR2019_e1","SCR2019_e1_6",1,"BAY",80,0,"Rep3_BiasNone",1,1433,206,"Include"
"SCR2019_e1","SCR2019_e1_6",1,"COAST",81,0,"Rep3_BiasNone",1,730,189,"Include"
"SCR2019_e1","SCR2019_e1_6",1,"ARM",82,1,"Rep3_BiasNone",6,3546,222,"Include"
"SCR2019_e1","SCR2019_e1_6",1,"MOUTH",83,1,"Rep3_BiasNone",6,794,254,"Include"
"SCR2019_e1","SCR2019_e1_6",1,"DAY",84,1,"Rep3_BiasNone",1,938,205,"Include"
"SCR2019_e1","SCR2019_e1_6",1,"CHAIN",85,1,"Rep3_BiasNone",6,938,238,"Include"
"SCR2019_e1","SCR2019_e1_6",1,"PRODUCT",86,0,"Rep3_BiasNone",1,906,206,"Include"
"SCR2019_e1","SCR2019_e1_6",1,"FELLOW",87,1,"Rep3_BiasNone",6,731,221,"Include"
"SCR2019_e1","SCR2019_e1_6",1,"LIBRARY",88,0,"Rep3_BiasNone",1,842,238,"Include"
"SCR2019_e1","SCR2019_e1_6",1,"KID",89,1,"Rep3_BiasNone",6,937,223,"Include"
"SCR2019_e1","SCR2019_e1_6",1,"RADIO",90,0,"Rep3_BiasNone",1,693,206,"Include"
"SCR2019_e1","SCR2019_e1_6",1,"LADY",91,1,"Rep3_BiasNone",6,3211,205,"Include"
"SCR2019_e1","SCR2019_e1_6",1,"BOY",92,0,"Rep3_BiasNone",1,1402,190,"Include"
"SCR2019_e1","SCR2019_e1_6",1,"LEAD",93,1,"Rep3_BiasNone",6,1034,287,"Include"
"SCR2019_e1","SCR2019_e1_6",1,"CENT",94,1,"Rep3_BiasNone",6,810,255,"Include"
"SCR2019_e1","SCR2019_e1_6",1,"TRUCK",95,0,"Rep3_BiasNone",1,761,254,"Include"
"SCR2019_e1","SCR2019_e1_6",1,"HEART",96,1,"Rep3_BiasNone",6,1003,268,"Include"
"SCR2019_e1","SCR2019_e1_6",1,"COUSIN",97,0,"Rep3_BiasNone",1,778,206,"Include"
"SCR2019_e1","SCR2019_e1_6",1,"ANGLE",98,0,"Rep3_BiasNone",1,1561,222,"Include"
"SCR2019_e1","SCR2019_e1_6",1,"SHIP",99,0,"Rep3_BiasNone",1,1338,222,"Include"
"SCR2019_e1","SCR2019_e1_6",1,"CHILD",100,1,"Rep3_BiasNone",1,1545,238,"Include"
"SCR2019_e1","SCR2019_e1_7",1,"LADY",1,0,"Rep3_BiasConservative",2,1569,1084,"Include"
"SCR2019_e1","SCR2019_e1_7",1,"COUSIN",2,1,"Rep3_BiasConservative",6,872,669,"Include"
"SCR2019_e1","SCR2019_e1_7",1,"UNCLE",3,1,"Rep3_BiasConservative",6,783,605,"Include"
"SCR2019_e1","SCR2019_e1_7",1,"FRIEND",4,0,"Rep3_BiasConservative",3,1325,1054,"Include"
"SCR2019_e1","SCR2019_e1_7",1,"WATCH",5,1,"Rep3_BiasConservative",5,1330,758,"Include"
"SCR2019_e1","SCR2019_e1_7",1,"WINTER",6,1,"Rep3_BiasConservative",5,1147,541,"Include"
"SCR2019_e1","SCR2019_e1_7",1,"STUDENT",7,1,"Rep3_BiasConservative",6,1113,559,"Include"
"SCR2019_e1","SCR2019_e1_7",1,"PAGE",8,1,"Rep3_BiasConservative",6,1048,463,"Include"
"SCR2019_e1","SCR2019_e1_7",1,"BABY",9,0,"Rep3_BiasConservative",1,803,635,"Include"
"SCR2019_e1","SCR2019_e1_7",1,"LINE",10,0,"Rep3_BiasConservative",2,1402,1193,"Include"
"SCR2019_e1","SCR2019_e1_7",1,"MOTHER",11,0,"Rep3_BiasConservative",3,1670,622,"Include"
"SCR2019_e1","SCR2019_e1_7",1,"HAND",12,0,"Rep3_BiasConservative",5,981,662,"Include"
"SCR2019_e1","SCR2019_e1_7",1,"BEAR",13,1,"Rep3_BiasConservative",6,802,318,"Include"
"SCR2019_e1","SCR2019_e1_7",1,"KID",14,0,"Rep3_BiasConservative",1,860,634,"Include"
"SCR2019_e1","SCR2019_e1_7",1,"ARTICLE",15,1,"Rep3_BiasConservative",6,1184,446,"Include"
"SCR2019_e1","SCR2019_e1_7",1,"HORSE",16,1,"Rep3_BiasConservative",6,900,310,"Include"
"SCR2019_e1","SCR2019_e1_7",1,"BAY",17,1,"Rep3_BiasConservative",6,968,270,"Include"
"SCR2019_e1","SCR2019_e1_7",1,"GUY",18,0,"Rep3_BiasConservative",1,894,504,"Include"
"SCR2019_e1","SCR2019_e1_7",1,"EYE",19,1,"Rep3_BiasConservative",6,1067,390,"Include"
"SCR2019_e1","SCR2019_e1_7",1,"BOY",20,1,"Rep3_BiasConservative",5,1237,445,"Include"
"SCR2019_e1","SCR2019_e1_7",1,"FEET",21,1,"Rep3_BiasConservative",3,1363,975,"Include"
"SCR2019_e1","SCR2019_e1_7",1,"WATER",22,0,"Rep3_BiasConservative",3,1281,502,"Include"
"SCR2019_e1","SCR2019_e1_7",1,"KING",23,0,"Rep3_BiasConservative",1,1324,815,"Include"
"SCR2019_e1","SCR2019_e1_7",1,"LIBRARY",24,1,"Rep3_BiasConservative",5,1629,614,"Include"
"SCR2019_e1","SCR2019_e1_7",1,"HUSBAND",25,1,"Rep3_BiasConservative",6,891,318,"Include"
"SCR2019_e1","SCR2019_e1_7",1,"GIRL",26,1,"Rep3_BiasConservative",6,840,245,"Include"
"SCR2019_e1","SCR2019_e1_7",1,"TEACHER",27,0,"Rep3_BiasConservative",2,815,862,"Include"
"SCR2019_e1","SCR2019_e1_7",1,"FATHER",28,1,"Rep3_BiasConservative",6,1164,215,"Include"
"SCR2019_e1","SCR2019_e1_7",1,"LEADER",29,0,"Rep3_BiasConservative",1,1006,579,"Include"
"SCR2019_e1","SCR2019_e1_7",1,"DOG",30,0,"Rep3_BiasConservative",2,1491,670,"Include"
"SCR2019_e1","SCR2019_e1_7",1,"WOMAN",31,1,"Rep3_BiasConservative",6,907,263,"Include"
"SCR2019_e1","SCR2019_e1_7",1,"RECORD",32,0,"Rep3_BiasConservative",1,1262,564,"Include"
"SCR2019_e1","SCR2019_e1_7",1,"POINT",33,1,"Rep3_BiasConservative",6,944,310,"Include"
"SCR2019_e1","SCR2019_e1_7",1,"FRAME",34,0,"Rep3_BiasConservative",1,1003,564,"Include"
"SCR2019_e1","SCR2019_e1_7",1,"COVER",35,1,"Rep3_BiasConservative",6,1070,423,"Include"
"SCR2019_e1","SCR2019_e1_7",1,"ANGLE",36,1,"Rep3_BiasConservative",6,746,221,"Include"
"SCR2019_e1","SCR2019_e1_7",1,"WELL",37,1,"Rep3_BiasConservative",6,908,191,"Include"
"SCR2019_e1","SCR2019_e1_7",1,"MOUTH",38,0,"Rep3_BiasConservative",3,1118,606,"Include"
"SCR2019_e1","SCR2019_e1_7",1,"PEOPLE",39,0,"Rep3_BiasConservative",6,1495,732,"Include"
"SCR2019_e1","SCR2019_e1_7",1,"ARTIST",40,0,"Rep3_BiasConservative",2,1299,773,"Include"
"SCR2019_e1","SCR2019_e1_7",1,"DESK",41,1,"Rep3_BiasConservative",6,1051,279,"Include"
"SCR2019_e1","SCR2019_e1_7",1,"RADIO",42,1,"Rep3_BiasConservative",6,1555,838,"Include"
"SCR2019_e1","SCR2019_e1_7",1,"PERSON",43,1,"Rep3_BiasConservative",6,956,215,"Include"
"SCR2019_e1","SCR2019_e1_7",1,"JUDGE",44,1,"Rep3_BiasConservative",6,1092,215,"Include"
"SCR2019_e1","SCR2019_e1_7",1,"CHILD",45,0,"Rep3_BiasConservative",3,1075,1022,"Include"
"SCR2019_e1","SCR2019_e1_7",1,"BODY",46,1,"Rep3_BiasConservative",6,4651,838,"Include"
"SCR2019_e1","SCR2019_e1_7",1,"ROCK",47,0,"Rep3_BiasConservative",3,1444,512,"Include"
"SCR2019_e1","SCR2019_e1_7",1,"MOTOR",48,0,"Rep3_BiasConservative",3,1041,347,"Include"
"SCR2019_e1","SCR2019_e1_7",1,"BOAT",49,0,"Rep3_BiasConservative",5,1219,567,"Include"
"SCR2019_e1","SCR2019_e1_7",1,"ISLAND",50,1,"Rep3_BiasConservative",6,1549,758,"Include"
"SCR2019_e1","SCR2019_e1_7",1,"HEART",51,0,"Rep3_BiasConservative",3,1100,582,"Include"
"SCR2019_e1","SCR2019_e1_7",1,"BOTTLE",52,1,"Rep3_BiasConservative",6,1089,534,"Include"
"SCR2019_e1","SCR2019_e1_7",1,"SNOW",53,0,"Rep3_BiasConservative",3,1258,534,"Include"
"SCR2019_e1","SCR2019_e1_7",1,"SEAT",54,0,"Rep3_BiasConservative",1,974,690,"Include"
"SCR2019_e1","SCR2019_e1_7",1,"PAPER",55,1,"Rep3_BiasConservative",3,1165,693,"Include"
"SCR2019_e1","SCR2019_e1_7",1,"TEST",56,0,"Rep3_BiasConservative",2,918,742,"Include"
"SCR2019_e1","SCR2019_e1_7",1,"ARM",57,0,"Rep3_BiasConservative",3,1156,735,"Include"
"SCR2019_e1","SCR2019_e1_7",1,"ANIMAL",58,1,"Rep3_BiasConservative",5,1907,683,"Include"
"SCR2019_e1","SCR2019_e1_7",1,"OFFICE",59,0,"Rep3_BiasConservative",3,883,503,"Include"
"SCR2019_e1","SCR2019_e1_7",1,"GUN",60,1,"Rep3_BiasConservative",6,1200,390,"Include"
"SCR2019_e1","SCR2019_e1_7",1,"CHIEF",61,1,"Rep3_BiasConservative",6,843,222,"Include"
"SCR2019_e1","SCR2019_e1_7",1,"EDGE",62,1,"Rep3_BiasConservative",5,1107,766,"Include"
"SCR2019_e1","SCR2019_e1_7",1,"FOOT",63,1,"Rep3_BiasConservative",6,786,230,"Include"
"SCR2019_e1","SCR2019_e1_7",1,"GROUND",64,0,"Rep3_BiasConservative",3,1122,415,"Include"
"SCR2019_e1","SCR2019_e1_7",1,"HOUSE",65,0,"Rep3_BiasConservative",2,971,415,"Include"
"SCR2019_e1","SCR2019_e1_7",1,"WIFE",66,1,"Rep3_BiasConservative",6,1013,515,"Include"
"SCR2019_e1","SCR2019_e1_7",1,"COAST",67,1,"Rep3_BiasConservative",6,914,247,"Include"
"SCR2019_e1","SCR2019_e1_7",1,"LEG",68,0,"Rep3_BiasConservative",2,1483,541,"Include"
"SCR2019_e1","SCR2019_e1_7",1,"SIGN",69,0,"Rep3_BiasConservative",3,1772,445,"Include"
"SCR2019_e1","SCR2019_e1_7",1,"ROAD",70,0,"Rep3_BiasConservative",3,2535,254,"Include"
"SCR2019_e1","SCR2019_e1_7",1,"DRINK",71,0,"Rep3_BiasConservative",3,855,213,"Include"
"SCR2019_e1","SCR2019_e1_7",1,"CATTLE",72,0,"Rep3_BiasConservative",1,1200,515,"Include"
"SCR2019_e1","SCR2019_e1_7",1,"POOL",73,0,"Rep3_BiasConservative",3,1201,359,"Include"
"SCR2019_e1","SCR2019_e1_7",1,"TEAM",74,0,"Rep3_BiasConservative",2,858,327,"Include"
"SCR2019_e1","SCR2019_e1_7",1,"STREET",75,1,"Rep3_BiasConservative",2,832,494,"Include"
"SCR2019_e1","SCR2019_e1_7",1,"BROTHER",76,1,"Rep3_BiasConservative",6,1021,238,"Include"
"SCR2019_e1","SCR2019_e1_7",1,"CENT",77,0,"Rep3_BiasConservative",1,874,476,"Include"
"SCR2019_e1","SCR2019_e1_7",1,"FELLOW",78,0,"Rep3_BiasConservative",1,1076,621,"Include"
"SCR2019_e1","SCR2019_e1_7",1,"FAMILY",79,0,"Rep3_BiasConservative",2,1299,455,"Include"
"SCR2019_e1","SCR2019_e1_7",1,"JURY",80,0,"Rep3_BiasConservative",3,2613,341,"Include"
"SCR2019_e1","SCR2019_e1_7",1,"DOCTOR",81,0,"Rep3_BiasConservative",3,1297,351,"Include"
"SCR2019_e1","SCR2019_e1_7",1,"CHAIN",82,0,"Rep3_BiasConservative",2,728,471,"Include"
"SCR2019_e1","SCR2019_e1_7",1,"MAN",83,1,"Rep3_BiasConservative",6,1276,316,"Include"
"SCR2019_e1","SCR2019_e1_7",1,"CAPTAIN",84,0,"Rep3_BiasConservative",2,1610,909,"Include"
"SCR2019_e1","SCR2019_e1_7",1,"HOTEL",85,0,"Rep3_BiasConservative",1,954,495,"Include"
"SCR2019_e1","SCR2019_e1_7",1,"TRUCK",86,1,"Rep3_BiasConservative",6,1094,423,"Include"
"SCR2019_e1","SCR2019_e1_7",1,"WHEEL",87,0,"Rep3_BiasConservative",2,940,543,"Include"
"SCR2019_e1","SCR2019_e1_7",1,"KEY",88,0,"Rep3_BiasConservative",2,948,407,"Include"
"SCR2019_e1","SCR2019_e1_7",1,"HEAD",89,1,"Rep3_BiasConservative",6,1547,448,"Include"
"SCR2019_e1","SCR2019_e1_7",1,"INDIAN",90,1,"Rep3_BiasConservative",6,763,238,"Include"
"SCR2019_e1","SCR2019_e1_7",1,"PRODUCT",91,1,"Rep3_BiasConservative",6,930,206,"Include"
"SCR2019_e1","SCR2019_e1_7",1,"CHURCH",92,1,"Rep3_BiasConservative",6,811,174,"Include"
"SCR2019_e1","SCR2019_e1_7",1,"NECK",93,1,"Rep3_BiasConservative",3,1336,198,"Include"
"SCR2019_e1","SCR2019_e1_7",1,"SHIP",94,1,"Rep3_BiasConservative",3,1011,158,"Include"
"SCR2019_e1","SCR2019_e1_7",1,"SWEET",95,0,"Rep3_BiasConservative",1,1338,531,"Include"
"SCR2019_e1","SCR2019_e1_7",1,"BOX",96,1,"Rep3_BiasConservative",6,910,172,"Include"
"SCR2019_e1","SCR2019_e1_7",1,"LEAD",97,0,"Rep3_BiasConservative",3,1007,467,"Include"
"SCR2019_e1","SCR2019_e1_7",1,"FACE",98,1,"Rep3_BiasConservative",6,1153,158,"Include"
"SCR2019_e1","SCR2019_e1_7",1,"DAY",99,0,"Rep3_BiasConservative",2,954,558,"Include"
"SCR2019_e1","SCR2019_e1_7",1,"DRESS",100,1,"Rep3_BiasConservative",6,1716,189,"Include"
"SCR2019_e1","SCR2019_e1_8",1,"WHEEL",1,0,"Rep1_BiasNone",4,365,312,"Include"
"SCR2019_e1","SCR2019_e1_8",1,"OFFICE",2,0,"Rep1_BiasNone",2,453,396,"Include"
"SCR2019_e1","SCR2019_e1_8",1,"LEADER",3,0,"Rep1_BiasNone",4,418,255,"Include"
"SCR2019_e1","SCR2019_e1_8",1,"COUSIN",4,1,"Rep1_BiasNone",2,309,286,"Include"
"SCR2019_e1","SCR2019_e1_8",1,"TEAM",5,0,"Rep1_BiasNone",4,368,423,"Include"
"SCR2019_e1","SCR2019_e1_8",1,"ARM",6,0,"Rep1_BiasNone",2,433,355,"Include"
"SCR2019_e1","SCR2019_e1_8",1,"ROAD",7,0,"Rep1_BiasNone",4,410,304,"Include"
"SCR2019_e1","SCR2019_e1_8",1,"FEET",8,1,"Rep1_BiasNone",2,437,330,"Include"
"SCR2019_e1","SCR2019_e1_8",1,"DAY",9,0,"Rep1_BiasNone",5,380,333,"Include"
"SCR2019_e1","SCR2019_e1_8",1,"WINTER",10,1,"Rep1_BiasNone",3,739,215,"Include"
"SCR2019_e1","SCR2019_e1_8",1,"KEY",11,0,"Rep1_BiasNone",5,490,108,"Include"
"SCR2019_e1","SCR2019_e1_8",1,"LEAD",12,0,"Rep1_BiasNone",1,494,118,"Include"
"SCR2019_e1","SCR2019_e1_8",1,"NECK",13,1,"Rep1_BiasNone",4,789,393,"Include"
"SCR2019_e1","SCR2019_e1_8",1,"FAMILY",14,0,"Rep1_BiasNone",2,564,181,"Include"
"SCR2019_e1","SCR2019_e1_8",1,"SIGN",15,0,"Rep1_BiasNone",6,347,186,"Include"
"SCR2019_e1","SCR2019_e1_8",1,"HOUSE",16,0,"Rep1_BiasNone",5,203,182,"Include"
"SCR2019_e1","SCR2019_e1_8",1,"ANIMAL",17,1,"Rep1_BiasNone",5,533,183,"Include"
"SCR2019_e1","SCR2019_e1_8",1,"CHAIN",18,0,"Rep1_BiasNone",5,80,338,"Include"
"SCR2019_e1","SCR2019_e1_8",1,"KID",19,0,"Rep1_BiasNone",3,376,492,"Include"
"SCR2019_e1","SCR2019_e1_8",1,"STREET",20,1,"Rep1_BiasNone",5,498,602,"Include"
"SCR2019_e1","SCR2019_e1_8",1,"UNCLE",21,1,"Rep1_BiasNone",3,573,741,"Include"
"SCR2019_e1","SCR2019_e1_8",1,"WOMAN",22,1,"Rep1_BiasNone",5,320,338,"Include"
"SCR2019_e1","SCR2019_e1_8",1,"GUY",23,0,"Rep1_BiasNone",5,457,295,"Include"
"SCR2019_e1","SCR2019_e1_8",1,"DESK",24,1,"Rep1_BiasNone",5,486,403,"Include"
"SCR2019_e1","SCR2019_e1_8",1,"BOAT",25,0,"Rep1_BiasNone",5,84,135,"Include"
"SCR2019_e1","SCR2019_e1_8",1,"CHILD",26,0,"Rep1_BiasNone",5,76,183,"Include"
"SCR2019_e1","SCR2019_e1_8",1,"WELL",27,1,"Rep1_BiasNone",4,76,39,"Include"
"SCR2019_e1","SCR2019_e1_8",1,"PAGE",28,1,"Rep1_BiasNone",2,95,47,"Include"
"SCR2019_e1","SCR2019_e1_8",1,"BAY",29,1,"Rep1_BiasNone",6,154,229,"Include"
"SCR2019_e1","SCR2019_e1_8",1,"FATHER",30,1,"Rep1_BiasNone",1,174,362,"Include"
"SCR2019_e1","SCR2019_e1_8",1,"SHIP",31,1,"Rep1_BiasNone",1,77,326,"Include"
"SCR2019_e1","SCR2019_e1_8",1,"CENT",32,0,"Rep1_BiasNone",5,73,0,"Include"
"SCR2019_e1","SCR2019_e1_8",1,"HAND",33,0,"Rep1_BiasNone",4,28,49,"Include"
"SCR2019_e1","SCR2019_e1_8",1,"ANGLE",34,1,"Rep1_BiasNone",3,116,50,"Include"
"SCR2019_e1","SCR2019_e1_8",1,"HEART",35,0,"Rep1_BiasNone",3,73,97,"Include"
"SCR2019_e1","SCR2019_e1_8",1,"RECORD",36,0,"Rep1_BiasNone",5,82,71,"Include"
"SCR2019_e1","SCR2019_e1_8",1,"CATTLE",37,0,"Rep1_BiasNone",6,84,0,"Include"
"SCR2019_e1","SCR2019_e1_8",1,"EYE",38,1,"Rep1_BiasNone",2,78,153,"Include"
"SCR2019_e1","SCR2019_e1_8",1,"SWEET",39,0,"Rep1_BiasNone",4,599,220,"Include"
"SCR2019_e1","SCR2019_e1_8",1,"DRINK",40,0,"Rep1_BiasNone",5,72,108,"Include"
"SCR2019_e1","SCR2019_e1_8",1,"MOTHER",41,0,"Rep1_BiasNone",3,105,284,"Include"
"SCR2019_e1","SCR2019_e1_8",1,"EDGE",42,1,"Rep1_BiasNone",4,117,79,"Include"
"SCR2019_e1","SCR2019_e1_8",1,"TRUCK",43,1,"Rep1_BiasNone",5,74,18,"Include"
"SCR2019_e1","SCR2019_e1_8",1,"HEAD",44,1,"Rep1_BiasNone",2,10,212,"Include"
"SCR2019_e1","SCR2019_e1_8",1,"KING",45,0,"Rep1_BiasNone",4,81,117,"Include"
"SCR2019_e1","SCR2019_e1_8",1,"COAST",46,1,"Rep1_BiasNone",5,7025,485,"Include"
"SCR2019_e1","SCR2019_e1_8",1,"PRODUCT",47,1,"Rep1_BiasNone",3,370,248,"Include"
"SCR2019_e1","SCR2019_e1_8",1,"LIBRARY",48,1,"Rep1_BiasNone",2,453,438,"Include"
"SCR2019_e1","SCR2019_e1_8",1,"CHURCH",49,1,"Rep1_BiasNone",4,439,271,"Include"
"SCR2019_e1","SCR2019_e1_8",1,"LEG",50,0,"Rep1_BiasNone",3,633,199,"Include"
"SCR2019_e1","SCR2019_e1_8",1,"BEAR",51,1,"Rep1_BiasNone",4,480,273,"Include"
"SCR2019_e1","SCR2019_e1_8",1,"DOCTOR",52,0,"Rep1_BiasNone",5,353,186,"Include"
"SCR2019_e1","SCR2019_e1_8",1,"FACE",53,1,"Rep1_BiasNone",5,460,1107,"Include"
"SCR2019_e1","SCR2019_e1_8",1,"BABY",54,0,"Rep1_BiasNone",5,372,907,"Include"
"SCR2019_e1","SCR2019_e1_8",1,"WIFE",55,1,"Rep1_BiasNone",1,541,871,"Include"
"SCR2019_e1","SCR2019_e1_8",1,"DOG",56,0,"Rep1_BiasNone",1,405,1061,"Include"
"SCR2019_e1","SCR2019_e1_8",1,"HUSBAND",57,1,"Rep1_BiasNone",2,406,1006,"Include"
"SCR2019_e1","SCR2019_e1_8",1,"INDIAN",58,1,"Rep1_BiasNone",6,546,1084,"Include"
"SCR2019_e1","SCR2019_e1_8",1,"MOTOR",59,0,"Rep1_BiasNone",1,482,1007,"Include"
"SCR2019_e1","SCR2019_e1_8",1,"POINT",60,1,"Rep1_BiasNone",2,587,764,"Include"
"SCR2019_e1","SCR2019_e1_8",1,"BOTTLE",61,1,"Rep1_BiasNone",2,631,726,"Include"
"SCR2019_e1","SCR2019_e1_8",1,"GROUND",62,0,"Rep1_BiasNone",2,10,6211,"Include"
"SCR2019_e1","SCR2019_e1_8",1,"COVER",63,1,"Rep1_BiasNone",2,2548,1109,"Include"
"SCR2019_e1","SCR2019_e1_8",1,"HORSE",64,1,"Rep1_BiasNone",1,519,974,"Include"
"SCR2019_e1","SCR2019_e1_8",1,"WATER",65,0,"Rep1_BiasNone",1,854,1229,"Include"
"SCR2019_e1","SCR2019_e1_8",1,"GIRL",66,1,"Rep1_BiasNone",1,3230,869,"Include"
"SCR2019_e1","SCR2019_e1_8",1,"BOX",67,1,"Rep1_BiasNone",2,672,966,"Include"
"SCR2019_e1","SCR2019_e1_8",1,"TEST",68,0,"Rep1_BiasNone",3,1550,712,"Include"
"SCR2019_e1","SCR2019_e1_8",1,"LADY",69,0,"Rep1_BiasNone",2,1337,1068,"Include"
"SCR2019_e1","SCR2019_e1_8",1,"MOUTH",70,0,"Rep1_BiasNone",2,546,644,"Include"
"SCR2019_e1","SCR2019_e1_8",1,"BOY",71,1,"Rep1_BiasNone",3,1059,685,"Include"
"SCR2019_e1","SCR2019_e1_8",1,"MAN",72,1,"Rep1_BiasNone",2,553,1090,"Include"
"SCR2019_e1","SCR2019_e1_8",1,"FOOT",73,1,"Rep1_BiasNone",2,405,819,"Include"
"SCR2019_e1","SCR2019_e1_8",1,"HOTEL",74,0,"Rep1_BiasNone",2,17292,2019,"Include"
"SCR2019_e1","SCR2019_e1_8",1,"DRESS",75,1,"Rep1_BiasNone",1,1596,1045,"Include"
"SCR2019_e1","SCR2019_e1_8",1,"ISLAND",76,1,"Rep1_BiasNone",6,2973,1311,"Include"
"SCR2019_e1","SCR2019_e1_8",1,"FRAME",77,0,"Rep1_BiasNone",1,2395,923,"Include"
"SCR2019_e1","SCR2019_e1_8",1,"GUN",78,1,"Rep1_BiasNone",5,2085,618,"Include"
"SCR2019_e1","SCR2019_e1_8",1,"FELLOW",79,0,"Rep1_BiasNone",2,1150,934,"Include"
"SCR2019_e1","SCR2019_e1_8",1,"JURY",80,0,"Rep1_BiasNone",1,2146,1158,"Include"
"SCR2019_e1","SCR2019_e1_8",1,"RADIO",81,1,"Rep1_BiasNone",5,1988,638,"Include"
"SCR2019_e1","SCR2019_e1_8",1,"WATCH",82,1,"Rep1_BiasNone",5,567,617,"Include"
"SCR2019_e1","SCR2019_e1_8",1,"PAPER",83,1,"Rep1_BiasNone",2,493,676,"Include"
"SCR2019_e1","SCR2019_e1_8",1,"SNOW",84,0,"Rep1_BiasNone",5,470,648,"Include"
"SCR2019_e1","SCR2019_e1_8",1,"CHIEF",85,1,"Rep1_BiasNone",1,496,661,"Include"
"SCR2019_e1","SCR2019_e1_8",1,"ARTICLE",86,1,"Rep1_BiasNone",5,2287,1450,"Include"
"SCR2019_e1","SCR2019_e1_8",1,"CAPTAIN",87,0,"Rep1_BiasNone",6,918,1128,"Include"
"SCR2019_e1","SCR2019_e1_8",1,"JUDGE",88,1,"Rep1_BiasNone",5,2584,856,"Include"
"SCR2019_e1","SCR2019_e1_8",1,"STUDENT",89,1,"Rep1_BiasNone",2,453,813,"Include"
"SCR2019_e1","SCR2019_e1_8",1,"ROCK",90,0,"Rep1_BiasNone",5,818,1144,"Include"
"SCR2019_e1","SCR2019_e1_8",1,"TEACHER",91,0,"Rep1_BiasNone",5,79,1172,"Include"
"SCR2019_e1","SCR2019_e1_8",1,"BODY",92,1,"Rep1_BiasNone",5,477,891,"Include"
"SCR2019_e1","SCR2019_e1_8",1,"PEOPLE",93,0,"Rep1_BiasNone",6,709,792,"Include"
"SCR2019_e1","SCR2019_e1_8",1,"BROTHER",94,1,"Rep1_BiasNone",1,503,1356,"Include"
"SCR2019_e1","SCR2019_e1_8",1,"POOL",95,0,"Rep1_BiasNone",5,593,800,"Include"
"SCR2019_e1","SCR2019_e1_8",1,"FRIEND",96,0,"Rep1_BiasNone",1,416,808,"Include"
"SCR2019_e1","SCR2019_e1_8",1,"SEAT",97,0,"Rep1_BiasNone",6,636,921,"Include"
"SCR2019_e1","SCR2019_e1_8",1,"PERSON",98,1,"Rep1_BiasNone",1,601,912,"Include"
"SCR2019_e1","SCR2019_e1_8",1,"LINE",99,0,"Rep1_BiasNone",4,166,1217,"Include"
"SCR2019_e1","SCR2019_e1_8",1,"ARTIST",100,0,"Rep1_BiasNone",5,76,667,"Include"
"SCR2019_e1","SCR2019_e1_9",1,"FRIEND",1,1,"Rep1_BiasConservative",6,1685,2390,"Include"
"SCR2019_e1","SCR2019_e1_9",1,"LINE",2,1,"Rep1_BiasConservative",6,2231,2910,"Include"
"SCR2019_e1","SCR2019_e1_9",1,"LEADER",3,1,"Rep1_BiasConservative",6,1184,1263,"Include"
"SCR2019_e1","SCR2019_e1_9",1,"FRAME",4,1,"Rep1_BiasConservative",6,1555,2229,"Include"
"SCR2019_e1","SCR2019_e1_9",1,"BOTTLE",5,0,"Rep1_BiasConservative",3,5863,3359,"Include"
"SCR2019_e1","SCR2019_e1_9",1,"BROTHER",6,0,"Rep1_BiasConservative",3,3389,1714,"Include"
"SCR2019_e1","SCR2019_e1_9",1,"HUSBAND",7,0,"Rep1_BiasConservative",5,3492,1478,"Include"
"SCR2019_e1","SCR2019_e1_9",1,"CHIEF",8,0,"Rep1_BiasConservative",3,3242,2087,"Include"
"SCR2019_e1","SCR2019_e1_9",1,"CHURCH",9,0,"Rep1_BiasConservative",2,1483,2149,"Include"
"SCR2019_e1","SCR2019_e1_9",1,"WATER",10,1,"Rep1_BiasConservative",6,1420,2415,"Include"
"SCR2019_e1","SCR2019_e1_9",1,"MAN",11,0,"Rep1_BiasConservative",3,11590,2055,"Include"
"SCR2019_e1","SCR2019_e1_9",1,"ANGLE",12,0,"Rep1_BiasConservative",3,3483,2159,"Include"
"SCR2019_e1","SCR2019_e1_9",1,"JURY",13,1,"Rep1_BiasConservative",6,1863,1199,"Include"
"SCR2019_e1","SCR2019_e1_9",1,"PAGE",14,0,"Rep1_BiasConservative",3,1551,3903,"Include"
"SCR2019_e1","SCR2019_e1_9",1,"WELL",15,0,"Rep1_BiasConservative",5,3163,1326,"Include"
"SCR2019_e1","SCR2019_e1_9",1,"WHEEL",16,1,"Rep1_BiasConservative",5,1534,1358,"Include"
"SCR2019_e1","SCR2019_e1_9",1,"HORSE",17,0,"Rep1_BiasConservative",2,1644,1814,"Include"
"SCR2019_e1","SCR2019_e1_9",1,"INDIAN",18,0,"Rep1_BiasConservative",2,1636,1118,"Include"
"SCR2019_e1","SCR2019_e1_9",1,"SEAT",19,1,"Rep1_BiasConservative",4,1890,1543,"Include"
"SCR2019_e1","SCR2019_e1_9",1,"ANIMAL",20,0,"Rep1_BiasConservative",3,3678,1143,"Include"
"SCR2019_e1","SCR2019_e1_9",1,"LEG",21,1,"Rep1_BiasConservative",6,1620,1784,"Include"
"SCR2019_e1","SCR2019_e1_9",1,"WIFE",22,0,"Rep1_BiasConservative",5,1740,1095,"Include"
"SCR2019_e1","SCR2019_e1_9",1,"ISLAND",23,0,"Rep1_BiasConservative",2,4140,2798,"Include"
"SCR2019_e1","SCR2019_e1_9",1,"LADY",24,1,"Rep1_BiasConservative",6,2069,951,"Include"
"SCR2019_e1","SCR2019_e1_9",1,"BOY",25,0,"Rep1_BiasConservative",5,1831,1222,"Include"
"SCR2019_e1","SCR2019_e1_9",1,"RADIO",26,0,"Rep1_BiasConservative",2,2384,3095,"Include"
"SCR2019_e1","SCR2019_e1_9",1,"PEOPLE",27,1,"Rep1_BiasConservative",6,2259,1015,"Include"
"SCR2019_e1","SCR2019_e1_9",1,"NECK",28,0,"Rep1_BiasConservative",2,1818,1718,"Include"
"SCR2019_e1","SCR2019_e1_9",1,"WATCH",29,0,"Rep1_BiasConservative",2,8151,1271,"Include"
"SCR2019_e1","SCR2019_e1_9",1,"TEAM",30,1,"Rep1_BiasConservative",6,1272,1358,"Include"
"SCR2019_e1","SCR2019_e1_9",1,"MOTHER",31,1,"Rep1_BiasConservative",6,1131,879,"Include"
"SCR2019_e1","SCR2019_e1_9",1,"COAST",32,0,"Rep1_BiasConservative",2,1322,1599,"Include"
"SCR2019_e1","SCR2019_e1_9",1,"BODY",33,0,"Rep1_BiasConservative",5,1705,1054,"Include"
"SCR2019_e1","SCR2019_e1_9",1,"ROAD",34,1,"Rep1_BiasConservative",5,1532,918,"Include"
"SCR2019_e1","SCR2019_e1_9",1,"PAPER",35,0,"Rep1_BiasConservative",2,1678,982,"Include"
"SCR2019_e1","SCR2019_e1_9",1,"RECORD",36,1,"Rep1_BiasConservative",2,1554,678,"Include"
"SCR2019_e1","SCR2019_e1_9",1,"SHIP",37,0,"Rep1_BiasConservative",2,2702,903,"Include"
"SCR2019_e1","SCR2019_e1_9",1,"EYE",38,0,"Rep1_BiasConservative",2,1376,735,"Include"
"SCR2019_e1","SCR2019_e1_9",1,"PERSON",39,0,"Rep1_BiasConservative",2,1932,662,"Include"
"SCR2019_e1","SCR2019_e1_9",1,"BEAR",40,0,"Rep1_BiasConservative",2,1149,679,"Include"
"SCR2019_e1","SCR2019_e1_9",1,"CHILD",41,1,"Rep1_BiasConservative",6,1290,647,"Include"
"SCR2019_e1","SCR2019_e1_9",1,"HOTEL",42,1,"Rep1_BiasConservative",2,1248,791,"Include"
"SCR2019_e1","SCR2019_e1_9",1,"BAY",43,0,"Rep1_BiasConservative",2,2234,622,"Include"
"SCR2019_e1","SCR2019_e1_9",1,"EDGE",44,0,"Rep1_BiasConservative",2,1409,662,"Include"
"SCR2019_e1","SCR2019_e1_9",1,"GIRL",45,0,"Rep1_BiasConservative",3,7210,2262,"Include"
"SCR2019_e1","SCR2019_e1_9",1,"DRESS",46,0,"Rep1_BiasConservative",2,1779,1308,"Include"
"SCR2019_e1","SCR2019_e1_9",1,"MOTOR",47,1,"Rep1_BiasConservative",6,1526,614,"Include"
"SCR2019_e1","SCR2019_e1_9",1,"MOUTH",48,1,"Rep1_BiasConservative",6,1128,543,"Include"
"SCR2019_e1","SCR2019_e1_9",1,"CENT",49,1,"Rep1_BiasConservative",6,1335,783,"Include"
"SCR2019_e1","SCR2019_e1_9",1,"CATTLE",50,1,"Rep1_BiasConservative",6,1489,470,"Include"
"SCR2019_e1","SCR2019_e1_9",1,"HAND",51,1,"Rep1_BiasConservative",5,2191,623,"Include"
"SCR2019_e1","SCR2019_e1_9",1,"DAY",52,1,"Rep1_BiasConservative",5,1905,1159,"Include"
"SCR2019_e1","SCR2019_e1_9",1,"HEART",53,1,"Rep1_BiasConservative",6,1280,559,"Include"
"SCR2019_e1","SCR2019_e1_9",1,"UNCLE",54,0,"Rep1_BiasConservative",3,2098,894,"Include"
"SCR2019_e1","SCR2019_e1_9",1,"FACE",55,0,"Rep1_BiasConservative",3,5826,1765,"Include"
"SCR2019_e1","SCR2019_e1_9",1,"PRODUCT",56,0,"Rep1_BiasConservative",3,4360,1397,"Include"
"SCR2019_e1","SCR2019_e1_9",1,"FELLOW",57,1,"Rep1_BiasConservative",6,1398,486,"Include"
"SCR2019_e1","SCR2019_e1_9",1,"ARTICLE",58,0,"Rep1_BiasConservative",2,1367,870,"Include"
"SCR2019_e1","SCR2019_e1_9",1,"LEAD",59,1,"Rep1_BiasConservative",5,2549,311,"Include"
"SCR2019_e1","SCR2019_e1_9",1,"COUSIN",60,0,"Rep1_BiasConservative",2,2179,1509,"Include"
"SCR2019_e1","SCR2019_e1_9",1,"TEST",61,1,"Rep1_BiasConservative",6,1685,678,"Include"
"SCR2019_e1","SCR2019_e1_9",1,"DRINK",62,1,"Rep1_BiasConservative",2,1966,887,"Include"
"SCR2019_e1","SCR2019_e1_9",1,"FEET",63,0,"Rep1_BiasConservative",2,3480,894,"Include"
"SCR2019_e1","SCR2019_e1_9",1,"HOUSE",64,1,"Rep1_BiasConservative",6,1322,495,"Include"
"SCR2019_e1","SCR2019_e1_9",1,"POINT",65,0,"Rep1_BiasConservative",2,1596,598,"Include"
"SCR2019_e1","SCR2019_e1_9",1,"COVER",66,0,"Rep1_BiasConservative",2,1339,698,"Include"
"SCR2019_e1","SCR2019_e1_9",1,"FATHER",67,0,"Rep1_BiasConservative",2,5200,3381,"Include"
"SCR2019_e1","SCR2019_e1_9",1,"POOL",68,1,"Rep1_BiasConservative",6,3810,975,"Include"
"SCR2019_e1","SCR2019_e1_9",1,"STREET",69,0,"Rep1_BiasConservative",2,2134,1405,"Include"
"SCR2019_e1","SCR2019_e1_9",1,"JUDGE",70,0,"Rep1_BiasConservative",2,5460,822,"Include"
"SCR2019_e1","SCR2019_e1_9",1,"ARTIST",71,1,"Rep1_BiasConservative",6,1384,2056,"Include"
"SCR2019_e1","SCR2019_e1_9",1,"BOX",72,0,"Rep1_BiasConservative",2,2378,806,"Include"
"SCR2019_e1","SCR2019_e1_9",1,"FOOT",73,0,"Rep1_BiasConservative",6,1831,919,"Include"
"SCR2019_e1","SCR2019_e1_9",1,"LIBRARY",74,0,"Rep1_BiasConservative",2,1295,950,"Include"
"SCR2019_e1","SCR2019_e1_9",1,"GUY",75,1,"Rep1_BiasConservative",6,1169,902,"Include"
"SCR2019_e1","SCR2019_e1_9",1,"TRUCK",76,0,"Rep1_BiasConservative",2,1116,759,"Include"
"SCR2019_e1","SCR2019_e1_9",1,"KING",77,1,"Rep1_BiasConservative",6,1945,814,"Include"
"SCR2019_e1","SCR2019_e1_9",1,"TEACHER",78,1,"Rep1_BiasConservative",6,2569,526,"Include"
"SCR2019_e1","SCR2019_e1_9",1,"ARM",79,1,"Rep1_BiasConservative",6,1403,695,"Include"
"SCR2019_e1","SCR2019_e1_9",1,"DESK",80,0,"Rep1_BiasConservative",2,1131,686,"Include"
"SCR2019_e1","SCR2019_e1_9",1,"OFFICE",81,1,"Rep1_BiasConservative",4,3444,598,"Include"
"SCR2019_e1","SCR2019_e1_9",1,"STUDENT",82,0,"Rep1_BiasConservative",2,1613,998,"Include"
"SCR2019_e1","SCR2019_e1_9",1,"FAMILY",83,1,"Rep1_BiasConservative",6,1287,535,"Include"
"SCR2019_e1","SCR2019_e1_9",1,"WINTER",84,0,"Rep1_BiasConservative",3,1403,1094,"Include"
"SCR2019_e1","SCR2019_e1_9",1,"DOCTOR",85,1,"Rep1_BiasConservative",6,1298,502,"Include"
"SCR2019_e1","SCR2019_e1_9",1,"WOMAN",86,0,"Rep1_BiasConservative",3,2384,3262,"Include"
"SCR2019_e1","SCR2019_e1_9",1,"BOAT",87,1,"Rep1_BiasConservative",5,2718,374,"Include"
"SCR2019_e1","SCR2019_e1_9",1,"HEAD",88,0,"Rep1_BiasConservative",2,1881,782,"Include"
"SCR2019_e1","SCR2019_e1_9",1,"SNOW",89,1,"Rep1_BiasConservative",6,2175,566,"Include"
"SCR2019_e1","SCR2019_e1_9",1,"GUN",90,0,"Rep1_BiasConservative",3,1591,1141,"Include"
"SCR2019_e1","SCR2019_e1_9",1,"SWEET",91,1,"Rep1_BiasConservative",6,1262,471,"Include"
"SCR2019_e1","SCR2019_e1_9",1,"SIGN",92,1,"Rep1_BiasConservative",6,1503,622,"Include"
"SCR2019_e1","SCR2019_e1_9",1,"KEY",93,1,"Rep1_BiasConservative",6,1281,703,"Include"
"SCR2019_e1","SCR2019_e1_9",1,"GROUND",94,1,"Rep1_BiasConservative",6,999,623,"Include"
"SCR2019_e1","SCR2019_e1_9",1,"CAPTAIN",95,1,"Rep1_BiasConservative",6,944,599,"Include"
"SCR2019_e1","SCR2019_e1_9",1,"DOG",96,1,"Rep1_BiasConservative",6,1005,413,"Include"
"SCR2019_e1","SCR2019_e1_9",1,"CHAIN",97,1,"Rep1_BiasConservative",6,1407,415,"Include"
"SCR2019_e1","SCR2019_e1_9",1,"BABY",98,1,"Rep1_BiasConservative",6,828,422,"Include"
"SCR2019_e1","SCR2019_e1_9",1,"KID",99,1,"Rep1_BiasConservative",6,989,454,"Include"
"SCR2019_e1","SCR2019_e1_9",1,"ROCK",100,1,"Rep1_BiasConservative",6,1024,358,"Include"
"SCR2019_e1","SCR2019_e1_10",1,"BEAR",1,1,"Rep3_BiasLiberal",6,900,846,"Include"
"SCR2019_e1","SCR2019_e1_10",1,"OFFICE",2,0,"Rep3_BiasLiberal",1,1066,463,"Include"
"SCR2019_e1","SCR2019_e1_10",1,"LEG",3,0,"Rep3_BiasLiberal",1,852,423,"Include"
"SCR2019_e1","SCR2019_e1_10",1,"POINT",4,1,"Rep3_BiasLiberal",6,835,439,"Include"
"SCR2019_e1","SCR2019_e1_10",1,"BROTHER",5,1,"Rep3_BiasLiberal",6,885,351,"Include"
"SCR2019_e1","SCR2019_e1_10",1,"WHEEL",6,0,"Rep3_BiasLiberal",1,1497,375,"Include"
"SCR2019_e1","SCR2019_e1_10",1,"PAGE",7,1,"Rep3_BiasLiberal",6,720,358,"Include"
"SCR2019_e1","SCR2019_e1_10",1,"WATCH",8,1,"Rep3_BiasLiberal",6,1046,278,"Include"
"SCR2019_e1","SCR2019_e1_10",1,"FEET",9,1,"Rep3_BiasLiberal",6,719,293,"Include"
"SCR2019_e1","SCR2019_e1_10",1,"CENT",10,0,"Rep3_BiasLiberal",1,824,366,"Include"
"SCR2019_e1","SCR2019_e1_10",1,"DESK",11,1,"Rep3_BiasLiberal",6,802,286,"Include"
"SCR2019_e1","SCR2019_e1_10",1,"DRINK",12,0,"Rep3_BiasLiberal",1,827,253,"Include"
"SCR2019_e1","SCR2019_e1_10",1,"HUSBAND",13,1,"Rep3_BiasLiberal",6,723,351,"Include"
"SCR2019_e1","SCR2019_e1_10",1,"ANIMAL",14,1,"Rep3_BiasLiberal",6,699,326,"Include"
"SCR2019_e1","SCR2019_e1_10",1,"EDGE",15,1,"Rep3_BiasLiberal",6,942,271,"Include"
"SCR2019_e1","SCR2019_e1_10",1,"BAY",16,1,"Rep3_BiasLiberal",6,698,334,"Include"
"SCR2019_e1","SCR2019_e1_10",1,"BOX",17,1,"Rep3_BiasLiberal",6,987,390,"Include"
"SCR2019_e1","SCR2019_e1_10",1,"ARTICLE",18,1,"Rep3_BiasLiberal",5,1711,351,"Include"
"SCR2019_e1","SCR2019_e1_10",1,"SNOW",19,0,"Rep3_BiasLiberal",1,910,437,"Include"
"SCR2019_e1","SCR2019_e1_10",1,"STREET",20,1,"Rep3_BiasLiberal",6,734,302,"Include"
"SCR2019_e1","SCR2019_e1_10",1,"LEAD",21,0,"Rep3_BiasLiberal",1,1329,454,"Include"
"SCR2019_e1","SCR2019_e1_10",1,"TEAM",22,0,"Rep3_BiasLiberal",1,917,503,"Include"
"SCR2019_e1","SCR2019_e1_10",1,"WATER",23,0,"Rep3_BiasLiberal",5,1942,238,"Include"
"SCR2019_e1","SCR2019_e1_10",1,"BOY",24,1,"Rep3_BiasLiberal",6,1100,310,"Include"
"SCR2019_e1","SCR2019_e1_10",1,"GROUND",25,0,"Rep3_BiasLiberal",1,859,309,"Include"
"SCR2019_e1","SCR2019_e1_10",1,"ANGLE",26,1,"Rep3_BiasLiberal",5,765,566,"Include"
"SCR2019_e1","SCR2019_e1_10",1,"PAPER",27,1,"Rep3_BiasLiberal",6,1413,270,"Include"
"SCR2019_e1","SCR2019_e1_10",1,"BOTTLE",28,1,"Rep3_BiasLiberal",2,1355,302,"Include"
"SCR2019_e1","SCR2019_e1_10",1,"WIFE",29,1,"Rep3_BiasLiberal",6,733,350,"Include"
"SCR2019_e1","SCR2019_e1_10",1,"HAND",30,0,"Rep3_BiasLiberal",6,1720,222,"Include"
"SCR2019_e1","SCR2019_e1_10",1,"ARTIST",31,0,"Rep3_BiasLiberal",2,2207,335,"Include"
"SCR2019_e1","SCR2019_e1_10",1,"NECK",32,1,"Rep3_BiasLiberal",5,741,583,"Include"
"SCR2019_e1","SCR2019_e1_10",1,"JURY",33,0,"Rep3_BiasLiberal",2,3515,294,"Include"
"SCR2019_e1","SCR2019_e1_10",1,"LIBRARY",34,1,"Rep3_BiasLiberal",6,1027,303,"Include"
"SCR2019_e1","SCR2019_e1_10",1,"ARM",35,0,"Rep3_BiasLiberal",2,1080,511,"Include"
"SCR2019_e1","SCR2019_e1_10",1,"ROAD",36,0,"Rep3_BiasLiberal",2,894,509,"Include"
"SCR2019_e1","SCR2019_e1_10",1,"CATTLE",37,0,"Rep3_BiasLiberal",1,958,511,"Include"
"SCR2019_e1","SCR2019_e1_10",1,"SIGN",38,0,"Rep3_BiasLiberal",1,1302,439,"Include"
"SCR2019_e1","SCR2019_e1_10",1,"KING",39,0,"Rep3_BiasLiberal",1,1499,589,"Include"
"SCR2019_e1","SCR2019_e1_10",1,"EYE",40,1,"Rep3_BiasLiberal",6,1052,374,"Include"
"SCR2019_e1","SCR2019_e1_10",1,"CAPTAIN",41,0,"Rep3_BiasLiberal",5,2073,295,"Include"
"SCR2019_e1","SCR2019_e1_10",1,"CHAIN",42,0,"Rep3_BiasLiberal",2,2431,350,"Include"
"SCR2019_e1","SCR2019_e1_10",1,"HEAD",43,1,"Rep3_BiasLiberal",6,1003,391,"Include"
"SCR2019_e1","SCR2019_e1_10",1,"BOAT",44,0,"Rep3_BiasLiberal",2,1219,415,"Include"
"SCR2019_e1","SCR2019_e1_10",1,"BODY",45,1,"Rep3_BiasLiberal",6,985,396,"Include"
"SCR2019_e1","SCR2019_e1_10",1,"HOUSE",46,0,"Rep3_BiasLiberal",6,748,342,"Include"
"SCR2019_e1","SCR2019_e1_10",1,"TEST",47,0,"Rep3_BiasLiberal",2,1148,334,"Include"
"SCR2019_e1","SCR2019_e1_10",1,"WINTER",48,1,"Rep3_BiasLiberal",6,738,366,"Include"
"SCR2019_e1","SCR2019_e1_10",1,"LINE",49,0,"Rep3_BiasLiberal",2,977,319,"Include"
"SCR2019_e1","SCR2019_e1_10",1,"POOL",50,0,"Rep3_BiasLiberal",1,1089,350,"Include"
"SCR2019_e1","SCR2019_e1_10",1,"JUDGE",51,1,"Rep3_BiasLiberal",6,829,367,"Include"
"SCR2019_e1","SCR2019_e1_10",1,"RECORD",52,0,"Rep3_BiasLiberal",1,1250,647,"Include"
"SCR2019_e1","SCR2019_e1_10",1,"MOTOR",53,0,"Rep3_BiasLiberal",1,2020,255,"Include"
"SCR2019_e1","SCR2019_e1_10",1,"LEADER",54,0,"Rep3_BiasLiberal",1,1401,390,"Include"
"SCR2019_e1","SCR2019_e1_10",1,"TRUCK",55,1,"Rep3_BiasLiberal",6,745,343,"Include"
"SCR2019_e1","SCR2019_e1_10",1,"CHILD",56,0,"Rep3_BiasLiberal",1,1757,199,"Include"
"SCR2019_e1","SCR2019_e1_10",1,"STUDENT",57,1,"Rep3_BiasLiberal",6,843,334,"Include"
"SCR2019_e1","SCR2019_e1_10",1,"FRAME",58,0,"Rep3_BiasLiberal",4,783,1390,"Include"
"SCR2019_e1","SCR2019_e1_10",1,"UNCLE",59,1,"Rep3_BiasLiberal",6,1114,191,"Include"
"SCR2019_e1","SCR2019_e1_10",1,"COUSIN",60,1,"Rep3_BiasLiberal",6,878,294,"Include"
"SCR2019_e1","SCR2019_e1_10",1,"HORSE",61,1,"Rep3_BiasLiberal",6,988,270,"Include"
"SCR2019_e1","SCR2019_e1_10",1,"CHIEF",62,1,"Rep3_BiasLiberal",6,797,302,"Include"
"SCR2019_e1","SCR2019_e1_10",1,"LADY",63,0,"Rep3_BiasLiberal",1,3372,294,"Include"
"SCR2019_e1","SCR2019_e1_10",1,"HEART",64,0,"Rep3_BiasLiberal",1,1273,327,"Include"
"SCR2019_e1","SCR2019_e1_10",1,"RADIO",65,1,"Rep3_BiasLiberal",6,888,319,"Include"
"SCR2019_e1","SCR2019_e1_10",1,"GUY",66,0,"Rep3_BiasLiberal",1,1178,326,"Include"
"SCR2019_e1","SCR2019_e1_10",1,"GIRL",67,1,"Rep3_BiasLiberal",6,974,287,"Include"
"SCR2019_e1","SCR2019_e1_10",1,"MOTHER",68,0,"Rep3_BiasLiberal",6,675,279,"Include"
"SCR2019_e1","SCR2019_e1_10",1,"BABY",69,0,"Rep3_BiasLiberal",1,1097,223,"Include"
"SCR2019_e1","SCR2019_e1_10",1,"DRESS",70,1,"Rep3_BiasLiberal",6,685,319,"Include"
"SCR2019_e1","SCR2019_e1_10",1,"DOCTOR",71,0,"Rep3_BiasLiberal",1,1722,207,"Include"
"SCR2019_e1","SCR2019_e1_10",1,"WOMAN",72,1,"Rep3_BiasLiberal",6,686,303,"Include"
"SCR2019_e1","SCR2019_e1_10",1,"TEACHER",73,0,"Rep3_BiasLiberal",6,1167,286,"Include"
"SCR2019_e1","SCR2019_e1_10",1,"PERSON",74,1,"Rep3_BiasLiberal",6,1778,214,"Include"
"SCR2019_e1","SCR2019_e1_10",1,"GUN",75,1,"Rep3_BiasLiberal",6,745,326,"Include"
"SCR2019_e1","SCR2019_e1_10",1,"SWEET",76,0,"Rep3_BiasLiberal",1,779,359,"Include"
"SCR2019_e1","SCR2019_e1_10",1,"PEOPLE",77,0,"Rep3_BiasLiberal",6,984,311,"Include"
"SCR2019_e1","SCR2019_e1_10",1,"SHIP",78,1,"Rep3_BiasLiberal",6,801,174,"Include"
"SCR2019_e1","SCR2019_e1_10",1,"FAMILY",79,0,"Rep3_BiasLiberal",6,1124,391,"Include"
"SCR2019_e1","SCR2019_e1_10",1,"CHURCH",80,1,"Rep3_BiasLiberal",6,683,319,"Include"
"SCR2019_e1","SCR2019_e1_10",1,"FATHER",81,1,"Rep3_BiasLiberal",6,632,310,"Include"
"SCR2019_e1","SCR2019_e1_10",1,"INDIAN",82,1,"Rep3_BiasLiberal",6,679,310,"Include"
"SCR2019_e1","SCR2019_e1_10",1,"HOTEL",83,0,"Rep3_BiasLiberal",1,857,270,"Include"
"SCR2019_e1","SCR2019_e1_10",1,"DOG",84,0,"Rep3_BiasLiberal",4,749,839,"Include"
"SCR2019_e1","SCR2019_e1_10",1,"FRIEND",85,0,"Rep3_BiasLiberal",1,1268,247,"Include"
"SCR2019_e1","SCR2019_e1_10",1,"PRODUCT",86,1,"Rep3_BiasLiberal",6,1992,350,"Include"
"SCR2019_e1","SCR2019_e1_10",1,"KID",87,0,"Rep3_BiasLiberal",1,1763,406,"Include"
"SCR2019_e1","SCR2019_e1_10",1,"SEAT",88,0,"Rep3_BiasLiberal",1,748,326,"Include"
"SCR2019_e1","SCR2019_e1_10",1,"MOUTH",89,0,"Rep3_BiasLiberal",1,740,366,"Include"
"SCR2019_e1","SCR2019_e1_10",1,"FELLOW",90,0,"Rep3_BiasLiberal",1,810,262,"Include"
"SCR2019_e1","SCR2019_e1_10",1,"ISLAND",91,1,"Rep3_BiasLiberal",1,1250,317,"Include"
"SCR2019_e1","SCR2019_e1_10",1,"WELL",92,1,"Rep3_BiasLiberal",6,1323,295,"Include"
"SCR2019_e1","SCR2019_e1_10",1,"KEY",93,0,"Rep3_BiasLiberal",1,2327,382,"Include"
"SCR2019_e1","SCR2019_e1_10",1,"COAST",94,1,"Rep3_BiasLiberal",6,1065,375,"Include"
"SCR2019_e1","SCR2019_e1_10",1,"MAN",95,1,"Rep3_BiasLiberal",6,934,342,"Include"
"SCR2019_e1","SCR2019_e1_10",1,"DAY",96,0,"Rep3_BiasLiberal",1,1219,253,"Include"
"SCR2019_e1","SCR2019_e1_10",1,"ROCK",97,0,"Rep3_BiasLiberal",1,1169,334,"Include"
"SCR2019_e1","SCR2019_e1_10",1,"COVER",98,1,"Rep3_BiasLiberal",1,2633,231,"Include"
"SCR2019_e1","SCR2019_e1_10",1,"FACE",99,1,"Rep3_BiasLiberal",6,859,294,"Include"
"SCR2019_e1","SCR2019_e1_10",1,"FOOT",100,1,"Rep3_BiasLiberal",6,1088,279,"Include"
"SCR2019_e1","SCR2019_e1_11",1,"HORSE",1,1,"Rep1_BiasLiberal",6,1380,1194,"Include"
"SCR2019_e1","SCR2019_e1_11",1,"TEAM",2,0,"Rep1_BiasLiberal",2,1824,877,"Include"
"SCR2019_e1","SCR2019_e1_11",1,"DRESS",3,1,"Rep1_BiasLiberal",5,2196,956,"Include"
"SCR2019_e1","SCR2019_e1_11",1,"OFFICE",4,0,"Rep1_BiasLiberal",5,1213,1217,"Include"
"SCR2019_e1","SCR2019_e1_11",1,"FAMILY",5,0,"Rep1_BiasLiberal",5,1341,917,"Include"
"SCR2019_e1","SCR2019_e1_11",1,"KEY",6,0,"Rep1_BiasLiberal",1,2544,738,"Include"
"SCR2019_e1","SCR2019_e1_11",1,"KID",7,0,"Rep1_BiasLiberal",1,1612,576,"Include"
"SCR2019_e1","SCR2019_e1_11",1,"ROAD",8,0,"Rep1_BiasLiberal",1,1989,1028,"Include"
"SCR2019_e1","SCR2019_e1_11",1,"POINT",9,1,"Rep1_BiasLiberal",5,1222,1034,"Include"
"SCR2019_e1","SCR2019_e1_11",1,"EYE",10,1,"Rep1_BiasLiberal",6,1029,642,"Include"
"SCR2019_e1","SCR2019_e1_11",1,"STREET",11,1,"Rep1_BiasLiberal",6,953,613,"Include"
"SCR2019_e1","SCR2019_e1_11",1,"COVER",12,1,"Rep1_BiasLiberal",5,1046,504,"Include"
"SCR2019_e1","SCR2019_e1_11",1,"FRAME",13,0,"Rep1_BiasLiberal",1,1368,1003,"Include"
"SCR2019_e1","SCR2019_e1_11",1,"MAN",14,1,"Rep1_BiasLiberal",5,1537,655,"Include"
"SCR2019_e1","SCR2019_e1_11",1,"BOY",15,1,"Rep1_BiasLiberal",5,888,537,"Include"
"SCR2019_e1","SCR2019_e1_11",1,"BODY",16,1,"Rep1_BiasLiberal",6,785,453,"Include"
"SCR2019_e1","SCR2019_e1_11",1,"CHILD",17,0,"Rep1_BiasLiberal",2,1921,949,"Include"
"SCR2019_e1","SCR2019_e1_11",1,"LEADER",18,0,"Rep1_BiasLiberal",1,1206,811,"Include"
"SCR2019_e1","SCR2019_e1_11",1,"DOCTOR",19,0,"Rep1_BiasLiberal",1,1080,959,"Include"
"SCR2019_e1","SCR2019_e1_11",1,"LEAD",20,0,"Rep1_BiasLiberal",2,2274,524,"Include"
"SCR2019_e1","SCR2019_e1_11",1,"PAPER",21,1,"Rep1_BiasLiberal",5,1037,953,"Include"
"SCR2019_e1","SCR2019_e1_11",1,"CHAIN",22,0,"Rep1_BiasLiberal",1,1029,873,"Include"
"SCR2019_e1","SCR2019_e1_11",1,"CAPTAIN",23,0,"Rep1_BiasLiberal",2,1846,858,"Include"
"SCR2019_e1","SCR2019_e1_11",1,"FOOT",24,1,"Rep1_BiasLiberal",5,1842,938,"Include"
"SCR2019_e1","SCR2019_e1_11",1,"HOUSE",25,0,"Rep1_BiasLiberal",1,1084,1001,"Include"
"SCR2019_e1","SCR2019_e1_11",1,"ARTIST",26,0,"Rep1_BiasLiberal",1,1029,723,"Include"
"SCR2019_e1","SCR2019_e1_11",1,"COAST",27,1,"Rep1_BiasLiberal",6,1079,368,"Include"
"SCR2019_e1","SCR2019_e1_11",1,"KING",28,0,"Rep1_BiasLiberal",1,928,503,"Include"
"SCR2019_e1","SCR2019_e1_11",1,"TEACHER",29,0,"Rep1_BiasLiberal",1,999,485,"Include"
"SCR2019_e1","SCR2019_e1_11",1,"GROUND",30,0,"Rep1_BiasLiberal",1,925,495,"Include"
"SCR2019_e1","SCR2019_e1_11",1,"LADY",31,0,"Rep1_BiasLiberal",1,1079,433,"Include"
"SCR2019_e1","SCR2019_e1_11",1,"PAGE",32,1,"Rep1_BiasLiberal",5,1124,386,"Include"
"SCR2019_e1","SCR2019_e1_11",1,"ISLAND",33,1,"Rep1_BiasLiberal",6,812,392,"Include"
"SCR2019_e1","SCR2019_e1_11",1,"MOUTH",34,0,"Rep1_BiasLiberal",2,948,575,"Include"
"SCR2019_e1","SCR2019_e1_11",1,"BEAR",35,1,"Rep1_BiasLiberal",2,950,798,"Include"
"SCR2019_e1","SCR2019_e1_11",1,"LIBRARY",36,1,"Rep1_BiasLiberal",5,1051,500,"Include"
"SCR2019_e1","SCR2019_e1_11",1,"WATCH",37,1,"Rep1_BiasLiberal",5,1377,413,"Include"
"SCR2019_e1","SCR2019_e1_11",1,"POOL",38,0,"Rep1_BiasLiberal",2,1252,494,"Include"
"SCR2019_e1","SCR2019_e1_11",1,"HAND",39,0,"Rep1_BiasLiberal",5,1583,403,"Include"
"SCR2019_e1","SCR2019_e1_11",1,"SHIP",40,1,"Rep1_BiasLiberal",6,954,309,"Include"
"SCR2019_e1","SCR2019_e1_11",1,"CATTLE",41,0,"Rep1_BiasLiberal",1,897,620,"Include"
"SCR2019_e1","SCR2019_e1_11",1,"BROTHER",42,1,"Rep1_BiasLiberal",6,820,333,"Include"
"SCR2019_e1","SCR2019_e1_11",1,"SWEET",43,0,"Rep1_BiasLiberal",1,651,406,"Include"
"SCR2019_e1","SCR2019_e1_11",1,"ANGLE",44,1,"Rep1_BiasLiberal",2,1268,457,"Include"
"SCR2019_e1","SCR2019_e1_11",1,"CHURCH",45,1,"Rep1_BiasLiberal",5,1379,327,"Include"
"SCR2019_e1","SCR2019_e1_11",1,"WOMAN",46,1,"Rep1_BiasLiberal",5,584,296,"Include"
"SCR2019_e1","SCR2019_e1_11",1,"RECORD",47,0,"Rep1_BiasLiberal",1,1153,578,"Include"
"SCR2019_e1","SCR2019_e1_11",1,"HOTEL",48,0,"Rep1_BiasLiberal",1,933,348,"Include"
"SCR2019_e1","SCR2019_e1_11",1,"TRUCK",49,1,"Rep1_BiasLiberal",6,885,231,"Include"
"SCR2019_e1","SCR2019_e1_11",1,"INDIAN",50,1,"Rep1_BiasLiberal",6,684,233,"Include"
"SCR2019_e1","SCR2019_e1_11",1,"GUN",51,1,"Rep1_BiasLiberal",5,1533,339,"Include"
"SCR2019_e1","SCR2019_e1_11",1,"HEAD",52,1,"Rep1_BiasLiberal",6,695,314,"Include"
"SCR2019_e1","SCR2019_e1_11",1,"WELL",53,1,"Rep1_BiasLiberal",2,1087,576,"Include"
"SCR2019_e1","SCR2019_e1_11",1,"HEART",54,0,"Rep1_BiasLiberal",5,2126,488,"Include"
"SCR2019_e1","SCR2019_e1_11",1,"BOTTLE",55,1,"Rep1_BiasLiberal",1,1391,609,"Include"
"SCR2019_e1","SCR2019_e1_11",1,"BABY",56,0,"Rep1_BiasLiberal",1,1497,555,"Include"
"SCR2019_e1","SCR2019_e1_11",1,"ANIMAL",57,1,"Rep1_BiasLiberal",6,862,357,"Include"
"SCR2019_e1","SCR2019_e1_11",1,"SEAT",58,0,"Rep1_BiasLiberal",2,1227,739,"Include"
"SCR2019_e1","SCR2019_e1_11",1,"FELLOW",59,0,"Rep1_BiasLiberal",2,810,458,"Include"
"SCR2019_e1","SCR2019_e1_11",1,"TEST",60,0,"Rep1_BiasLiberal",6,1446,420,"Include"
"SCR2019_e1","SCR2019_e1_11",1,"COUSIN",61,1,"Rep1_BiasLiberal",2,1696,762,"Include"
"SCR2019_e1","SCR2019_e1_11",1,"WIFE",62,1,"Rep1_BiasLiberal",6,728,315,"Include"
"SCR2019_e1","SCR2019_e1_11",1,"LINE",63,0,"Rep1_BiasLiberal",2,1139,513,"Include"
"SCR2019_e1","SCR2019_e1_11",1,"UNCLE",64,1,"Rep1_BiasLiberal",6,661,430,"Include"
"SCR2019_e1","SCR2019_e1_11",1,"JURY",65,0,"Rep1_BiasLiberal",1,896,648,"Include"
"SCR2019_e1","SCR2019_e1_11",1,"DAY",66,0,"Rep1_BiasLiberal",1,879,309,"Include"
"SCR2019_e1","SCR2019_e1_11",1,"PEOPLE",67,0,"Rep1_BiasLiberal",5,1749,512,"Include"
"SCR2019_e1","SCR2019_e1_11",1,"CHIEF",68,1,"Rep1_BiasLiberal",6,619,304,"Include"
"SCR2019_e1","SCR2019_e1_11",1,"BOX",69,1,"Rep1_BiasLiberal",2,906,606,"Include"
"SCR2019_e1","SCR2019_e1_11",1,"ARTICLE",70,1,"Rep1_BiasLiberal",5,1301,563,"Include"
"SCR2019_e1","SCR2019_e1_11",1,"NECK",71,1,"Rep1_BiasLiberal",6,648,347,"Include"
"SCR2019_e1","SCR2019_e1_11",1,"LEG",72,0,"Rep1_BiasLiberal",2,1674,498,"Include"
"SCR2019_e1","SCR2019_e1_11",1,"WATER",73,0,"Rep1_BiasLiberal",2,1183,469,"Include"
"SCR2019_e1","SCR2019_e1_11",1,"WINTER",74,1,"Rep1_BiasLiberal",6,729,304,"Include"
"SCR2019_e1","SCR2019_e1_11",1,"FEET",75,1,"Rep1_BiasLiberal",6,633,494,"Include"
"SCR2019_e1","SCR2019_e1_11",1,"BOAT",76,0,"Rep1_BiasLiberal",6,797,686,"Include"
"SCR2019_e1","SCR2019_e1_11",1,"SIGN",77,0,"Rep1_BiasLiberal",1,931,922,"Include"
"SCR2019_e1","SCR2019_e1_11",1,"JUDGE",78,1,"Rep1_BiasLiberal",6,754,479,"Include"
"SCR2019_e1","SCR2019_e1_11",1,"CENT",79,0,"Rep1_BiasLiberal",1,823,1107,"Include"
"SCR2019_e1","SCR2019_e1_11",1,"STUDENT",80,1,"Rep1_BiasLiberal",6,868,502,"Include"
"SCR2019_e1","SCR2019_e1_11",1,"DRINK",81,0,"Rep1_BiasLiberal",2,786,702,"Include"
"SCR2019_e1","SCR2019_e1_11",1,"FACE",82,1,"Rep1_BiasLiberal",6,1226,295,"Include"
"SCR2019_e1","SCR2019_e1_11",1,"PRODUCT",83,1,"Rep1_BiasLiberal",2,973,648,"Include"
"SCR2019_e1","SCR2019_e1_11",1,"WHEEL",84,0,"Rep1_BiasLiberal",2,1105,472,"Include"
"SCR2019_e1","SCR2019_e1_11",1,"DESK",85,1,"Rep1_BiasLiberal",2,1347,459,"Include"
"SCR2019_e1","SCR2019_e1_11",1,"GIRL",86,1,"Rep1_BiasLiberal",6,742,269,"Include"
"SCR2019_e1","SCR2019_e1_11",1,"EDGE",87,1,"Rep1_BiasLiberal",6,1867,273,"Include"
"SCR2019_e1","SCR2019_e1_11",1,"DOG",88,0,"Rep1_BiasLiberal",1,854,573,"Include"
"SCR2019_e1","SCR2019_e1_11",1,"HUSBAND",89,1,"Rep1_BiasLiberal",6,689,243,"Include"
"SCR2019_e1","SCR2019_e1_11",1,"FATHER",90,1,"Rep1_BiasLiberal",6,854,203,"Include"
"SCR2019_e1","SCR2019_e1_11",1,"ROCK",91,0,"Rep1_BiasLiberal",6,832,262,"Include"
"SCR2019_e1","SCR2019_e1_11",1,"RADIO",92,1,"Rep1_BiasLiberal",5,1204,677,"Include"
"SCR2019_e1","SCR2019_e1_11",1,"GUY",93,0,"Rep1_BiasLiberal",6,1936,387,"Include"
"SCR2019_e1","SCR2019_e1_11",1,"BAY",94,1,"Rep1_BiasLiberal",2,1012,1184,"Include"
"SCR2019_e1","SCR2019_e1_11",1,"MOTHER",95,0,"Rep1_BiasLiberal",6,608,365,"Include"
"SCR2019_e1","SCR2019_e1_11",1,"SNOW",96,0,"Rep1_BiasLiberal",1,1095,330,"Include"
"SCR2019_e1","SCR2019_e1_11",1,"PERSON",97,1,"Rep1_BiasLiberal",2,1212,768,"Include"
"SCR2019_e1","SCR2019_e1_11",1,"MOTOR",98,0,"Rep1_BiasLiberal",1,907,646,"Include"
"SCR2019_e1","SCR2019_e1_11",1,"ARM",99,0,"Rep1_BiasLiberal",1,725,320,"Include"
"SCR2019_e1","SCR2019_e1_11",1,"FRIEND",100,0,"Rep1_BiasLiberal",5,839,527,"Include"
"SCR2019_e1","SCR2019_e1_12",1,"SWEET",1,1,"Rep3_BiasLiberal",6,1948,1211,"Include"
"SCR2019_e1","SCR2019_e1_12",1,"FRIEND",2,1,"Rep3_BiasLiberal",6,1050,364,"Include"
"SCR2019_e1","SCR2019_e1_12",1,"KID",3,1,"Rep3_BiasLiberal",6,2130,182,"Include"
"SCR2019_e1","SCR2019_e1_12",1,"CENT",4,1,"Rep3_BiasLiberal",6,1041,260,"Include"
"SCR2019_e1","SCR2019_e1_12",1,"FELLOW",5,1,"Rep3_BiasLiberal",6,1882,217,"Include"
"SCR2019_e1","SCR2019_e1_12",1,"WATCH",6,0,"Rep3_BiasLiberal",2,2752,890,"Include"
"SCR2019_e1","SCR2019_e1_12",1,"DRINK",7,1,"Rep3_BiasLiberal",6,2493,823,"Include"
"SCR2019_e1","SCR2019_e1_12",1,"FEET",8,0,"Rep3_BiasLiberal",3,2248,1451,"Include"
"SCR2019_e1","SCR2019_e1_12",1,"CHURCH",9,0,"Rep3_BiasLiberal",1,1443,1456,"Include"
"SCR2019_e1","SCR2019_e1_12",1,"SIGN",10,1,"Rep3_BiasLiberal",1,1631,874,"Include"
"SCR2019_e1","SCR2019_e1_12",1,"ARTICLE",11,0,"Rep3_BiasLiberal",2,27508,488,"Include"
"SCR2019_e1","SCR2019_e1_12",1,"PRODUCT",12,0,"Rep3_BiasLiberal",2,2198,515,"Include"
"SCR2019_e1","SCR2019_e1_12",1,"DRESS",13,0,"Rep3_BiasLiberal",1,937,705,"Include"
"SCR2019_e1","SCR2019_e1_12",1,"DESK",14,0,"Rep3_BiasLiberal",2,1086,317,"Include"
"SCR2019_e1","SCR2019_e1_12",1,"BOTTLE",15,0,"Rep3_BiasLiberal",1,1231,372,"Include"
"SCR2019_e1","SCR2019_e1_12",1,"FOOT",16,0,"Rep3_BiasLiberal",1,2426,1006,"Include"
"SCR2019_e1","SCR2019_e1_12",1,"CAPTAIN",17,1,"Rep3_BiasLiberal",6,7519,650,"Include"
"SCR2019_e1","SCR2019_e1_12",1,"MAN",18,0,"Rep3_BiasLiberal",6,2225,276,"Include"
"SCR2019_e1","SCR2019_e1_12",1,"COUSIN",19,0,"Rep3_BiasLiberal",1,2019,963,"Include"
"SCR2019_e1","SCR2019_e1_12",1,"MOUTH",20,1,"Rep3_BiasLiberal",6,2822,413,"Include"
"SCR2019_e1","SCR2019_e1_12",1,"PAPER",21,0,"Rep3_BiasLiberal",1,1331,669,"Include"
"SCR2019_e1","SCR2019_e1_12",1,"JURY",22,1,"Rep3_BiasLiberal",6,1496,326,"Include"
"SCR2019_e1","SCR2019_e1_12",1,"TRUCK",23,0,"Rep3_BiasLiberal",1,2549,614,"Include"
"SCR2019_e1","SCR2019_e1_12",1,"BAY",24,0,"Rep3_BiasLiberal",4,1020,1288,"Include"
"SCR2019_e1","SCR2019_e1_12",1,"MOTHER",25,1,"Rep3_BiasLiberal",6,970,372,"Include"
"SCR2019_e1","SCR2019_e1_12",1,"EYE",26,0,"Rep3_BiasLiberal",1,1298,309,"Include"
"SCR2019_e1","SCR2019_e1_12",1,"WOMAN",27,0,"Rep3_BiasLiberal",6,1371,331,"Include"
"SCR2019_e1","SCR2019_e1_12",1,"HOUSE",28,1,"Rep3_BiasLiberal",6,1140,338,"Include"
"SCR2019_e1","SCR2019_e1_12",1,"BEAR",29,0,"Rep3_BiasLiberal",1,895,264,"Include"
"SCR2019_e1","SCR2019_e1_12",1,"WATER",30,1,"Rep3_BiasLiberal",6,1633,357,"Include"
"SCR2019_e1","SCR2019_e1_12",1,"COAST",31,0,"Rep3_BiasLiberal",1,1091,228,"Include"
"SCR2019_e1","SCR2019_e1_12",1,"GUY",32,1,"Rep3_BiasLiberal",6,934,255,"Include"
"SCR2019_e1","SCR2019_e1_12",1,"BOX",33,0,"Rep3_BiasLiberal",1,826,323,"Include"
"SCR2019_e1","SCR2019_e1_12",1,"ANGLE",34,0,"Rep3_BiasLiberal",1,1127,237,"Include"
"SCR2019_e1","SCR2019_e1_12",1,"CATTLE",35,1,"Rep3_BiasLiberal",6,976,249,"Include"
"SCR2019_e1","SCR2019_e1_12",1,"KEY",36,1,"Rep3_BiasLiberal",6,920,269,"Include"
"SCR2019_e1","SCR2019_e1_12",1,"LEAD",37,1,"Rep3_BiasLiberal",6,1152,241,"Include"
"SCR2019_e1","SCR2019_e1_12",1,"ISLAND",38,0,"Rep3_BiasLiberal",1,939,303,"Include"
"SCR2019_e1","SCR2019_e1_12",1,"GROUND",39,1,"Rep3_BiasLiberal",6,844,251,"Include"
"SCR2019_e1","SCR2019_e1_12",1,"ARTIST",40,1,"Rep3_BiasLiberal",6,705,237,"Include"
"SCR2019_e1","SCR2019_e1_12",1,"ROCK",41,1,"Rep3_BiasLiberal",6,634,257,"Include"
"SCR2019_e1","SCR2019_e1_12",1,"DOG",42,1,"Rep3_BiasLiberal",6,656,381,"Include"
"SCR2019_e1","SCR2019_e1_12",1,"HAND",43,1,"Rep3_BiasLiberal",6,690,220,"Include"
"SCR2019_e1","SCR2019_e1_12",1,"OFFICE",44,1,"Rep3_BiasLiberal",6,879,208,"Include"
"SCR2019_e1","SCR2019_e1_12",1,"BOY",45,0,"Rep3_BiasLiberal",6,887,233,"Include"
"SCR2019_e1","SCR2019_e1_12",1,"FRAME",46,1,"Rep3_BiasLiberal",6,804,265,"Include"
"SCR2019_e1","SCR2019_e1_12",1,"PEOPLE",47,1,"Rep3_BiasLiberal",6,675,269,"Include"
"SCR2019_e1","SCR2019_e1_12",1,"WELL",48,0,"Rep3_BiasLiberal",1,1032,373,"Include"
"SCR2019_e1","SCR2019_e1_12",1,"HORSE",49,0,"Rep3_BiasLiberal",2,1401,826,"Include"
"SCR2019_e1","SCR2019_e1_12",1,"UNCLE",50,0,"Rep3_BiasLiberal",2,1278,523,"Include"
"SCR2019_e1","SCR2019_e1_12",1,"NECK",51,0,"Rep3_BiasLiberal",1,830,625,"Include"
"SCR2019_e1","SCR2019_e1_12",1,"WIFE",52,0,"Rep3_BiasLiberal",1,2436,265,"Include"
"SCR2019_e1","SCR2019_e1_12",1,"RADIO",53,0,"Rep3_BiasLiberal",2,1658,619,"Include"
"SCR2019_e1","SCR2019_e1_12",1,"PERSON",54,0,"Rep3_BiasLiberal",6,2032,245,"Include"
"SCR2019_e1","SCR2019_e1_12",1,"GUN",55,0,"Rep3_BiasLiberal",1,1179,313,"Include"
"SCR2019_e1","SCR2019_e1_12",1,"PAGE",56,0,"Rep3_BiasLiberal",1,1307,290,"Include"
"SCR2019_e1","SCR2019_e1_12",1,"POINT",57,0,"Rep3_BiasLiberal",1,917,320,"Include"
"SCR2019_e1","SCR2019_e1_12",1,"FAMILY",58,1,"Rep3_BiasLiberal",6,861,230,"Include"
"SCR2019_e1","SCR2019_e1_12",1,"COVER",59,0,"Rep3_BiasLiberal",6,1928,253,"Include"
"SCR2019_e1","SCR2019_e1_12",1,"LINE",60,1,"Rep3_BiasLiberal",4,9123,710,"Include"
"SCR2019_e1","SCR2019_e1_12",1,"CHAIN",61,1,"Rep3_BiasLiberal",6,848,347,"Include"
"SCR2019_e1","SCR2019_e1_12",1,"STREET",62,0,"Rep3_BiasLiberal",2,1180,604,"Include"
"SCR2019_e1","SCR2019_e1_12",1,"CHILD",63,1,"Rep3_BiasLiberal",6,881,198,"Include"
"SCR2019_e1","SCR2019_e1_12",1,"BOAT",64,1,"Rep3_BiasLiberal",6,1120,154,"Include"
"SCR2019_e1","SCR2019_e1_12",1,"ROAD",65,1,"Rep3_BiasLiberal",1,1185,282,"Include"
"SCR2019_e1","SCR2019_e1_12",1,"CHIEF",66,0,"Rep3_BiasLiberal",1,1442,319,"Include"
"SCR2019_e1","SCR2019_e1_12",1,"BROTHER",67,0,"Rep3_BiasLiberal",1,1018,239,"Include"
"SCR2019_e1","SCR2019_e1_12",1,"GIRL",68,0,"Rep3_BiasLiberal",1,1493,296,"Include"
"SCR2019_e1","SCR2019_e1_12",1,"HEAD",69,0,"Rep3_BiasLiberal",1,2811,518,"Include"
"SCR2019_e1","SCR2019_e1_12",1,"TEAM",70,1,"Rep3_BiasLiberal",6,894,195,"Include"
"SCR2019_e1","SCR2019_e1_12",1,"INDIAN",71,0,"Rep3_BiasLiberal",1,1389,279,"Include"
"SCR2019_e1","SCR2019_e1_12",1,"HOTEL",72,1,"Rep3_BiasLiberal",1,6255,200,"Include"
"SCR2019_e1","SCR2019_e1_12",1,"MOTOR",73,1,"Rep3_BiasLiberal",6,3436,246,"Include"
"SCR2019_e1","SCR2019_e1_12",1,"FATHER",74,0,"Rep3_BiasLiberal",1,1242,208,"Include"
"SCR2019_e1","SCR2019_e1_12",1,"ARM",75,1,"Rep3_BiasLiberal",6,794,287,"Include"
"SCR2019_e1","SCR2019_e1_12",1,"LIBRARY",76,0,"Rep3_BiasLiberal",2,2083,387,"Include"
"SCR2019_e1","SCR2019_e1_12",1,"DAY",77,1,"Rep3_BiasLiberal",6,1548,207,"Include"
"SCR2019_e1","SCR2019_e1_12",1,"LEG",78,1,"Rep3_BiasLiberal",6,791,224,"Include"
"SCR2019_e1","SCR2019_e1_12",1,"SNOW",79,1,"Rep3_BiasLiberal",6,2928,172,"Include"
"SCR2019_e1","SCR2019_e1_12",1,"EDGE",80,0,"Rep3_BiasLiberal",1,5678,208,"Include"
"SCR2019_e1","SCR2019_e1_12",1,"POOL",81,1,"Rep3_BiasLiberal",6,2400,281,"Include"
"SCR2019_e1","SCR2019_e1_12",1,"JUDGE",82,0,"Rep3_BiasLiberal",6,823,204,"Include"
"SCR2019_e1","SCR2019_e1_12",1,"BODY",83,0,"Rep3_BiasLiberal",5,14442,1118,"Include"
"SCR2019_e1","SCR2019_e1_12",1,"SHIP",84,0,"Rep3_BiasLiberal",2,1186,983,"Include"
"SCR2019_e1","SCR2019_e1_12",1,"DOCTOR",85,1,"Rep3_BiasLiberal",6,848,259,"Include"
"SCR2019_e1","SCR2019_e1_12",1,"SEAT",86,1,"Rep3_BiasLiberal",2,1477,520,"Include"
"SCR2019_e1","SCR2019_e1_12",1,"TEACHER",87,1,"Rep3_BiasLiberal",6,787,270,"Include"
"SCR2019_e1","SCR2019_e1_12",1,"HUSBAND",88,0,"Rep3_BiasLiberal",2,1861,612,"Include"
"SCR2019_e1","SCR2019_e1_12",1,"LADY",89,1,"Rep3_BiasLiberal",6,748,394,"Include"
"SCR2019_e1","SCR2019_e1_12",1,"RECORD",90,1,"Rep3_BiasLiberal",6,1166,248,"Include"
"SCR2019_e1","SCR2019_e1_12",1,"BABY",91,1,"Rep3_BiasLiberal",6,860,228,"Include"
"SCR2019_e1","SCR2019_e1_12",1,"WINTER",92,0,"Rep3_BiasLiberal",2,2476,561,"Include"
"SCR2019_e1","SCR2019_e1_12",1,"TEST",93,1,"Rep3_BiasLiberal",5,1531,646,"Include"
"SCR2019_e1","SCR2019_e1_12",1,"LEADER",94,1,"Rep3_BiasLiberal",6,752,291,"Include"
"SCR2019_e1","SCR2019_e1_12",1,"FACE",95,0,"Rep3_BiasLiberal",6,1102,359,"Include"
"SCR2019_e1","SCR2019_e1_12",1,"KING",96,1,"Rep3_BiasLiberal",6,672,239,"Include"
"SCR2019_e1","SCR2019_e1_12",1,"ANIMAL",97,0,"Rep3_BiasLiberal",6,992,201,"Include"
"SCR2019_e1","SCR2019_e1_12",1,"WHEEL",98,1,"Rep3_BiasLiberal",6,1283,400,"Include"
"SCR2019_e1","SCR2019_e1_12",1,"STUDENT",99,0,"Rep3_BiasLiberal",2,1446,612,"Include"
"SCR2019_e1","SCR2019_e1_12",1,"HEART",100,1,"Rep3_BiasLiberal",6,748,191,"Include"
"SCR2019_e1","SCR2019_e1_13",1,"BABY",1,0,"Rep3_BiasNone",1,963,581,"Include"
"SCR2019_e1","SCR2019_e1_13",1,"PRODUCT",2,1,"Rep3_BiasNone",6,1671,449,"Include"
"SCR2019_e1","SCR2019_e1_13",1,"BODY",3,1,"Rep3_BiasNone",6,848,1497,"Include"
"SCR2019_e1","SCR2019_e1_13",1,"ROCK",4,0,"Rep3_BiasNone",6,843,335,"Include"
