"exp","id","item","isold","rating","RT_ON","RT_CONF","excluding","trial"
"SD2014_e2","SD2014_e2_1","EMBARRASSMENT ",1,6,18555.58125,3998.315545,"Include",1
"SD2014_e2","SD2014_e2_1","NITROGEN      ",0,1,2444.940258,3413.641137,"Include",2
"SD2014_e2","SD2014_e2_1","WHISPER       ",0,1,2581.171021,1273.037554,"Include",3
"SD2014_e2","SD2014_e2_1","MANUSCRIPT    ",0,1,1920.558666,999.314439,"Include",4
"SD2014_e2","SD2014_e2_1","VETO          ",0,1,1689.914786,626.250228,"Include",5
"SD2014_e2","SD2014_e2_1","WILLOW        ",0,1,1429.409081,648.839087,"Include",6
"SD2014_e2","SD2014_e2_1","NOSTALGIA     ",1,1,1115.704762,763.159494,"Include",7
"SD2014_e2","SD2014_e2_1","ELASTIC       ",1,6,1816.590761,772.283498,"Include",8
"SD2014_e2","SD2014_e2_1","NICKEL        ",1,6,1889.213787,1217.153277,"Include",9
"SD2014_e2","SD2014_e2_1","SCHOLAR       ",0,1,1866.423538,691.906227,"Include",10
"SD2014_e2","SD2014_e2_1","MANURE        ",0,1,1700.028711,532.722122,"Include",11
"SD2014_e2","SD2014_e2_1","REVIVAL       ",1,5,1747.259583,1545.596186,"Include",12
"SD2014_e2","SD2014_e2_1","RESOURCE      ",1,6,2206.240584,857.150069,"Include",13
"SD2014_e2","SD2014_e2_1","PURSE         ",0,1,1386.756575,743.445564,"Include",14
"SD2014_e2","SD2014_e2_1","GLOBE         ",1,6,1765.844041,587.24238,"Include",15
"SD2014_e2","SD2014_e2_1","LANDLORD      ",1,6,1359.071501,517.397102,"Include",16
"SD2014_e2","SD2014_e2_1","EXECUTION     ",1,6,1459.803157,533.975993,"Include",17
"SD2014_e2","SD2014_e2_1","TECHNICIAN    ",0,1,1283.94564,516.786121,"Include",18
"SD2014_e2","SD2014_e2_1","GUARDIAN      ",1,2,2603.473744,941.889789,"Include",19
"SD2014_e2","SD2014_e2_1","REPETITION    ",1,2,1995.341596,487.240942,"Include",20
"SD2014_e2","SD2014_e2_1","GRUMBLE       ",0,1,2895.233664,1326.0536,"Include",21
"SD2014_e2","SD2014_e2_1","NAZI          ",1,6,1236.35458,431.151625,"Include",22
"SD2014_e2","SD2014_e2_1","BALLOT        ",0,1,1898.734249,498.834343,"Include",23
"SD2014_e2","SD2014_e2_1","MAST          ",1,5,2259.492887,492.173125,"Include",24
"SD2014_e2","SD2014_e2_1","PERFECTION    ",0,2,1548.161135,1610.947403,"Include",25
"SD2014_e2","SD2014_e2_1","DIALOGUE      ",0,2,1724.805724,427.781007,"Include",26
"SD2014_e2","SD2014_e2_1","DECAY         ",0,1,1415.234927,395.272921,"Include",27
"SD2014_e2","SD2014_e2_1","HONEYMOON     ",1,6,1487.432306,360.070229,"Include",28
"SD2014_e2","SD2014_e2_1","PULLEY        ",1,3,2878.261166,949.670861,"Include",29
"SD2014_e2","SD2014_e2_1","OBEDIENCE     ",1,6,1483.120212,436.465089,"Include",30
"SD2014_e2","SD2014_e2_1","POTATO        ",1,2,2527.188461,381.138229,"Include",31
"SD2014_e2","SD2014_e2_1","ABUNDANCE     ",1,2,1537.774794,312.512046,"Include",32
"SD2014_e2","SD2014_e2_1","PRUDENCE      ",0,2,1887.997394,376.166674,"Include",33
"SD2014_e2","SD2014_e2_1","LIGHTER       ",1,1,3655.71987,1694.874327,"Include",34
"SD2014_e2","SD2014_e2_1","MINT          ",0,1,1285.921633,430.848448,"Include",35
"SD2014_e2","SD2014_e2_1","AVIATION      ",0,1,1882.003782,563.032815,"Include",36
"SD2014_e2","SD2014_e2_1","PARADIGM      ",0,1,1128.302335,504.009524,"Include",37
"SD2014_e2","SD2014_e2_1","INSPIRATION   ",1,5,1495.368162,1407.951189,"Include",38
"SD2014_e2","SD2014_e2_1","ALCOHOL       ",1,6,1813.037409,408.777163,"Include",39
"SD2014_e2","SD2014_e2_1","PROPULSION    ",0,1,1828.197114,623.071075,"Include",40
"SD2014_e2","SD2014_e2_1","HUT           ",1,6,1122.353099,370.029611,"Include",41
"SD2014_e2","SD2014_e2_1","ABOLITION     ",0,1,1270.86959,448.464222,"Include",42
"SD2014_e2","SD2014_e2_1","STEW          ",1,1,1491.154838,411.829071,"Include",43
"SD2014_e2","SD2014_e2_1","MUZZLE        ",1,1,943.952397,383.027011,"Include",44
"SD2014_e2","SD2014_e2_1","GARBAGE       ",1,2,1739.273502,537.733276,"Include",45
"SD2014_e2","SD2014_e2_1","DEVELOPER     ",0,1,1359.512044,341.68252,"Include",46
"SD2014_e2","SD2014_e2_1","DICE          ",1,6,1340.587683,355.470637,"Include",47
"SD2014_e2","SD2014_e2_1","PITY          ",1,5,1057.568592,420.102113,"Include",48
"SD2014_e2","SD2014_e2_1","MANSION       ",1,6,1486.892873,439.280635,"Include",49
"SD2014_e2","SD2014_e2_1","ALIBI         ",1,3,1754.159203,607.823748,"Include",50
"SD2014_e2","SD2014_e2_1","HURRICANE     ",0,2,3562.977428,974.234174,"Include",51
"SD2014_e2","SD2014_e2_1","SORROW        ",1,2,1298.668165,355.782781,"Include",52
"SD2014_e2","SD2014_e2_1","EXTERIOR      ",0,3,1673.1968,482.21677,"Include",53
"SD2014_e2","SD2014_e2_1","HAWK          ",0,1,1435.728617,294.267165,"Include",54
"SD2014_e2","SD2014_e2_1","FARE          ",0,1,1863.401665,184.921506,"Include",55
"SD2014_e2","SD2014_e2_1","COINCIDENCE   ",1,2,1125.190258,597.029966,"Include",56
"SD2014_e2","SD2014_e2_1","DICTATOR      ",1,6,1289.328516,266.338823,"Include",57
"SD2014_e2","SD2014_e2_1","TRAILER       ",0,2,1556.015524,633.954896,"Include",58
"SD2014_e2","SD2014_e2_1","JUG           ",0,1,1924.363953,307.115149,"Include",59
"SD2014_e2","SD2014_e2_1","PROBATION     ",0,1,1698.625309,403.0972,"Include",60
"SD2014_e2","SD2014_e2_1","TREASURER     ",0,1,1078.444525,528.131897,"Include",61
"SD2014_e2","SD2014_e2_1","FUTILITY      ",0,1,1967.601371,260.868776,"Include",62
"SD2014_e2","SD2014_e2_1","FOUNDER       ",0,1,1006.519446,235.192642,"Include",63
"SD2014_e2","SD2014_e2_1","MONKEY        ",0,1,1309.766944,198.41428,"Include",64
"SD2014_e2","SD2014_e2_1","JOCKEY        ",1,6,1187.406267,240.413596,"Include",65
"SD2014_e2","SD2014_e2_1","FRAGMENT      ",1,2,938.74263,378.015406,"Include",66
"SD2014_e2","SD2014_e2_1","ATTRACTION    ",0,1,1342.979939,285.59192,"Include",67
"SD2014_e2","SD2014_e2_1","CREATOR       ",0,2,2478.400612,206.584653,"Include",68
"SD2014_e2","SD2014_e2_1","TOWER         ",0,3,1667.132818,340.83033,"Include",69
"SD2014_e2","SD2014_e2_1","CHORE         ",0,2,1259.665696,406.040363,"Include",70
"SD2014_e2","SD2014_e2_1","INN           ",1,1,1802.074121,709.689402,"Include",71
"SD2014_e2","SD2014_e2_1","PAVEMENT      ",1,2,740.689927,108.27003,"Include",72
"SD2014_e2","SD2014_e2_1","SOPHOMORE     ",0,1,2875.851898,1051.553567,"Include",73
"SD2014_e2","SD2014_e2_1","CANDIDACY     ",0,2,2708.146233,330.491297,"Include",74
"SD2014_e2","SD2014_e2_1","NUT           ",1,6,1434.10383,244.780366,"Include",75
"SD2014_e2","SD2014_e2_1","WAIST         ",0,2,3943.736807,1155.129435,"Include",76
"SD2014_e2","SD2014_e2_1","DEMON         ",0,1,1168.259564,317.80148,"Include",77
"SD2014_e2","SD2014_e2_1","EDGING        ",1,6,1581.533039,394.715753,"Include",78
"SD2014_e2","SD2014_e2_1","KITTEN        ",0,1,2839.56893,584.434252,"Include",79
"SD2014_e2","SD2014_e2_1","ACID          ",0,1,1060.89661,447.507784,"Include",80
"SD2014_e2","SD2014_e2_1","VIOLIN        ",1,5,2930.109349,1527.571096,"Include",81
"SD2014_e2","SD2014_e2_1","STOOL         ",1,6,2205.408615,368.565167,"Include",82
"SD2014_e2","SD2014_e2_1","BUSH          ",1,6,1198.078091,379.107125,"Include",83
"SD2014_e2","SD2014_e2_1","SQUALL        ",1,6,1504.556917,336.521349,"Include",84
"SD2014_e2","SD2014_e2_1","ECONOMIST     ",0,1,1246.653489,401.707221,"Include",85
"SD2014_e2","SD2014_e2_1","ATTRITION     ",0,1,1261.050812,319.390372,"Include",86
"SD2014_e2","SD2014_e2_1","MANIA         ",0,1,2222.937388,265.339188,"Include",87
"SD2014_e2","SD2014_e2_1","SHAFT         ",0,1,1067.634217,237.32379,"Include",88
"SD2014_e2","SD2014_e2_1","OVERTURE      ",1,6,1215.509353,292.125085,"Include",89
"SD2014_e2","SD2014_e2_1","PRIVACY       ",1,2,996.796271,602.309335,"Include",90
"SD2014_e2","SD2014_e2_1","COMPUTER      ",1,5,1541.49106,435.985479,"Include",91
"SD2014_e2","SD2014_e2_1","ANTELOPE      ",0,1,1398.08963,266.874252,"Include",92
"SD2014_e2","SD2014_e2_1","REMINDER      ",1,5,4995.725604,499.820911,"Include",93
"SD2014_e2","SD2014_e2_1","REPRESSION    ",1,5,2339.075867,344.552972,"Include",94
"SD2014_e2","SD2014_e2_1","CUNNING       ",0,1,1687.18991,319.805041,"Include",95
"SD2014_e2","SD2014_e2_1","ARCHITECTURE  ",1,4,1902.645269,486.085655,"Include",96
"SD2014_e2","SD2014_e2_1","TROUSERS      ",0,2,1342.022057,1132.892454,"Include",97
"SD2014_e2","SD2014_e2_1","MUSKET        ",1,2,1291.353656,372.33463,"Include",98
"SD2014_e2","SD2014_e2_1","WRECK         ",0,2,985.864777,391.064103,"Include",99
"SD2014_e2","SD2014_e2_1","PEASANT       ",1,6,1243.654347,1654.774299,"Include",100
"SD2014_e2","SD2014_e2_1","DIRECTORY     ",1,5,1398.678085,283.18378,"Include",101
"SD2014_e2","SD2014_e2_1","SUNSHINE      ",0,5,2075.616153,228.137381,"Include",102
"SD2014_e2","SD2014_e2_1","SUNBURN       ",0,3,2175.048805,411.492295,"Include",103
"SD2014_e2","SD2014_e2_1","SPECK         ",1,2,3687.069291,524.842485,"Include",104
"SD2014_e2","SD2014_e2_1","DETECTION     ",1,5,1563.498004,345.255039,"Include",105
"SD2014_e2","SD2014_e2_1","CATHEDRAL     ",0,2,1231.529292,251.117159,"Include",106
"SD2014_e2","SD2014_e2_1","BARGAIN       ",1,2,2173.195722,201.773245,"Include",107
"SD2014_e2","SD2014_e2_1","CONTEMPLATION ",0,2,2893.503496,404.511183,"Include",108
"SD2014_e2","SD2014_e2_1","CANADIAN      ",0,1,759.809367,1062.671905,"Include",109
"SD2014_e2","SD2014_e2_1","DIALYSIS      ",0,1,1567.912077,541.103082,"Include",110
"SD2014_e2","SD2014_e2_1","PLASMA        ",0,1,859.653164,190.522609,"Include",111
"SD2014_e2","SD2014_e2_1","JOURNALISM    ",1,6,1058.701548,253.468203,"Include",112
"SD2014_e2","SD2014_e2_1","DEPOSIT       ",0,1,1439.606198,498.431197,"Include",113
"SD2014_e2","SD2014_e2_1","TORQUE        ",0,1,2211.103651,326.094492,"Include",114
"SD2014_e2","SD2014_e2_1","FERRY         ",0,2,1669.468303,326.561516,"Include",115
"SD2014_e2","SD2014_e2_1","STAG          ",0,1,1054.277025,192.811749,"Include",116
"SD2014_e2","SD2014_e2_1","EXAMINER      ",0,2,1773.176284,450.07541,"Include",117
"SD2014_e2","SD2014_e2_1","MOROCCO       ",0,1,1307.413655,283.647931,"Include",118
"SD2014_e2","SD2014_e2_1","LIGHTNING     ",0,1,1124.19537,259.749779,"Include",119
"SD2014_e2","SD2014_e2_1","OBSTACLE      ",0,1,733.283414,172.966117,"Include",120
"SD2014_e2","SD2014_e2_1","THESIS        ",1,6,1122.747151,218.454189,"Include",121
"SD2014_e2","SD2014_e2_1","SYMBOLISM     ",0,1,1517.45073,684.722788,"Include",122
"SD2014_e2","SD2014_e2_1","OBSCURITY     ",1,6,3444.407757,300.508221,"Include",123
"SD2014_e2","SD2014_e2_1","PINEAPPLE     ",0,1,1740.045197,226.34952,"Include",124
"SD2014_e2","SD2014_e2_1","TEMPER        ",0,4,3310.019441,667.569898,"Include",125
"SD2014_e2","SD2014_e2_1","CAB           ",1,2,3028.51384,357.93641,"Include",126
"SD2014_e2","SD2014_e2_1","ADVISER       ",0,3,2211.915139,351.118327,"Include",127
"SD2014_e2","SD2014_e2_1","VISITOR       ",1,6,1429.155337,200.752191,"Include",128
"SD2014_e2","SD2014_e2_1","MASTERPIECE   ",1,6,1044.499374,231.729835,"Include",129
"SD2014_e2","SD2014_e2_1","LUGGAGE       ",1,6,1067.91115,200.720793,"Include",130
"SD2014_e2","SD2014_e2_1","GUERRILLA     ",1,6,1008.865628,429.38445,"Include",131
"SD2014_e2","SD2014_e2_1","ANNOYANCE     ",0,1,1320.283774,303.800776,"Include",132
"SD2014_e2","SD2014_e2_1","PURPLE        ",1,6,1072.012296,241.853063,"Include",133
"SD2014_e2","SD2014_e2_1","PENINSULA     ",0,1,1532.153772,227.335571,"Include",134
"SD2014_e2","SD2014_e2_1","OPTIMISM      ",1,6,1190.344868,203.396598,"Include",135
"SD2014_e2","SD2014_e2_1","STRAY         ",1,6,1423.875015,267.131981,"Include",136
"SD2014_e2","SD2014_e2_1","SYMMETRY      ",1,6,796.099973,161.683622,"Include",137
"SD2014_e2","SD2014_e2_1","TANK          ",0,1,1160.071753,150.443302,"Include",138
"SD2014_e2","SD2014_e2_1","BRAZIL        ",0,1,1404.921988,88.963816,"Include",139
"SD2014_e2","SD2014_e2_1","FORMULAE      ",1,6,1289.537961,1370.421649,"Include",140
"SD2014_e2","SD2014_e2_1","NOMENCLATURE  ",0,1,1445.994023,144.602936,"Include",141
"SD2014_e2","SD2014_e2_1","ANTENNA       ",0,1,1134.814834,126.086542,"Include",142
"SD2014_e2","SD2014_e2_1","RIBBON        ",0,1,1037.848822,153.193186,"Include",143
"SD2014_e2","SD2014_e2_1","DIPLOMAT      ",0,1,1278.965042,208.412704,"Include",144
"SD2014_e2","SD2014_e2_1","FROST         ",0,3,3164.862896,112.547674,"Include",145
"SD2014_e2","SD2014_e2_1","GUARANTEE     ",1,5,4608.394719,160.330455,"Include",146
"SD2014_e2","SD2014_e2_1","COP           ",1,6,1078.781512,136.538872,"Include",147
"SD2014_e2","SD2014_e2_1","AUDITORIUM    ",0,1,1854.858232,200.547574,"Include",148
"SD2014_e2","SD2014_e2_1","DIALECT       ",1,6,2356.968909,281.762573,"Include",149
"SD2014_e2","SD2014_e2_1","CAFETERIA     ",0,2,1850.791557,260.922684,"Include",150
"SD2014_e2","SD2014_e2_1","LIME          ",0,2,1999.193243,147.083907,"Include",151
"SD2014_e2","SD2014_e2_1","MOSS          ",1,2,1586.23685,190.814559,"Include",152
"SD2014_e2","SD2014_e2_1","LULLABY       ",1,2,1563.765353,185.659818,"Include",153
"SD2014_e2","SD2014_e2_1","SLEEVE        ",0,2,1294.818769,191.60913,"Include",154
"SD2014_e2","SD2014_e2_1","WITCH         ",1,2,756.719154,227.608664,"Include",155
"SD2014_e2","SD2014_e2_1","COLORADO      ",1,5,1934.599891,724.693776,"Include",156
"SD2014_e2","SD2014_e2_1","INJECTION     ",1,6,2370.712681,103.096097,"Include",157
"SD2014_e2","SD2014_e2_1","ESPIONAGE     ",1,6,1270.920361,104.513138,"Include",158
"SD2014_e2","SD2014_e2_1","AXE           ",0,1,2633.080165,162.85534,"Include",159
"SD2014_e2","SD2014_e2_1","QUILL         ",0,1,1497.368766,489.998895,"Include",160
"SD2014_e2","SD2014_e2_1","AMUSEMENT     ",1,6,1777.722684,374.803822,"Include",161
"SD2014_e2","SD2014_e2_1","ALUMNI        ",1,6,1356.346931,122.272373,"Include",162
"SD2014_e2","SD2014_e2_1","REASSURANCE   ",0,1,1777.607273,174.455448,"Include",163
"SD2014_e2","SD2014_e2_1","CHARCOAL      ",0,1,2251.538761,228.574671,"Include",164
"SD2014_e2","SD2014_e2_1","BUGGY         ",1,5,1432.186087,211.654392,"Include",165
"SD2014_e2","SD2014_e2_1","CALCIUM       ",0,1,1855.874829,721.411076,"Include",166
"SD2014_e2","SD2014_e2_1","PARDON        ",0,4,1680.280707,185.548151,"Include",167
"SD2014_e2","SD2014_e2_1","INFIELD       ",1,6,1494.636527,135.249874,"Include",168
"SD2014_e2","SD2014_e2_1","INDECISION    ",0,3,2077.652851,198.210525,"Include",169
"SD2014_e2","SD2014_e2_1","INDICTMENT    ",0,3,2170.568709,166.930857,"Include",170
"SD2014_e2","SD2014_e2_1","CHAMPIONSHIP  ",1,6,1588.095447,184.532812,"Include",171
"SD2014_e2","SD2014_e2_1","NEON          ",1,6,1141.659432,164.60871,"Include",172
"SD2014_e2","SD2014_e2_1","VISA          ",1,3,1419.203534,174.548153,"Include",173
"SD2014_e2","SD2014_e2_1","VOLUNTEER     ",1,6,1011.622553,176.156473,"Include",174
"SD2014_e2","SD2014_e2_1","SUNRISE       ",1,4,6877.187391,271.488396,"Include",175
"SD2014_e2","SD2014_e2_1","PROCLAMATION  ",1,3,1552.456172,238.276664,"Include",176
"SD2014_e2","SD2014_e2_1","CONQUEST      ",1,6,1153.38449,190.978941,"Include",177
"SD2014_e2","SD2014_e2_1","PEDESTRIAN    ",1,6,1051.465624,197.804041,"Include",178
"SD2014_e2","SD2014_e2_1","CONSERVATION  ",0,3,1434.290288,165.084225,"Include",179
"SD2014_e2","SD2014_e2_1","SPOTLIGHT     ",1,2,1290.847265,243.604393,"Include",180
"SD2014_e2","SD2014_e2_1","DISARMAMENT   ",0,1,1045.872215,225.122941,"Include",181
"SD2014_e2","SD2014_e2_1","BANKRUPTCY    ",0,1,1364.183485,178.346517,"Include",182
"SD2014_e2","SD2014_e2_1","ROYALTY       ",0,1,832.120539,188.192272,"Include",183
"SD2014_e2","SD2014_e2_1","WRIST         ",1,6,1313.896025,193.462775,"Include",184
"SD2014_e2","SD2014_e2_1","NEPHEW        ",1,6,1070.404376,152.386594,"Include",185
"SD2014_e2","SD2014_e2_1","COLLISION     ",1,1,2766.10777,154.527772,"Include",186
"SD2014_e2","SD2014_e2_1","FRESHMAN      ",1,6,1080.198523,177.930029,"Include",187
"SD2014_e2","SD2014_e2_1","PALETTE       ",0,1,3895.763974,237.340526,"Include",188
"SD2014_e2","SD2014_e2_1","EVOLUTION     ",1,3,3351.59698,155.727484,"Include",189
"SD2014_e2","SD2014_e2_1","ENCOURAGEMENT ",1,6,2089.556873,169.436209,"Include",190
"SD2014_e2","SD2014_e2_1","THERMOMETER   ",0,3,1486.490084,199.024374,"Include",191
"SD2014_e2","SD2014_e2_1","GAIETY        ",1,5,1771.513789,144.330881,"Include",192
"SD2014_e2","SD2014_e2_1","LINGUISTICS   ",1,5,2102.750946,149.964284,"Include",193
"SD2014_e2","SD2014_e2_1","GRAVEL        ",1,3,1444.43946,110.984014,"Include",194
"SD2014_e2","SD2014_e2_1","SANDWICH      ",0,3,2030.924075,153.465165,"Include",195
"SD2014_e2","SD2014_e2_1","REJECTION     ",0,3,1519.260199,542.523572,"Include",196
"SD2014_e2","SD2014_e2_1","CALIBRATION   ",0,1,1508.456813,1028.393822,"Include",197
"SD2014_e2","SD2014_e2_1","ALTAR         ",1,6,1087.087371,208.041588,"Include",198
"SD2014_e2","SD2014_e2_1","MOMENTUM      ",0,1,1771.618934,832.740497,"Include",199
"SD2014_e2","SD2014_e2_1","FLASHLIGHT    ",1,5,1946.959303,417.02356,"Include",200
"SD2014_e2","SD2014_e2_1","TAPESTRY      ",1,6,2129.44069,1431.169058,"Include",201
"SD2014_e2","SD2014_e2_1","ENVY          ",0,2,1295.888799,528.135727,"Include",202
"SD2014_e2","SD2014_e2_1","ECSTASY       ",0,2,1398.733678,267.491268,"Include",203
"SD2014_e2","SD2014_e2_1","FAREWELL      ",0,2,1172.448297,218.197197,"Include",204
"SD2014_e2","SD2014_e2_1","CENTENNIAL    ",1,5,1655.446426,177.41475,"Include",205
"SD2014_e2","SD2014_e2_1","OBESITY       ",1,3,1407.067511,123.336449,"Include",206
"SD2014_e2","SD2014_e2_1","BACHELOR      ",1,2,1858.325751,251.836324,"Include",207
"SD2014_e2","SD2014_e2_1","INFLATION     ",1,3,2437.469742,390.821491,"Include",208
"SD2014_e2","SD2014_e2_1","PAROLE        ",1,3,1675.739243,436.59031,"Include",209
"SD2014_e2","SD2014_e2_1","VERDICT       ",1,3,1367.305667,173.195551,"Include",210
"SD2014_e2","SD2014_e2_1","LIFETIME      ",1,2,810.322006,383.499127,"Include",211
"SD2014_e2","SD2014_e2_1","ACTRESS       ",0,2,851.898243,183.050389,"Include",212
"SD2014_e2","SD2014_e2_1","ISLE          ",0,2,772.264035,162.490615,"Include",213
"SD2014_e2","SD2014_e2_1","INDULGENCE    ",1,6,1279.957755,217.763716,"Include",214
"SD2014_e2","SD2014_e2_1","MEMBRANE      ",0,2,1204.530276,137.013254,"Include",215
"SD2014_e2","SD2014_e2_1","WHIG          ",0,2,1736.29819,150.471723,"Include",216
"SD2014_e2","SD2014_e2_1","SCRUTINY      ",0,2,1436.625622,103.715559,"Include",217
"SD2014_e2","SD2014_e2_1","HOOK          ",0,2,888.08654,113.562051,"Include",218
"SD2014_e2","SD2014_e2_1","SOFA          ",0,2,674.153223,108.404188,"Include",219
"SD2014_e2","SD2014_e2_1","REALTOR       ",1,5,1404.734056,105.028652,"Include",220
"SD2014_e2","SD2014_e2_1","ACQUAINTANCE  ",1,5,1072.859092,98.768499,"Include",221
"SD2014_e2","SD2014_e2_1","BOW           ",0,2,1918.074282,76.867317,"Include",222
"SD2014_e2","SD2014_e2_1","VACANCY       ",1,4,1454.484399,80.692869,"Include",223
"SD2014_e2","SD2014_e2_1","FAIRWAY       ",1,2,2154.550408,71.603035,"Include",224
"SD2014_e2","SD2014_e2_1","DROUGHT       ",1,2,784.849698,126.388647,"Include",225
"SD2014_e2","SD2014_e2_1","SENSATION     ",1,5,1253.511255,79.934447,"Include",226
"SD2014_e2","SD2014_e2_1","PIANIST       ",0,2,921.712208,97.831063,"Include",227
"SD2014_e2","SD2014_e2_1","CUSHION       ",1,2,978.798018,104.941782,"Include",228
"SD2014_e2","SD2014_e2_1","GLOVE         ",0,5,1257.466539,59.692467,"Include",229
"SD2014_e2","SD2014_e2_1","TRUMPET       ",0,2,1061.960209,104.797223,"Include",230
"SD2014_e2","SD2014_e2_1","CORK          ",1,2,961.256167,87.93355,"Include",231
"SD2014_e2","SD2014_e2_1","COMPREHENSION ",0,2,936.533564,95.852624,"Include",232
"SD2014_e2","SD2014_e2_1","ROBBERY       ",0,2,608.356685,125.480849,"Include",233
"SD2014_e2","SD2014_e2_1","EXPEDITION    ",1,2,756.591237,155.450532,"Include",234
"SD2014_e2","SD2014_e2_1","BUD           ",0,2,849.921839,60.729174,"Include",235
"SD2014_e2","SD2014_e2_1","GROVE         ",0,5,911.315832,456.194508,"Include",236
"SD2014_e2","SD2014_e2_1","LOCKER        ",1,2,562.124456,145.287324,"Include",237
"SD2014_e2","SD2014_e2_1","SCRAP         ",1,5,1144.476718,87.531412,"Include",238
"SD2014_e2","SD2014_e2_1","CONGRESSMEN   ",1,5,1688.109637,80.324054,"Include",239
"SD2014_e2","SD2014_e2_1","CARPET        ",0,2,1770.374437,95.220857,"Include",240
"SD2014_e2","SD2014_e2_1","HOUSEKEEPING  ",1,2,1015.739865,132.336801,"Include",241
"SD2014_e2","SD2014_e2_1","INTEGRITY     ",1,4,1506.730911,138.720049,"Include",242
"SD2014_e2","SD2014_e2_1","SHOE          ",1,2,1121.82968,113.541906,"Include",243
"SD2014_e2","SD2014_e2_1","HANDKERCHIEF  ",0,1,2209.41467,500.453841,"Include",244
"SD2014_e2","SD2014_e2_1","PETITION      ",1,6,1532.187996,75.665164,"Include",245
"SD2014_e2","SD2014_e2_1","AVOCADO       ",1,6,1704.155391,63.809552,"Include",246
"SD2014_e2","SD2014_e2_1","HONESTY       ",0,2,1258.294022,764.77976,"Include",247
"SD2014_e2","SD2014_e2_1","SUFFRAGE      ",0,2,1577.625523,222.757803,"Include",248
"SD2014_e2","SD2014_e2_1","FANTASY       ",0,2,1466.368582,156.620199,"Include",249
"SD2014_e2","SD2014_e2_1","OX            ",0,2,3154.890632,110.67607,"Include",250
"SD2014_e2","SD2014_e2_1","OFFSPRING     ",1,2,1126.677714,118.327786,"Include",251
"SD2014_e2","SD2014_e2_1","BEVERAGE      ",0,3,2261.444058,542.425278,"Include",252
"SD2014_e2","SD2014_e2_1","STABILITY     ",1,3,1364.914599,435.10529,"Include",253
"SD2014_e2","SD2014_e2_1","FIBERGLASS    ",1,3,725.200624,181.445832,"Include",254
"SD2014_e2","SD2014_e2_1","SATELLITE     ",1,2,1043.022209,86.42425,"Include",255
"SD2014_e2","SD2014_e2_1","RUBBER        ",0,3,2143.487589,1069.470073,"Include",256
"SD2014_e2","SD2014_e2_1","LACE          ",0,3,1166.036383,172.422418,"Include",257
"SD2014_e2","SD2014_e2_1","MORTAR        ",0,4,2066.256449,147.620619,"Include",258
"SD2014_e2","SD2014_e2_1","TOLERANCE     ",1,4,1385.967111,102.616843,"Include",259
"SD2014_e2","SD2014_e2_1","ASTONISHMENT  ",0,2,1607.638523,147.398984,"Include",260
"SD2014_e2","SD2014_e2_1","SODIUM        ",0,2,1410.537,118.659118,"Include",261
"SD2014_e2","SD2014_e2_1","STEREO        ",1,2,822.292789,226.626141,"Include",262
"SD2014_e2","SD2014_e2_1","ELDER         ",1,2,822.300217,146.478996,"Include",263
"SD2014_e2","SD2014_e2_1","ELEPHANT      ",0,2,5208.862991,248.108975,"Include",264
"SD2014_e2","SD2014_e2_1","FOLIAGE       ",1,2,7650.975909,77.504709,"Include",265
"SD2014_e2","SD2014_e2_1","VENTILATION   ",1,5,2126.541506,141.284387,"Include",266
"SD2014_e2","SD2014_e2_1","MAPLE         ",0,2,1868.319743,85.09236,"Include",267
"SD2014_e2","SD2014_e2_1","MERCHANDISE   ",1,5,1941.581309,443.687129,"Include",268
"SD2014_e2","SD2014_e2_1","BARK          ",1,2,1134.477572,181.503912,"Include",269
"SD2014_e2","SD2014_e2_1","ABANDONMENT   ",1,6,1698.473442,98.903379,"Include",270
"SD2014_e2","SD2014_e2_1","HATCH         ",0,2,1699.255187,123.781282,"Include",271
"SD2014_e2","SD2014_e2_1","LIVELIHOOD    ",0,5,1362.97236,73.080306,"Include",272
"SD2014_e2","SD2014_e2_1","BRUTALITY     ",0,2,866.28718,149.063955,"Include",273
"SD2014_e2","SD2014_e2_1","CALCULATION   ",1,3,1418.930792,510.257552,"Include",274
"SD2014_e2","SD2014_e2_1","PATCH         ",0,2,1230.238434,273.786628,"Include",275
"SD2014_e2","SD2014_e2_1","LEAF          ",0,5,2771.532269,103.045612,"Include",276
"SD2014_e2","SD2014_e2_1","DOCUMENT      ",1,2,1638.830398,105.377563,"Include",277
"SD2014_e2","SD2014_e2_1","CENSUS        ",0,2,7089.603729,155.779683,"Include",278
"SD2014_e2","SD2014_e2_1","GEOMETRY      ",0,2,1449.490137,148.233935,"Include",279
"SD2014_e2","SD2014_e2_1","BREAST        ",1,2,4507.309015,119.413279,"Include",280
"SD2014_e2","SD2014_e2_1","PEAR          ",1,4,1039.144588,354.371579,"Include",281
"SD2014_e2","SD2014_e2_1","NOVELTY       ",0,2,1672.522126,105.702153,"Include",282
"SD2014_e2","SD2014_e2_1","ARCHBISHOP    ",0,2,1681.347599,202.490033,"Include",283
"SD2014_e2","SD2014_e2_1","REWARD        ",0,2,1606.689473,170.69209,"Include",284
"SD2014_e2","SD2014_e2_1","INSULATION    ",0,2,1031.74805,331.769759,"Include",285
"SD2014_e2","SD2014_e2_1","CAPS          ",0,4,2307.196306,186.094983,"Include",286
"SD2014_e2","SD2014_e2_1","STIMULATION   ",0,2,1486.459362,143.036374,"Include",287
"SD2014_e2","SD2014_e2_1","BICYCLE       ",0,2,1286.220089,143.105215,"Include",288
"SD2014_e2","SD2014_e2_1","PAD           ",1,6,1462.277892,80.215846,"Include",289
"SD2014_e2","SD2014_e2_1","TROPHY        ",0,2,922.171543,178.316753,"Include",290
"SD2014_e2","SD2014_e2_1","RIDICULE      ",0,2,1295.792676,192.864114,"Include",291
"SD2014_e2","SD2014_e2_1","CONTRACTION   ",0,2,1565.302036,163.031186,"Include",292
"SD2014_e2","SD2014_e2_1","CLUE          ",0,2,681.632395,124.000246,"Include",293
"SD2014_e2","SD2014_e2_1","COD           ",0,2,747.783473,179.291066,"Include",294
"SD2014_e2","SD2014_e2_1","GARMENT       ",1,5,2136.461204,166.181117,"Include",295
"SD2014_e2","SD2014_e2_1","ADOLESCENT    ",1,2,979.257994,161.187732,"Include",296
"SD2014_e2","SD2014_e2_1","BEE           ",1,2,775.664197,149.870647,"Include",297
"SD2014_e2","SD2014_e2_1","RATTLE        ",1,2,596.331648,130.252574,"Include",298
"SD2014_e2","SD2014_e2_1","TACKLE        ",1,2,682.005486,180.350725,"Include",299
"SD2014_e2","SD2014_e2_1","DOCK          ",1,2,1226.084111,117.705156,"Include",300
"SD2014_e2","SD2014_e2_1","ARROW         ",0,2,661.528853,144.512156,"Include",301
"SD2014_e2","SD2014_e2_1","WILDERNESS    ",1,5,1143.001653,126.160666,"Include",302
"SD2014_e2","SD2014_e2_1","SLATE         ",0,2,597.96682,155.875742,"Include",303
"SD2014_e2","SD2014_e2_1","FRESCO        ",0,2,698.274905,123.845662,"Include",304
"SD2014_e2","SD2014_e2_1","COCONUT       ",1,2,771.467915,106.001025,"Include",305
"SD2014_e2","SD2014_e2_1","RECONNAISSANCE",1,6,2641.841143,114.869946,"Include",306
"SD2014_e2","SD2014_e2_1","INSTRUCTOR    ",0,2,1306.775386,130.913163,"Include",307
"SD2014_e2","SD2014_e2_1","DIAGRAM       ",1,2,737.975427,145.745651,"Include",308
"SD2014_e2","SD2014_e2_1","SCABBARD      ",1,2,720.135321,144.373808,"Include",309
"SD2014_e2","SD2014_e2_1","COMPLEXITY    ",1,6,1174.883304,100.629888,"Include",310
"SD2014_e2","SD2014_e2_1","RESTRAINT     ",1,4,2924.339527,49.852812,"Include",311
"SD2014_e2","SD2014_e2_1","EXTRACTION    ",1,4,1483.792861,372.375281,"Include",312
"SD2014_e2","SD2014_e2_1","MISFORTUNE    ",0,2,1089.095854,162.247737,"Include",313
"SD2014_e2","SD2014_e2_1","STARVATION    ",0,2,1288.101487,121.010192,"Include",314
"SD2014_e2","SD2014_e2_1","STEAK         ",0,2,816.849337,652.85661,"Include",315
"SD2014_e2","SD2014_e2_1","PHOSPHOR      ",0,4,1085.969372,1286.977889,"Include",316
"SD2014_e2","SD2014_e2_1","MANHOOD       ",1,6,1126.045556,189.954871,"Include",317
"SD2014_e2","SD2014_e2_1","HESITATION    ",1,2,2010.219763,213.642641,"Include",318
"SD2014_e2","SD2014_e2_1","BRONZE        ",0,2,1497.690374,242.520965,"Include",319
"SD2014_e2","SD2014_e2_1","POKER         ",1,2,1341.602541,212.474648,"Include",320
"SD2014_e2","SD2014_e2_1","BANKER        ",0,2,1048.614394,203.964512,"Include",321
"SD2014_e2","SD2014_e2_1","JUNK          ",0,2,552.292611,191.444737,"Include",322
"SD2014_e2","SD2014_e2_1","PILL          ",0,2,796.610339,346.192425,"Include",323
"SD2014_e2","SD2014_e2_1","PROSECUTOR    ",0,4,1488.361823,776.781279,"Include",324
"SD2014_e2","SD2014_e2_1","BRAVADO       ",0,2,989.160374,186.603294,"Include",325
"SD2014_e2","SD2014_e2_1","BUCKLE        ",1,2,735.590008,167.182552,"Include",326
"SD2014_e2","SD2014_e2_1","PROSE         ",0,2,612.961967,154.070292,"Include",327
"SD2014_e2","SD2014_e2_1","CIRCUS        ",1,6,952.547483,103.139174,"Include",328
"SD2014_e2","SD2014_e2_1","ELEGANCE      ",1,6,1159.025838,333.308908,"Include",329
"SD2014_e2","SD2014_e2_1","BALCONY       ",1,4,1012.068465,288.829027,"Include",330
"SD2014_e2","SD2014_e2_1","CRUSADE       ",1,3,1337.504984,272.734482,"Include",331
"SD2014_e2","SD2014_e2_1","MONOPOLY      ",1,3,1369.530257,183.021076,"Include",332
"SD2014_e2","SD2014_e2_1","PEDESTAL      ",1,4,1539.345306,186.031601,"Include",333
"SD2014_e2","SD2014_e2_1","SUPERSTITION  ",1,2,974.415619,236.318921,"Include",334
"SD2014_e2","SD2014_e2_1","COMMENTARY    ",0,1,1102.614422,199.101049,"Include",335
"SD2014_e2","SD2014_e2_1","BREEZE        ",1,1,979.382613,153.32995,"Include",336
"SD2014_e2","SD2014_e2_1","STEALTH       ",0,5,1735.792204,518.276819,"Include",337
"SD2014_e2","SD2014_e2_1","HERB          ",0,2,1517.479541,228.723164,"Include",338
"SD2014_e2","SD2014_e2_1","CAPER         ",0,1,1208.423887,332.72361,"Include",339
"SD2014_e2","SD2014_e2_1","PILLOW        ",0,2,1972.419441,161.146425,"Include",340
"SD2014_e2","SD2014_e2_1","IVY           ",0,2,1063.637912,138.209156,"Include",341
"SD2014_e2","SD2014_e2_1","SUPREMACY     ",1,2,912.581418,97.264563,"Include",342
"SD2014_e2","SD2014_e2_1","HAMBURGER     ",0,2,1329.79325,97.275415,"Include",343
"SD2014_e2","SD2014_e2_1","WALLPAPER     ",0,2,857.854762,116.573709,"Include",344
"SD2014_e2","SD2014_e2_1","PROVERB       ",1,2,1027.761884,111.715384,"Include",345
"SD2014_e2","SD2014_e2_1","VEGETABLE     ",1,2,1111.430863,136.024691,"Include",346
"SD2014_e2","SD2014_e2_1","OATH          ",0,2,646.9259,170.813967,"Include",347
"SD2014_e2","SD2014_e2_1","WOE           ",1,2,616.58224,132.988964,"Include",348
"SD2014_e2","SD2014_e2_1","AGGRESSION    ",0,2,907.441188,116.109346,"Include",349
"SD2014_e2","SD2014_e2_1","PASSPORT      ",1,2,2379.271051,271.472341,"Include",350
"SD2014_e2","SD2014_e2_1","STAIRCASE     ",0,2,776.509614,174.608121,"Include",351
"SD2014_e2","SD2014_e2_1","BARRIER       ",0,2,748.094314,171.977594,"Include",352
"SD2014_e2","SD2014_e2_1","FEATHER       ",0,2,2041.580487,155.737694,"Include",353
"SD2014_e2","SD2014_e2_1","PHARMACY      ",1,2,657.281114,124.495144,"Include",354
"SD2014_e2","SD2014_e2_1","STEREOTYPE    ",0,3,1603.629776,199.415896,"Include",355
"SD2014_e2","SD2014_e2_1","DEFIANCE      ",0,2,1235.202601,102.09382,"Include",356
"SD2014_e2","SD2014_e2_1","CORTEX        ",0,1,958.618347,541.199957,"Include",357
"SD2014_e2","SD2014_e2_1","TOILET        ",1,3,979.899466,809.998168,"Include",358
"SD2014_e2","SD2014_e2_1","CHAMPAGNE     ",0,2,940.692398,140.066796,"Include",359
"SD2014_e2","SD2014_e2_1","ATHLETICS     ",0,2,1586.516469,870.989919,"Include",360
"SD2014_e2","SD2014_e2_1","DISCREPANCY   ",1,2,575.149389,261.704254,"Include",361
"SD2014_e2","SD2014_e2_1","HAMPER        ",0,2,503.884574,185.317344,"Include",362
"SD2014_e2","SD2014_e2_1","HELPER        ",0,2,654.233412,233.330983,"Include",363
"SD2014_e2","SD2014_e2_1","ZEAL          ",0,2,740.333773,643.892017,"Include",364
"SD2014_e2","SD2014_e2_1","PARENT        ",0,1,1222.447363,194.060092,"Include",365
"SD2014_e2","SD2014_e2_1","STATIC        ",0,1,1567.23407,397.047384,"Include",366
"SD2014_e2","SD2014_e2_1","ARITHMETIC    ",1,4,1737.119097,263.414532,"Include",367
"SD2014_e2","SD2014_e2_1","TROLLEY       ",1,3,1257.830076,884.040646,"Include",368
"SD2014_e2","SD2014_e2_1","CAGE          ",1,2,1196.075161,217.105994,"Include",369
"SD2014_e2","SD2014_e2_1","EMBRACE       ",1,2,876.151817,174.2974,"Include",370
"SD2014_e2","SD2014_e2_1","LYRIC         ",0,2,636.037598,135.819101,"Include",371
"SD2014_e2","SD2014_e2_1","GEOLOGY       ",0,2,862.790679,153.748859,"Include",372
"SD2014_e2","SD2014_e2_1","HANDWRITING   ",1,2,751.455524,110.50881,"Include",373
"SD2014_e2","SD2014_e2_1","ALBUM         ",1,2,1022.894818,114.804569,"Include",374
"SD2014_e2","SD2014_e2_1","THRIFT        ",1,2,691.332298,124.965606,"Include",375
"SD2014_e2","SD2014_e2_1","CEMENT        ",1,2,868.746106,142.931489,"Include",376
"SD2014_e2","SD2014_e2_1","DITCH         ",0,2,742.087074,213.648069,"Include",377
"SD2014_e2","SD2014_e2_1","OPPONENT      ",0,2,665.380987,212.359206,"Include",378
"SD2014_e2","SD2014_e2_1","PRINCESS      ",0,2,832.116619,156.290335,"Include",379
"SD2014_e2","SD2014_e2_1","EROSION       ",1,2,898.399729,340.07447,"Include",380
"SD2014_e2","SD2014_e2_1","PATROLMAN     ",0,2,1002.277857,454.855981,"Include",381
"SD2014_e2","SD2014_e2_1","LOUNGE        ",0,2,513.072777,162.242274,"Include",382
"SD2014_e2","SD2014_e2_1","ORDINANCE     ",1,4,1599.940593,148.504381,"Include",383
"SD2014_e2","SD2014_e2_1","INK           ",1,2,1219.620343,111.272515,"Include",384
"SD2014_e2","SD2014_e2_1","BLOSSOM       ",1,2,679.033928,481.407106,"Include",385
"SD2014_e2","SD2014_e2_1","ORATOR        ",1,4,1986.454054,382.796379,"Include",386
"SD2014_e2","SD2014_e2_1","ZINC          ",1,4,1451.55448,213.517475,"Include",387
"SD2014_e2","SD2014_e2_1","MILITIA       ",1,2,890.027867,155.329476,"Include",388
"SD2014_e2","SD2014_e2_1","EASTER        ",1,2,1153.763045,240.179049,"Include",389
"SD2014_e2","SD2014_e2_1","TERMINATION   ",1,3,1218.638482,462.173999,"Include",390
"SD2014_e2","SD2014_e2_1","MORTALITY     ",1,2,1055.543462,161.985015,"Include",391
"SD2014_e2","SD2014_e2_1","REGRESSION    ",1,6,1743.803593,1118.143203,"Include",392
"SD2014_e2","SD2014_e2_1","BRACE         ",0,2,1972.529113,225.261054,"Include",393
"SD2014_e2","SD2014_e2_1","SCULPTURE     ",0,2,1236.209329,199.255813,"Include",394
"SD2014_e2","SD2014_e2_1","FUSE          ",0,2,587.604754,529.327845,"Include",395
"SD2014_e2","SD2014_e2_1","YOUNGSTER     ",1,2,1080.016732,161.819911,"Include",396
"SD2014_e2","SD2014_e2_1","PLAGUE        ",1,2,1584.370504,156.820556,"Include",397
"SD2014_e2","SD2014_e2_1","CHIMNEY       ",0,2,651.071652,118.279646,"Include",398
"SD2014_e2","SD2014_e2_1","HUNCH         ",1,2,1150.113359,108.60459,"Include",399
"SD2014_e2","SD2014_e2_1","ORGANISM      ",1,6,1380.331382,113.803826,"Include",400
"SD2014_e2","SD2014_e2_11","CORPSE        ",1,6,4528.190569,2925.040789,"Include",1
"SD2014_e2","SD2014_e2_11","CITATION      ",1,6,1408.70762,1548.586644,"Include",2
"SD2014_e2","SD2014_e2_11","LIVELIHOOD    ",1,6,1337.275824,920.201802,"Include",3
"SD2014_e2","SD2014_e2_11","QUILL         ",1,5,3292.609601,1099.01922,"Include",4
"SD2014_e2","SD2014_e2_11","FOLIAGE       ",0,1,2049.347246,1466.754361,"Include",5
"SD2014_e2","SD2014_e2_11","HEROINE       ",1,5,2178.838431,863.286901,"Include",6
"SD2014_e2","SD2014_e2_11","DECORATION    ",0,2,1871.849826,2152.898365,"Include",7
"SD2014_e2","SD2014_e2_11","DIALYSIS      ",0,1,1924.263135,1211.195223,"Include",8
"SD2014_e2","SD2014_e2_11","ORATOR        ",0,2,1590.176098,1290.868175,"Include",9
"SD2014_e2","SD2014_e2_11","ROBE          ",0,2,1706.361399,3722.234007,"Include",10
"SD2014_e2","SD2014_e2_11","POLLUTION     ",1,5,1706.177898,1073.838308,"Include",11
"SD2014_e2","SD2014_e2_11","ECONOMIST     ",1,5,1397.944352,1050.785233,"Include",12
"SD2014_e2","SD2014_e2_11","SOLVENT       ",1,6,2411.775767,414.756938,"Include",13
"SD2014_e2","SD2014_e2_11","NUT           ",1,6,1082.829097,2132.601972,"Include",14
"SD2014_e2","SD2014_e2_11","BACON         ",1,2,1570.993978,1911.080463,"Include",15
"SD2014_e2","SD2014_e2_11","ANARCHY       ",1,6,1196.401323,1289.553439,"Include",16
"SD2014_e2","SD2014_e2_11","CARCASS       ",1,3,3088.372286,3446.903142,"Include",17
"SD2014_e2","SD2014_e2_11","AVIATION      ",1,6,1037.422102,576.999662,"Include",18
"SD2014_e2","SD2014_e2_11","KNOT          ",1,6,1422.284738,657.83301,"Include",19
"SD2014_e2","SD2014_e2_11","PLANK         ",1,2,1283.572537,900.281575,"Include",20
"SD2014_e2","SD2014_e2_11","TRIGGER       ",0,1,1715.246666,698.930991,"Include",21
"SD2014_e2","SD2014_e2_11","BOW           ",1,6,2060.437102,365.604591,"Include",22
"SD2014_e2","SD2014_e2_11","DISCOURSE     ",1,3,2299.143439,362.626699,"Include",23
"SD2014_e2","SD2014_e2_11","GRAPHITE      ",0,1,1664.126159,841.945489,"Include",24
"SD2014_e2","SD2014_e2_11","NAZI          ",0,1,2020.322663,470.677971,"Include",25
"SD2014_e2","SD2014_e2_11","EARL          ",1,5,2280.035167,1656.270984,"Include",26
"SD2014_e2","SD2014_e2_11","SUBWAY        ",1,6,1448.72368,1115.541234,"Include",27
"SD2014_e2","SD2014_e2_11","MUSTACHE      ",1,2,2226.02822,644.563702,"Include",28
"SD2014_e2","SD2014_e2_11","EAGLE         ",0,3,4166.874315,361.242395,"Include",29
"SD2014_e2","SD2014_e2_11","DEPENDENCE    ",0,2,2262.854581,943.682741,"Include",30
"SD2014_e2","SD2014_e2_11","COMMUTER      ",0,2,2421.001461,1143.211779,"Include",31
"SD2014_e2","SD2014_e2_11","ALIBI         ",0,1,2197.143314,744.631401,"Include",32
"SD2014_e2","SD2014_e2_11","GAUGE         ",1,6,1391.102553,443.765116,"Include",33
"SD2014_e2","SD2014_e2_11","AMPLIFIER     ",0,2,3109.805336,1971.632897,"Include",34
"SD2014_e2","SD2014_e2_11","TRUMPET       ",1,5,1454.230599,1176.53651,"Include",35
"SD2014_e2","SD2014_e2_11","TIN           ",0,1,1165.018418,491.190431,"Include",36
"SD2014_e2","SD2014_e2_11","HUMIDITY      ",0,2,4059.397602,1017.754815,"Include",37
"SD2014_e2","SD2014_e2_11","PEDESTAL      ",0,3,3107.892397,873.583394,"Include",38
"SD2014_e2","SD2014_e2_11","CATASTROPHE   ",0,5,4569.680104,571.654681,"Include",39
"SD2014_e2","SD2014_e2_11","LAMB          ",1,6,1176.86049,646.744176,"Include",40
"SD2014_e2","SD2014_e2_11","TROUSERS      ",1,6,1168.397995,678.123432,"Include",41
"SD2014_e2","SD2014_e2_11","COMMONWEALTH  ",0,1,1182.688072,524.164354,"Include",42
"SD2014_e2","SD2014_e2_11","BETRAYAL      ",1,5,2562.792371,551.358003,"Include",43
"SD2014_e2","SD2014_e2_11","CHORD         ",1,2,2781.25831,1440.838977,"Include",44
"SD2014_e2","SD2014_e2_11","NEON          ",0,2,946.236308,1097.629814,"Include",45
"SD2014_e2","SD2014_e2_11","PARADOX       ",0,1,1128.784381,528.836075,"Include",46
"SD2014_e2","SD2014_e2_11","CONTEMPT      ",0,4,4815.246491,695.021386,"Include",47
"SD2014_e2","SD2014_e2_11","SCEPTICISM    ",0,2,1526.570143,685.779406,"Include",48
"SD2014_e2","SD2014_e2_11","FEATHER       ",0,2,1437.976767,928.928214,"Include",49
"SD2014_e2","SD2014_e2_11","JUNK          ",0,2,1727.665668,582.663616,"Include",50
"SD2014_e2","SD2014_e2_11","ZEAL          ",1,6,1027.386078,551.292615,"Include",51
"SD2014_e2","SD2014_e2_11","LAYER         ",1,2,1181.225699,490.666363,"Include",52
"SD2014_e2","SD2014_e2_11","CONQUEST      ",1,6,1298.63315,611.609539,"Include",53
"SD2014_e2","SD2014_e2_11","CAPER         ",1,2,4719.462804,427.148607,"Include",54
"SD2014_e2","SD2014_e2_11","RECIPE        ",1,5,3542.509613,498.700949,"Include",55
"SD2014_e2","SD2014_e2_11","BUSH          ",0,5,3555.230451,2798.635802,"Include",56
"SD2014_e2","SD2014_e2_11","ROBBERY       ",0,5,5199.501244,2631.229884,"Include",57
"SD2014_e2","SD2014_e2_11","OPTIMISM      ",1,6,1415.20602,715.138933,"Include",58
"SD2014_e2","SD2014_e2_11","EXPEDITION    ",1,6,1234.168319,533.079616,"Include",59
"SD2014_e2","SD2014_e2_11","TRANSACTION   ",0,5,4250.927397,1442.008115,"Include",60
"SD2014_e2","SD2014_e2_11","PARALYSIS     ",0,1,1850.859463,549.094036,"Include",61
"SD2014_e2","SD2014_e2_11","RATTLE        ",0,1,1611.520402,551.347161,"Include",62
"SD2014_e2","SD2014_e2_11","SCANDAL       ",0,2,1516.680272,324.585055,"Include",63
"SD2014_e2","SD2014_e2_11","SCULPTURE     ",0,1,2083.547509,1539.874969,"Include",64
"SD2014_e2","SD2014_e2_11","FLOCK         ",0,2,1209.130031,989.544026,"Include",65
"SD2014_e2","SD2014_e2_11","HEIR          ",1,6,1113.755988,1177.988366,"Include",66
"SD2014_e2","SD2014_e2_11","CAVE          ",0,5,1286.558178,415.513856,"Include",67
"SD2014_e2","SD2014_e2_11","ZOO           ",1,6,907.44338,436.195702,"Include",68
"SD2014_e2","SD2014_e2_11","MINK          ",1,2,2486.889448,830.247295,"Include",69
"SD2014_e2","SD2014_e2_11","GHOST         ",1,6,897.19185,490.72368,"Include",70
"SD2014_e2","SD2014_e2_11","DENTIST       ",0,5,2075.00318,435.956472,"Include",71
"SD2014_e2","SD2014_e2_11","STEREO        ",0,2,2342.296372,595.945986,"Include",72
"SD2014_e2","SD2014_e2_11","EXECUTION     ",0,5,2784.019238,427.655267,"Include",73
"SD2014_e2","SD2014_e2_11","PUPPET        ",1,5,1079.097284,848.61527,"Include",74
"SD2014_e2","SD2014_e2_11","SHRINE        ",1,5,1211.003622,519.446889,"Include",75
"SD2014_e2","SD2014_e2_11","ENZYME        ",0,2,1382.530485,635.98581,"Include",76
"SD2014_e2","SD2014_e2_11","PEASANT       ",0,3,1710.136099,790.123136,"Include",77
"SD2014_e2","SD2014_e2_11","ATHLETICS     ",0,5,2247.470322,593.082407,"Include",78
"SD2014_e2","SD2014_e2_11","CIRCUS        ",0,5,909.606787,430.355805,"Include",79
"SD2014_e2","SD2014_e2_11","BAYONET       ",1,6,1681.047205,394.194509,"Include",80
"SD2014_e2","SD2014_e2_11","CHAIRMEN      ",1,5,2246.195426,439.961158,"Include",81
"SD2014_e2","SD2014_e2_11","RELAXATION    ",1,5,945.784429,393.302219,"Include",82
"SD2014_e2","SD2014_e2_11","DIRECTORY     ",1,2,1069.367512,663.220381,"Include",83
"SD2014_e2","SD2014_e2_11","GEOGRAPHY     ",0,3,3056.457398,768.192068,"Include",84
"SD2014_e2","SD2014_e2_11","PURSE         ",0,2,2093.387953,1405.16986,"Include",85
"SD2014_e2","SD2014_e2_11","SHOWER        ",0,5,935.24241,710.545918,"Include",86
"SD2014_e2","SD2014_e2_11","HURRICANE     ",0,2,1133.482217,660.583426,"Include",87
"SD2014_e2","SD2014_e2_11","SPECK         ",0,1,1422.502014,434.036561,"Include",88
"SD2014_e2","SD2014_e2_11","POSTURE       ",1,6,1195.77075,456.821328,"Include",89
"SD2014_e2","SD2014_e2_11","PET           ",1,6,1042.8985,430.087914,"Include",90
"SD2014_e2","SD2014_e2_11","VIRUS         ",1,6,969.59181,391.715908,"Include",91
"SD2014_e2","SD2014_e2_11","REUNION       ",1,5,1011.69435,408.218022,"Include",92
"SD2014_e2","SD2014_e2_11","WRECK         ",1,5,1164.274909,418.956569,"Include",93
"SD2014_e2","SD2014_e2_11","DYNAMITE      ",0,5,2821.627413,423.037942,"Include",94
"SD2014_e2","SD2014_e2_11","EMBRACE       ",0,3,1769.713823,518.715129,"Include",95
"SD2014_e2","SD2014_e2_11","FISSION       ",0,1,1205.856167,1442.33184,"Include",96
"SD2014_e2","SD2014_e2_11","SUBSISTENCE   ",0,5,2731.232155,384.657886,"Include",97
"SD2014_e2","SD2014_e2_11","FACADE        ",1,5,1229.643012,329.38907,"Include",98
"SD2014_e2","SD2014_e2_11","WAIST         ",1,6,960.949517,391.553514,"Include",99
"SD2014_e2","SD2014_e2_11","NOMINATION    ",1,3,1531.479179,578.799158,"Include",100
"SD2014_e2","SD2014_e2_11","COLOGNE       ",0,1,1151.445135,317.711111,"Include",101
"SD2014_e2","SD2014_e2_11","DEMON         ",1,2,1373.139911,402.617842,"Include",102
"SD2014_e2","SD2014_e2_11","COMPASS       ",1,6,982.090721,396.199827,"Include",103
"SD2014_e2","SD2014_e2_11","INSPECTOR     ",1,6,1400.430496,692.292733,"Include",104
"SD2014_e2","SD2014_e2_11","CONTRACTION   ",0,3,2419.930392,438.05646,"Include",105
"SD2014_e2","SD2014_e2_11","DRUM          ",1,6,1032.880285,340.680403,"Include",106
"SD2014_e2","SD2014_e2_11","NOVELIST      ",1,6,7138.762341,730.736953,"Include",107
"SD2014_e2","SD2014_e2_11","NIECE         ",1,6,809.816293,366.674959,"Include",108
"SD2014_e2","SD2014_e2_11","JOCKEY        ",0,1,1396.310547,536.931046,"Include",109
"SD2014_e2","SD2014_e2_11","CRANE         ",0,2,1215.71443,459.785857,"Include",110
"SD2014_e2","SD2014_e2_11","STAG          ",1,2,1750.123332,1460.182429,"Include",111
"SD2014_e2","SD2014_e2_11","MAST          ",0,1,1132.938605,428.758517,"Include",112
"SD2014_e2","SD2014_e2_11","TUITION       ",1,6,1008.157958,316.697114,"Include",113
"SD2014_e2","SD2014_e2_11","CARRIAGE      ",1,5,1587.713001,408.034942,"Include",114
"SD2014_e2","SD2014_e2_11","HEEL          ",0,3,1492.179627,684.810105,"Include",115
"SD2014_e2","SD2014_e2_11","RIGHTEOUSNESS ",0,3,4236.550655,876.447308,"Include",116
"SD2014_e2","SD2014_e2_11","CALCIUM       ",0,1,1781.109981,385.983043,"Include",117
"SD2014_e2","SD2014_e2_11","AGGRESSION    ",1,5,2270.343214,478.396165,"Include",118
"SD2014_e2","SD2014_e2_11","TACT          ",0,2,1175.741312,1333.405647,"Include",119
"SD2014_e2","SD2014_e2_11","EXPLOITATION  ",1,5,2059.049821,796.260177,"Include",120
"SD2014_e2","SD2014_e2_11","CHAMPIONSHIP  ",1,6,1727.992867,470.79599,"Include",121
"SD2014_e2","SD2014_e2_11","BAIL          ",0,2,2312.304467,335.289242,"Include",122
"SD2014_e2","SD2014_e2_11","SONATA        ",0,1,1357.787742,372.22094,"Include",123
"SD2014_e2","SD2014_e2_11","TOMB          ",0,5,5417.727196,1152.378913,"Include",124
"SD2014_e2","SD2014_e2_11","FRAUD         ",1,5,2581.538051,345.56363,"Include",125
"SD2014_e2","SD2014_e2_11","TROOPER       ",0,4,1967.741597,860.977296,"Include",126
"SD2014_e2","SD2014_e2_11","HABITAT       ",0,2,1118.335269,694.171842,"Include",127
"SD2014_e2","SD2014_e2_11","INK           ",1,6,1142.622549,637.641313,"Include",128
"SD2014_e2","SD2014_e2_11","IGNITION      ",0,5,3335.858899,356.991782,"Include",129
"SD2014_e2","SD2014_e2_11","AMBULANCE     ",1,6,1074.596003,252.41006,"Include",130
"SD2014_e2","SD2014_e2_11","ADVERSARY     ",0,2,1365.988983,708.188674,"Include",131
"SD2014_e2","SD2014_e2_11","MYSTIQUE      ",1,2,1363.178196,1705.36071,"Include",132
"SD2014_e2","SD2014_e2_11","VINEGAR       ",1,5,1087.194947,568.279726,"Include",133
"SD2014_e2","SD2014_e2_11","ALUMNI        ",0,1,2381.403917,633.621027,"Include",134
"SD2014_e2","SD2014_e2_11","WART          ",1,6,1044.224829,335.39514,"Include",135
"SD2014_e2","SD2014_e2_11","DUEL          ",1,5,1246.187161,337.011461,"Include",136
"SD2014_e2","SD2014_e2_11","FERTILITY     ",0,1,1143.746294,375.217609,"Include",137
"SD2014_e2","SD2014_e2_11","PHOSPHOR      ",0,1,1275.957439,413.400739,"Include",138
"SD2014_e2","SD2014_e2_11","POISE         ",0,2,3313.555299,1575.109344,"Include",139
"SD2014_e2","SD2014_e2_11","TUB           ",0,2,1755.021095,1048.632047,"Include",140
"SD2014_e2","SD2014_e2_11","ANTISEPTIC    ",1,5,2010.475989,381.36482,"Include",141
"SD2014_e2","SD2014_e2_11","URANIUM       ",0,1,1161.934783,752.332632,"Include",142
"SD2014_e2","SD2014_e2_11","ADOLESCENT    ",0,2,3005.480403,2319.236746,"Include",143
"SD2014_e2","SD2014_e2_11","RESTRAINT     ",1,3,1635.487891,414.20491,"Include",144
"SD2014_e2","SD2014_e2_11","RECEPTIONIST  ",0,5,2073.42304,281.934532,"Include",145
"SD2014_e2","SD2014_e2_11","FRANCHISE     ",0,3,1810.874555,398.594348,"Include",146
"SD2014_e2","SD2014_e2_11","BRONZE        ",1,5,1962.525337,895.805932,"Include",147
"SD2014_e2","SD2014_e2_11","DICE          ",0,4,1352.039649,1030.271034,"Include",148
"SD2014_e2","SD2014_e2_11","FACTION       ",0,2,1480.655325,730.072576,"Include",149
"SD2014_e2","SD2014_e2_11","AUDITORIUM    ",0,4,2392.538144,1251.895375,"Include",150
"SD2014_e2","SD2014_e2_11","VANITY        ",1,5,2828.886811,694.421153,"Include",151
"SD2014_e2","SD2014_e2_11","ABSORPTION    ",1,5,1174.364406,371.822534,"Include",152
"SD2014_e2","SD2014_e2_11","AMBUSH        ",1,5,1152.832315,455.094919,"Include",153
"SD2014_e2","SD2014_e2_11","FRESCO        ",1,6,1833.058057,372.153702,"Include",154
"SD2014_e2","SD2014_e2_11","DEER          ",0,4,3585.467245,635.991905,"Include",155
"SD2014_e2","SD2014_e2_11","SPORTSMAN     ",1,3,1445.704485,528.624168,"Include",156
"SD2014_e2","SD2014_e2_11","LOTION        ",0,4,4215.76481,736.131437,"Include",157
"SD2014_e2","SD2014_e2_11","DEVELOPER     ",0,2,1429.890648,2289.241187,"Include",158
"SD2014_e2","SD2014_e2_11","NOMENCLATURE  ",1,6,4062.75389,389.406133,"Include",159
"SD2014_e2","SD2014_e2_11","INTELLECT     ",1,3,3025.454949,434.780261,"Include",160
"SD2014_e2","SD2014_e2_11","APPLAUSE      ",0,5,1140.780978,444.11653,"Include",161
"SD2014_e2","SD2014_e2_11","LOUNGE        ",0,3,870.805549,656.810336,"Include",162
"SD2014_e2","SD2014_e2_11","DISCOUNT      ",1,5,1473.845656,771.442403,"Include",163
"SD2014_e2","SD2014_e2_11","BACTERIA      ",1,6,1055.39901,386.155798,"Include",164
"SD2014_e2","SD2014_e2_11","GROOM         ",0,4,2254.797825,375.955033,"Include",165
"SD2014_e2","SD2014_e2_11","SCAR          ",1,4,1917.320856,740.635381,"Include",166
"SD2014_e2","SD2014_e2_11","TWIN          ",0,1,1491.195629,1099.699793,"Include",167
"SD2014_e2","SD2014_e2_11","MARROW        ",0,2,2226.807308,389.373812,"Include",168
"SD2014_e2","SD2014_e2_11","DISTURBANCE   ",0,5,1433.339246,492.605732,"Include",169
"SD2014_e2","SD2014_e2_11","RECRUITMENT   ",0,5,3580.733199,287.182411,"Include",170
"SD2014_e2","SD2014_e2_11","CURRENCY      ",1,5,1207.470368,323.755276,"Include",171
"SD2014_e2","SD2014_e2_11","DELINQUENCY   ",1,3,2218.696974,1180.937637,"Include",172
"SD2014_e2","SD2014_e2_11","UNREST        ",0,1,1105.344359,585.911991,"Include",173
"SD2014_e2","SD2014_e2_11","NICKNAME      ",0,6,1229.693528,329.382068,"Include",174
"SD2014_e2","SD2014_e2_11","TURKEY        ",1,6,936.884024,352.270949,"Include",175
"SD2014_e2","SD2014_e2_11","INNOVATION    ",1,4,3453.783371,357.078042,"Include",176
"SD2014_e2","SD2014_e2_11","DRIVEWAY      ",0,1,930.839408,466.673961,"Include",177
"SD2014_e2","SD2014_e2_11","MARTINI       ",1,6,1107.76878,276.561396,"Include",178
"SD2014_e2","SD2014_e2_11","RANSOM        ",0,3,1157.519735,403.856122,"Include",179
"SD2014_e2","SD2014_e2_11","GYMNASTICS    ",0,4,1679.315041,1600.301555,"Include",180
"SD2014_e2","SD2014_e2_11","RIOT          ",1,5,939.67633,634.826666,"Include",181
"SD2014_e2","SD2014_e2_11","NICKEL        ",1,6,821.403697,265.716675,"Include",182
"SD2014_e2","SD2014_e2_11","STRAY         ",0,3,4763.12945,932.958765,"Include",183
"SD2014_e2","SD2014_e2_11","RAKE          ",0,5,1611.775401,271.491104,"Include",184
"SD2014_e2","SD2014_e2_11","CANE          ",1,4,2201.108282,604.819759,"Include",185
"SD2014_e2","SD2014_e2_11","CABLE         ",1,5,1781.932412,194.566264,"Include",186
"SD2014_e2","SD2014_e2_11","SCRATCH       ",0,3,1110.95899,327.444323,"Include",187
"SD2014_e2","SD2014_e2_11","AXE           ",0,2,1174.927176,1692.720212,"Include",188
"SD2014_e2","SD2014_e2_11","LAGOON        ",1,4,1851.816458,1301.527349,"Include",189
"SD2014_e2","SD2014_e2_11","ABOLITION     ",1,6,1083.521394,292.931617,"Include",190
"SD2014_e2","SD2014_e2_11","PEPPER        ",0,1,1253.786223,1127.853095,"Include",191
"SD2014_e2","SD2014_e2_11","POSTERIOR     ",1,6,1117.955153,437.651954,"Include",192
"SD2014_e2","SD2014_e2_11","ASSETS        ",0,5,2016.344562,355.573289,"Include",193
"SD2014_e2","SD2014_e2_11","PANSY         ",1,6,865.699041,372.514821,"Include",194
"SD2014_e2","SD2014_e2_11","THUMB         ",1,5,1305.982552,370.205391,"Include",195
"SD2014_e2","SD2014_e2_11","REGRET        ",1,5,911.716861,280.422391,"Include",196
"SD2014_e2","SD2014_e2_11","DICTATOR      ",1,5,1545.331748,799.922347,"Include",197
"SD2014_e2","SD2014_e2_11","KITTEN        ",1,6,755.552341,338.667235,"Include",198
"SD2014_e2","SD2014_e2_11","INSTINCT      ",0,5,1153.082543,639.68648,"Include",199
"SD2014_e2","SD2014_e2_11","TYRANNY       ",0,2,937.870092,697.504668,"Include",200
"SD2014_e2","SD2014_e2_11","CHESTNUT      ",1,6,3027.208,1387.934256,"Include",201
"SD2014_e2","SD2014_e2_11","EGG           ",0,1,1045.954752,408.425097,"Include",202
"SD2014_e2","SD2014_e2_11","GUARDIAN      ",1,5,915.951133,380.681671,"Include",203
"SD2014_e2","SD2014_e2_11","COCONUT       ",1,2,2929.472157,447.161795,"Include",204
"SD2014_e2","SD2014_e2_11","SHAFT         ",0,2,1089.635939,250.755048,"Include",205
"SD2014_e2","SD2014_e2_11","PRINCESS      ",0,1,1276.426827,326.006411,"Include",206
"SD2014_e2","SD2014_e2_11","CENTENNIAL    ",1,6,980.892791,282.833609,"Include",207
"SD2014_e2","SD2014_e2_11","RESERVATION   ",1,3,3779.268145,533.584311,"Include",208
"SD2014_e2","SD2014_e2_11","RHETORIC      ",1,6,1067.315242,477.224827,"Include",209
"SD2014_e2","SD2014_e2_11","BEAST         ",1,4,3131.986537,296.951356,"Include",210
"SD2014_e2","SD2014_e2_11","RESONANCE     ",0,2,1113.243177,817.755432,"Include",211
"SD2014_e2","SD2014_e2_11","HUNCH         ",0,3,1116.696092,508.653952,"Include",212
"SD2014_e2","SD2014_e2_11","BLAST         ",1,2,1076.443769,726.271555,"Include",213
"SD2014_e2","SD2014_e2_11","REVOLVER      ",1,6,1052.546595,647.284089,"Include",214
"SD2014_e2","SD2014_e2_11","POLITICIAN    ",0,3,1224.949727,764.759554,"Include",215
"SD2014_e2","SD2014_e2_11","STEAK         ",0,2,1002.188815,414.901342,"Include",216
"SD2014_e2","SD2014_e2_11","BALLOON       ",0,5,2046.702738,280.685926,"Include",217
"SD2014_e2","SD2014_e2_11","DEPLETION     ",1,2,1025.597774,189.490703,"Include",218
"SD2014_e2","SD2014_e2_11","FISHERMAN     ",0,5,3114.01802,287.786208,"Include",219
"SD2014_e2","SD2014_e2_11","PERFECTION    ",1,6,1231.95776,259.77105,"Include",220
"SD2014_e2","SD2014_e2_11","GROVE         ",0,2,950.181176,204.640127,"Include",221
"SD2014_e2","SD2014_e2_11","EXHAUST       ",0,3,944.720412,352.573211,"Include",222
"SD2014_e2","SD2014_e2_11","INDULGENCE    ",1,3,3127.640005,260.798266,"Include",223
"SD2014_e2","SD2014_e2_11","CIGAR         ",1,6,903.137194,175.990832,"Include",224
"SD2014_e2","SD2014_e2_11","CANOE         ",0,4,2805.641343,439.747116,"Include",225
"SD2014_e2","SD2014_e2_11","SPOON         ",0,5,1082.512214,364.489728,"Include",226
"SD2014_e2","SD2014_e2_11","JAM           ",1,6,834.614844,198.046651,"Include",227
"SD2014_e2","SD2014_e2_11","FASCINATION   ",0,2,1090.46432,491.77876,"Include",228
"SD2014_e2","SD2014_e2_11","FIREPLACE     ",1,6,1051.551971,302.292803,"Include",229
"SD2014_e2","SD2014_e2_11","TWEED         ",0,1,1166.360101,980.683029,"Include",230
"SD2014_e2","SD2014_e2_11","ROMANCE       ",0,4,4582.455493,319.681007,"Include",231
"SD2014_e2","SD2014_e2_11","PATROLMAN     ",1,4,5230.745479,197.023847,"Include",232
"SD2014_e2","SD2014_e2_11","STRIFE        ",1,3,1594.075889,494.596764,"Include",233
"SD2014_e2","SD2014_e2_11","MAP           ",1,2,2247.310911,912.861498,"Include",234
"SD2014_e2","SD2014_e2_11","SEASHORE      ",1,4,4943.5335,185.895084,"Include",235
"SD2014_e2","SD2014_e2_11","SLUG          ",0,5,1278.312522,391.80924,"Include",236
"SD2014_e2","SD2014_e2_11","GLOBE         ",0,5,932.57707,252.612208,"Include",237
"SD2014_e2","SD2014_e2_11","REPETITION    ",0,2,1102.240824,278.690417,"Include",238
"SD2014_e2","SD2014_e2_11","ANTENNA       ",1,6,935.62393,270.978554,"Include",239
"SD2014_e2","SD2014_e2_11","THANKSGIVING  ",0,1,1503.982151,1215.876809,"Include",240
"SD2014_e2","SD2014_e2_11","ELASTIC       ",0,2,1034.7617,350.20691,"Include",241
"SD2014_e2","SD2014_e2_11","YOUNGSTER     ",0,2,1147.642972,738.801123,"Include",242
"SD2014_e2","SD2014_e2_11","RIFLEMEN      ",0,1,1952.60688,325.769291,"Include",243
"SD2014_e2","SD2014_e2_11","HAZE          ",1,3,1021.471295,1153.419722,"Include",244
"SD2014_e2","SD2014_e2_11","CATHEDRAL     ",0,2,1173.651834,779.496999,"Include",245
"SD2014_e2","SD2014_e2_11","NUISANCE      ",0,2,903.811175,648.561246,"Include",246
"SD2014_e2","SD2014_e2_11","ULCER         ",0,2,1178.826731,448.565181,"Include",247
"SD2014_e2","SD2014_e2_11","SPECTATOR     ",1,6,1050.82025,909.192391,"Include",248
"SD2014_e2","SD2014_e2_11","BASIN         ",0,4,2588.683034,359.855004,"Include",249
"SD2014_e2","SD2014_e2_11","PROSPERITY    ",1,6,2981.214747,488.701289,"Include",250
"SD2014_e2","SD2014_e2_11","WILDERNESS    ",1,6,3184.56868,755.780735,"Include",251
"SD2014_e2","SD2014_e2_11","TREASON       ",0,2,1016.657881,676.541001,"Include",252
"SD2014_e2","SD2014_e2_11","IMPRISONMENT  ",0,4,3548.901036,520.884059,"Include",253
"SD2014_e2","SD2014_e2_11","STRAW         ",1,5,1088.154118,297.51975,"Include",254
"SD2014_e2","SD2014_e2_11","PEAR          ",1,6,914.26114,402.962349,"Include",255
"SD2014_e2","SD2014_e2_11","BOYCOTT       ",0,2,1054.890706,337.643774,"Include",256
"SD2014_e2","SD2014_e2_11","DYNASTY       ",1,6,2064.246794,401.788755,"Include",257
"SD2014_e2","SD2014_e2_11","INN           ",0,2,1173.879866,355.747993,"Include",258
"SD2014_e2","SD2014_e2_11","IMMIGRATION   ",1,6,1369.042263,342.49232,"Include",259
"SD2014_e2","SD2014_e2_11","INHERITANCE   ",0,2,1204.632233,353.035741,"Include",260
"SD2014_e2","SD2014_e2_11","TOWER         ",1,5,1055.386263,361.929204,"Include",261
"SD2014_e2","SD2014_e2_11","WREATH        ",0,2,1874.659405,387.509304,"Include",262
"SD2014_e2","SD2014_e2_11","NIGHTMARE     ",0,2,1815.561404,595.092658,"Include",263
"SD2014_e2","SD2014_e2_11","SHERRY        ",0,2,1783.582923,364.819168,"Include",264
"SD2014_e2","SD2014_e2_11","LIFETIME      ",0,2,2722.612123,376.630137,"Include",265
"SD2014_e2","SD2014_e2_11","BUCKET        ",0,5,949.956016,308.680899,"Include",266
"SD2014_e2","SD2014_e2_11","HOUND         ",0,2,1172.902851,202.547266,"Include",267
"SD2014_e2","SD2014_e2_11","GRANDMOTHER   ",1,6,1598.240012,338.723665,"Include",268
"SD2014_e2","SD2014_e2_11","MONSTER       ",0,5,1264.93884,347.30847,"Include",269
"SD2014_e2","SD2014_e2_11","HYSTERIA      ",0,4,3329.567564,246.286332,"Include",270
"SD2014_e2","SD2014_e2_11","IVY           ",0,2,1025.49733,237.319572,"Include",271
"SD2014_e2","SD2014_e2_11","CARPENTER     ",0,2,2367.621143,252.310322,"Include",272
"SD2014_e2","SD2014_e2_11","BRACE         ",0,2,886.687746,312.211431,"Include",273
"SD2014_e2","SD2014_e2_11","OBSCURITY     ",0,2,1167.568156,277.423431,"Include",274
"SD2014_e2","SD2014_e2_11","EROSION       ",1,5,1046.443954,369.53163,"Include",275
"SD2014_e2","SD2014_e2_11","ANT           ",0,5,1215.017812,275.551364,"Include",276
"SD2014_e2","SD2014_e2_11","NEUROSIS      ",0,1,1660.258874,390.034967,"Include",277
"SD2014_e2","SD2014_e2_11","MOTIVATION    ",0,5,1042.101432,421.296455,"Include",278
"SD2014_e2","SD2014_e2_11","HANDICAP      ",0,2,944.167772,399.418689,"Include",279
"SD2014_e2","SD2014_e2_11","SURVEILLANCE  ",1,6,1034.798757,342.047844,"Include",280
"SD2014_e2","SD2014_e2_11","VENGEANCE     ",0,5,1148.232699,331.31453,"Include",281
"SD2014_e2","SD2014_e2_11","FOUNDER       ",1,2,1522.187236,849.454939,"Include",282
"SD2014_e2","SD2014_e2_11","REVELATION    ",1,5,2523.183183,232.879092,"Include",283
"SD2014_e2","SD2014_e2_11","ACID          ",1,2,1115.865285,620.342753,"Include",284
"SD2014_e2","SD2014_e2_11","HAVEN         ",1,3,967.504367,805.661789,"Include",285
"SD2014_e2","SD2014_e2_11","LOGGING       ",0,1,952.364712,343.158016,"Include",286
"SD2014_e2","SD2014_e2_11","STEALTH       ",1,5,957.970326,300.622077,"Include",287
"SD2014_e2","SD2014_e2_11","COMMENTARY    ",1,4,1300.194534,493.221178,"Include",288
"SD2014_e2","SD2014_e2_11","DECAY         ",0,5,1069.741713,327.537966,"Include",289
"SD2014_e2","SD2014_e2_11","REED          ",0,1,1375.317593,444.813649,"Include",290
"SD2014_e2","SD2014_e2_11","SUNSET        ",1,6,1415.219729,451.560547,"Include",291
"SD2014_e2","SD2014_e2_11","BLIZZARD      ",1,5,1204.916856,313.152447,"Include",292
"SD2014_e2","SD2014_e2_11","SHIELD        ",1,4,1385.291894,318.130845,"Include",293
"SD2014_e2","SD2014_e2_11","SONAR         ",0,1,973.682661,355.77876,"Include",294
"SD2014_e2","SD2014_e2_11","INTERRUPTION  ",0,4,3953.01907,388.562464,"Include",295
"SD2014_e2","SD2014_e2_11","COMPLIANCE    ",0,3,1824.58308,323.682766,"Include",296
"SD2014_e2","SD2014_e2_11","OPPONENT      ",0,1,946.295565,345.920357,"Include",297
"SD2014_e2","SD2014_e2_11","DEFORMATION   ",1,6,1247.853892,346.790231,"Include",298
"SD2014_e2","SD2014_e2_11","SCENT         ",1,3,1145.940522,328.980243,"Include",299
"SD2014_e2","SD2014_e2_11","BOULEVARD     ",1,3,2335.676245,309.354168,"Include",300
"SD2014_e2","SD2014_e2_11","BOYHOOD       ",0,2,3044.672287,373.301242,"Include",301
"SD2014_e2","SD2014_e2_11","COLLEAGUE     ",0,2,1026.365279,262.144134,"Include",302
"SD2014_e2","SD2014_e2_11","EXPLOSION     ",1,5,999.615403,308.947838,"Include",303
"SD2014_e2","SD2014_e2_11","BRAVADO       ",1,6,988.456831,337.779532,"Include",304
"SD2014_e2","SD2014_e2_11","CASTLE        ",0,5,1016.674207,284.525733,"Include",305
"SD2014_e2","SD2014_e2_11","GRANDSON      ",0,1,1764.757534,554.419634,"Include",306
"SD2014_e2","SD2014_e2_11","GARRISON      ",1,6,1031.7046,339.571173,"Include",307
"SD2014_e2","SD2014_e2_11","HAMMOCK       ",1,6,897.816283,379.346735,"Include",308
"SD2014_e2","SD2014_e2_11","SEWER         ",1,5,1144.6512,327.707618,"Include",309
"SD2014_e2","SD2014_e2_11","SINCERITY     ",1,5,1614.787313,306.592058,"Include",310
"SD2014_e2","SD2014_e2_11","MAHOGANY      ",0,1,770.213135,616.271104,"Include",311
"SD2014_e2","SD2014_e2_11","THREAD        ",1,2,2075.307121,339.846127,"Include",312
"SD2014_e2","SD2014_e2_11","DOUGH         ",1,6,1106.826656,331.218942,"Include",313
"SD2014_e2","SD2014_e2_11","PERSISTENCE   ",0,2,1498.310563,1010.759509,"Include",314
"SD2014_e2","SD2014_e2_11","LIAISON       ",1,5,1278.157402,311.66445,"Include",315
"SD2014_e2","SD2014_e2_11","SEIZURE       ",1,6,903.624832,368.630944,"Include",316
"SD2014_e2","SD2014_e2_11","REJECTION     ",1,3,1165.273137,419.786765,"Include",317
"SD2014_e2","SD2014_e2_11","COMPLAINT     ",0,2,1598.692738,307.065375,"Include",318
"SD2014_e2","SD2014_e2_11","BRUTALITY     ",0,2,2226.789985,660.91471,"Include",319
"SD2014_e2","SD2014_e2_11","CARTRIDGE     ",1,1,1086.127778,279.207298,"Include",320
"SD2014_e2","SD2014_e2_11","LIMB          ",0,2,3040.809103,361.363878,"Include",321
"SD2014_e2","SD2014_e2_11","GREASE        ",0,5,1159.345141,262.007088,"Include",322
"SD2014_e2","SD2014_e2_11","MINERAL       ",1,6,903.628055,328.335705,"Include",323
"SD2014_e2","SD2014_e2_11","MERCURY       ",1,6,847.162086,386.697741,"Include",324
"SD2014_e2","SD2014_e2_11","EXEMPTION     ",1,5,3750.990108,290.540921,"Include",325
"SD2014_e2","SD2014_e2_11","CHORE         ",1,5,1851.360244,340.890545,"Include",326
"SD2014_e2","SD2014_e2_11","CALF          ",1,6,931.682956,691.856694,"Include",327
"SD2014_e2","SD2014_e2_11","WILLOW        ",1,6,780.053709,450.56674,"Include",328
"SD2014_e2","SD2014_e2_11","CHAT          ",1,5,4044.710938,323.791572,"Include",329
"SD2014_e2","SD2014_e2_11","STOVE         ",1,5,859.494758,270.109317,"Include",330
"SD2014_e2","SD2014_e2_11","PILGRIMAGE    ",1,2,1143.195068,734.069934,"Include",331
"SD2014_e2","SD2014_e2_11","BATON         ",1,2,1324.67933,603.951865,"Include",332
"SD2014_e2","SD2014_e2_11","BLOSSOM       ",1,6,879.344936,369.281824,"Include",333
"SD2014_e2","SD2014_e2_11","LULLABY       ",0,1,1022.833162,442.627817,"Include",334
"SD2014_e2","SD2014_e2_11","HOOD          ",0,1,1525.377742,460.605596,"Include",335
"SD2014_e2","SD2014_e2_11","PITY          ",0,2,1158.676583,301.302645,"Include",336
"SD2014_e2","SD2014_e2_11","INJECTION     ",0,2,1204.682503,336.973236,"Include",337
"SD2014_e2","SD2014_e2_11","TANK          ",1,3,3695.851395,597.660706,"Include",338
"SD2014_e2","SD2014_e2_11","RESTRICTION   ",1,5,1345.437731,656.524089,"Include",339
"SD2014_e2","SD2014_e2_11","CENSUS        ",0,1,1194.088921,679.173649,"Include",340
"SD2014_e2","SD2014_e2_11","SCRAP         ",1,2,1336.278844,318.934454,"Include",341
"SD2014_e2","SD2014_e2_11","PLASMA        ",1,6,1038.352938,385.804659,"Include",342
"SD2014_e2","SD2014_e2_11","CURB          ",0,3,1566.735685,1708.492009,"Include",343
"SD2014_e2","SD2014_e2_11","TEMPER        ",1,4,1122.751976,866.718908,"Include",344
"SD2014_e2","SD2014_e2_11","OBSTACLE      ",0,1,882.819774,492.897713,"Include",345
"SD2014_e2","SD2014_e2_11","EARTHQUAKE    ",1,6,3060.82393,1156.837879,"Include",346
"SD2014_e2","SD2014_e2_11","DETERRENT     ",0,1,1057.394053,363.75492,"Include",347
"SD2014_e2","SD2014_e2_11","DOMINANCE     ",1,1,785.207789,446.729409,"Include",348
"SD2014_e2","SD2014_e2_11","NEWT          ",0,1,881.553319,395.659523,"Include",349
"SD2014_e2","SD2014_e2_11","CHUCKLE       ",0,1,1024.161517,588.517868,"Include",350
"SD2014_e2","SD2014_e2_11","FAIRNESS      ",0,4,3136.299204,1780.586158,"Include",351
"SD2014_e2","SD2014_e2_11","PERSECUTION   ",1,5,3047.757131,808.360542,"Include",352
"SD2014_e2","SD2014_e2_11","SHED          ",0,4,2947.814012,432.505553,"Include",353
"SD2014_e2","SD2014_e2_11","VISA          ",1,6,891.477325,796.662613,"Include",354
"SD2014_e2","SD2014_e2_11","SUNDOWN       ",1,6,944.184273,535.510678,"Include",355
"SD2014_e2","SD2014_e2_11","CEMETERY      ",1,6,813.44923,514.364732,"Include",356
"SD2014_e2","SD2014_e2_11","SIGNATURE     ",1,6,753.64642,424.639741,"Include",357
"SD2014_e2","SD2014_e2_11","DECENCY       ",0,2,2475.708339,692.052491,"Include",358
"SD2014_e2","SD2014_e2_11","ARCHITECTURE  ",0,1,1091.761662,500.912084,"Include",359
"SD2014_e2","SD2014_e2_11","TUNE          ",1,3,988.867242,674.177517,"Include",360
"SD2014_e2","SD2014_e2_11","GRIEF         ",0,1,1355.518312,433.386394,"Include",361
"SD2014_e2","SD2014_e2_11","SANCTUARY     ",1,5,1235.403802,430.375534,"Include",362
"SD2014_e2","SD2014_e2_11","WALLPAPER     ",1,6,1257.291989,1355.451912,"Include",363
"SD2014_e2","SD2014_e2_11","KEEL          ",0,1,944.318638,407.680595,"Include",364
"SD2014_e2","SD2014_e2_11","SPINE         ",1,3,1667.788509,796.813724,"Include",365
"SD2014_e2","SD2014_e2_11","CAPSULE       ",0,1,1136.929302,384.291234,"Include",366
"SD2014_e2","SD2014_e2_11","INVENTOR      ",0,2,1340.47241,283.120688,"Include",367
"SD2014_e2","SD2014_e2_11","CLIFF         ",1,5,1028.043122,311.983569,"Include",368
"SD2014_e2","SD2014_e2_11","STAMP         ",1,5,856.219927,314.938921,"Include",369
"SD2014_e2","SD2014_e2_11","RANCHER       ",1,1,874.555186,324.622945,"Include",370
"SD2014_e2","SD2014_e2_11","TERRAIN       ",0,2,1164.112485,290.632423,"Include",371
"SD2014_e2","SD2014_e2_11","COPPER        ",0,2,1043.434183,678.730347,"Include",372
"SD2014_e2","SD2014_e2_11","COMPUTER      ",0,2,911.008133,327.936312,"Include",373
"SD2014_e2","SD2014_e2_11","PLAGUE        ",1,6,1207.420599,387.828594,"Include",374
"SD2014_e2","SD2014_e2_11","PROTOZOA      ",0,4,2720.037177,389.617278,"Include",375
"SD2014_e2","SD2014_e2_11","REVULSION     ",1,5,1657.886894,699.641749,"Include",376
"SD2014_e2","SD2014_e2_11","INSPIRATION   ",1,3,874.609005,1036.619852,"Include",377
"SD2014_e2","SD2014_e2_11","NEGLECT       ",0,5,1054.522425,233.067967,"Include",378
"SD2014_e2","SD2014_e2_11","INDECISION    ",0,2,1571.390434,520.762692,"Include",379
"SD2014_e2","SD2014_e2_11","SUMMIT        ",1,6,999.874242,580.415479,"Include",380
"SD2014_e2","SD2014_e2_11","PYTHON        ",1,6,1369.707011,711.34079,"Include",381
"SD2014_e2","SD2014_e2_11","LITIGATION    ",0,1,878.234418,464.241506,"Include",382
"SD2014_e2","SD2014_e2_11","VETO          ",0,2,1298.27926,291.210987,"Include",383
"SD2014_e2","SD2014_e2_11","POKER         ",1,6,892.179938,397.482558,"Include",384
"SD2014_e2","SD2014_e2_11","ORGAN         ",0,2,1010.322793,374.937672,"Include",385
"SD2014_e2","SD2014_e2_11","COFFIN        ",0,1,972.427889,426.363614,"Include",386
"SD2014_e2","SD2014_e2_11","PENTAGON      ",1,6,1085.287252,486.32948,"Include",387
"SD2014_e2","SD2014_e2_11","EMBARRASSMENT ",0,2,1198.307269,891.508147,"Include",388
"SD2014_e2","SD2014_e2_11","EVOLUTION     ",1,6,1002.757404,431.327377,"Include",389
"SD2014_e2","SD2014_e2_11","PHYSICIAN     ",1,6,882.200183,460.411388,"Include",390
"SD2014_e2","SD2014_e2_11","SINNER        ",0,2,798.286307,435.987414,"Include",391
"SD2014_e2","SD2014_e2_11","BLESSING      ",0,3,2486.047553,2541.149374,"Include",392
"SD2014_e2","SD2014_e2_11","EASTER        ",0,4,4113.289603,373.69231,"Include",393
"SD2014_e2","SD2014_e2_11","WOLF          ",0,2,1075.402729,389.0412,"Include",394
"SD2014_e2","SD2014_e2_11","ABANDONMENT   ",1,5,1177.235573,502.866886,"Include",395
"SD2014_e2","SD2014_e2_11","CHARITY       ",1,6,942.705801,486.297124,"Include",396
"SD2014_e2","SD2014_e2_11","LANDLORD      ",1,4,2854.180619,462.278342,"Include",397
"SD2014_e2","SD2014_e2_11","STOOL         ",1,5,1216.318693,444.643215,"Include",398
"SD2014_e2","SD2014_e2_11","STABILITY     ",1,2,934.704688,390.291345,"Include",399
"SD2014_e2","SD2014_e2_11","DEBT          ",0,4,1122.845117,482.637436,"Include",400
"SD2014_e2","SD2014_e2_13","CARTRIDGE     ",0,1,2480.470206,1069.630073,"Include",1
"SD2014_e2","SD2014_e2_13","ASSAULT       ",0,3,2064.064917,548.026277,"Include",2
"SD2014_e2","SD2014_e2_13","COMPLIANCE    ",0,3,2965.766293,585.884216,"Include",3
"SD2014_e2","SD2014_e2_13","MALAISE       ",0,3,1185.575601,795.744921,"Include",4
"SD2014_e2","SD2014_e2_13","REJECTION     ",1,4,1551.612691,897.493111,"Include",5
"SD2014_e2","SD2014_e2_13","CONTEMPLATION ",0,3,1628.075065,403.012761,"Include",6
"SD2014_e2","SD2014_e2_13","ASSASSIN      ",1,6,4474.743387,1340.557102,"Include",7
"SD2014_e2","SD2014_e2_13","EARL          ",0,1,1435.125877,1098.986932,"Include",8
"SD2014_e2","SD2014_e2_13","DEBT          ",1,4,2404.613974,905.644868,"Include",9
"SD2014_e2","SD2014_e2_13","SILK          ",0,3,1739.464519,781.138141,"Include",10
"SD2014_e2","SD2014_e2_13","HOSTILITY     ",1,6,3732.940306,1535.041002,"Include",11
"SD2014_e2","SD2014_e2_13","ENCLOSURE     ",1,6,3621.36825,300.789846,"Include",12
"SD2014_e2","SD2014_e2_13","STRIFE        ",1,1,1709.994149,593.403605,"Include",13
"SD2014_e2","SD2014_e2_13","GLOOM         ",0,3,2384.961533,310.836066,"Include",14
"SD2014_e2","SD2014_e2_13","WEB           ",0,3,1315.12459,520.20706,"Include",15
"SD2014_e2","SD2014_e2_13","OPPRESSION    ",0,3,1010.902014,533.306209,"Include",16
"SD2014_e2","SD2014_e2_13","TEXTURE       ",0,3,655.143822,304.880021,"Include",17
"SD2014_e2","SD2014_e2_13","IVY           ",1,2,1013.218058,279.399751,"Include",18
"SD2014_e2","SD2014_e2_13","BOYCOTT       ",0,2,1317.246808,1466.155221,"Include",19
"SD2014_e2","SD2014_e2_13","TENURE        ",0,2,1411.732062,316.215693,"Include",20
"SD2014_e2","SD2014_e2_13","UNREST        ",0,2,991.903145,426.718609,"Include",21
"SD2014_e2","SD2014_e2_13","ADHERENCE     ",1,4,1940.237834,221.255993,"Include",22
"SD2014_e2","SD2014_e2_13","INNOVATION    ",0,3,1717.367708,248.466348,"Include",23
"SD2014_e2","SD2014_e2_13","DONOR         ",0,3,991.057671,674.044919,"Include",24
"SD2014_e2","SD2014_e2_13","SPINE         ",0,3,782.156069,234.783207,"Include",25
"SD2014_e2","SD2014_e2_13","CHAMPAGNE     ",1,6,1433.947754,353.746379,"Include",26
"SD2014_e2","SD2014_e2_13","HAMBURGER     ",1,6,1156.05016,207.668781,"Include",27
"SD2014_e2","SD2014_e2_13","WILLOW        ",1,6,856.272762,233.225383,"Include",28
"SD2014_e2","SD2014_e2_13","TRIGGER       ",1,3,984.495776,331.40143,"Include",29
"SD2014_e2","SD2014_e2_13","CONTRACTION   ",1,2,1054.216853,854.31641,"Include",30
"SD2014_e2","SD2014_e2_13","PHARMACY      ",0,3,2042.26438,182.962018,"Include",31
"SD2014_e2","SD2014_e2_13","WHEAT         ",0,3,928.295966,198.221855,"Include",32
"SD2014_e2","SD2014_e2_13","VOLUNTEER     ",1,6,1174.913844,241.844375,"Include",33
"SD2014_e2","SD2014_e2_13","CANNON        ",1,3,1081.117389,192.413167,"Include",34
"SD2014_e2","SD2014_e2_13","ROMANCE       ",0,2,1465.873155,536.309455,"Include",35
"SD2014_e2","SD2014_e2_13","REPETITION    ",1,3,1010.298573,228.476601,"Include",36
"SD2014_e2","SD2014_e2_13","CONTEMPT      ",1,3,788.49104,184.221949,"Include",37
"SD2014_e2","SD2014_e2_13","BOMBER        ",0,3,1529.789963,181.279041,"Include",38
"SD2014_e2","SD2014_e2_13","ADOLESCENT    ",1,6,1494.793497,251.54953,"Include",39
"SD2014_e2","SD2014_e2_13","BATON         ",0,3,1170.174752,212.929836,"Include",40
"SD2014_e2","SD2014_e2_13","LIME          ",0,4,734.504272,259.900871,"Include",41
"SD2014_e2","SD2014_e2_13","INSPIRATION   ",1,4,1578.433772,331.578458,"Include",42
"SD2014_e2","SD2014_e2_13","GARBAGE       ",0,3,894.275436,149.648904,"Include",43
"SD2014_e2","SD2014_e2_13","DEBRIS        ",0,3,888.673618,656.083839,"Include",44
"SD2014_e2","SD2014_e2_13","PESSIMISM     ",1,1,1268.888263,731.44217,"Include",45
"SD2014_e2","SD2014_e2_13","INDICTMENT    ",1,6,1005.245466,567.63626,"Include",46
"SD2014_e2","SD2014_e2_13","CONQUEST      ",1,3,2983.950828,219.274936,"Include",47
"SD2014_e2","SD2014_e2_13","DICTATOR      ",0,2,1091.31405,257.864111,"Include",48
"SD2014_e2","SD2014_e2_13","CUSHION       ",0,3,1912.364531,314.83747,"Include",49
"SD2014_e2","SD2014_e2_13","REFUGE        ",0,3,2702.397587,246.143964,"Include",50
"SD2014_e2","SD2014_e2_13","BUCKLE        ",0,3,549.506589,219.575918,"Include",51
"SD2014_e2","SD2014_e2_13","RAMP          ",0,3,619.633141,110.752246,"Include",52
"SD2014_e2","SD2014_e2_13","SACK          ",0,3,851.995343,148.8989,"Include",53
"SD2014_e2","SD2014_e2_13","MONSTER       ",1,6,903.879098,150.452378,"Include",54
"SD2014_e2","SD2014_e2_13","TOWER         ",1,3,2209.466084,118.545187,"Include",55
"SD2014_e2","SD2014_e2_13","FORK          ",0,3,2379.011536,24.712515,"Include",56
"SD2014_e2","SD2014_e2_13","ALCOHOL       ",1,6,1033.662677,283.284159,"Include",57
"SD2014_e2","SD2014_e2_13","LIAISON       ",1,6,704.280802,191.958266,"Include",58
"SD2014_e2","SD2014_e2_13","PARADISE      ",1,4,3513.225451,308.977996,"Include",59
"SD2014_e2","SD2014_e2_13","ACTRESS       ",1,3,945.21585,270.615675,"Include",60
"SD2014_e2","SD2014_e2_13","DIRECTORY     ",0,3,996.265135,231.383641,"Include",61
"SD2014_e2","SD2014_e2_13","BIOLOGY       ",1,6,886.582585,341.907443,"Include",62
"SD2014_e2","SD2014_e2_13","ONION         ",0,1,696.836875,944.981013,"Include",63
"SD2014_e2","SD2014_e2_13","EGG           ",0,1,1405.803909,822.37058,"Include",64
"SD2014_e2","SD2014_e2_13","DISOBEDIENCE  ",0,3,843.840272,605.423482,"Include",65
"SD2014_e2","SD2014_e2_13","GENERATOR     ",0,3,988.452852,167.450498,"Include",66
"SD2014_e2","SD2014_e2_13","DEVIATION     ",1,6,1113.6408,303.423829,"Include",67
"SD2014_e2","SD2014_e2_13","DISTORTION    ",0,3,1115.979376,185.772745,"Include",68
"SD2014_e2","SD2014_e2_13","JUNK          ",1,6,1027.131553,180.77108,"Include",69
"SD2014_e2","SD2014_e2_13","TERRAIN       ",0,3,13357.57283,120.213993,"Include",70
"SD2014_e2","SD2014_e2_13","BEVERAGE      ",1,6,884.838338,188.10211,"Include",71
"SD2014_e2","SD2014_e2_13","THERMOMETER   ",0,1,893.641861,669.032836,"Include",72
"SD2014_e2","SD2014_e2_13","EXHAUST       ",1,6,2657.051299,211.036312,"Include",73
"SD2014_e2","SD2014_e2_13","OAK           ",0,1,1051.914862,819.876425,"Include",74
"SD2014_e2","SD2014_e2_13","PICNIC        ",1,6,865.29383,162.148796,"Include",75
"SD2014_e2","SD2014_e2_13","INCEST        ",1,3,4277.032526,263.679895,"Include",76
"SD2014_e2","SD2014_e2_13","ANCHOR        ",1,3,662.184254,175.875944,"Include",77
"SD2014_e2","SD2014_e2_13","METER         ",0,3,594.219629,158.827559,"Include",78
"SD2014_e2","SD2014_e2_13","PENSION       ",0,2,737.746283,183.993031,"Include",79
"SD2014_e2","SD2014_e2_13","AGGRESSION    ",1,2,833.282012,211.026741,"Include",80
"SD2014_e2","SD2014_e2_13","PATRIOT       ",1,6,811.695639,230.870743,"Include",81
"SD2014_e2","SD2014_e2_13","WALLET        ",0,3,1070.196699,165.468841,"Include",82
"SD2014_e2","SD2014_e2_13","GRIEF         ",1,3,1687.551177,227.637761,"Include",83
"SD2014_e2","SD2014_e2_13","KINDNESS      ",0,3,1859.619928,488.234804,"Include",84
"SD2014_e2","SD2014_e2_13","CERTIFICATE   ",1,6,812.420183,135.525951,"Include",85
"SD2014_e2","SD2014_e2_13","JUNCTION      ",0,3,651.233566,84.934174,"Include",86
"SD2014_e2","SD2014_e2_13","WHIG          ",0,3,1106.870173,224.63607,"Include",87
"SD2014_e2","SD2014_e2_13","CENSUS        ",0,3,1736.639012,643.207556,"Include",88
"SD2014_e2","SD2014_e2_13","PENETRATION   ",0,3,2040.825522,1477.407593,"Include",89
"SD2014_e2","SD2014_e2_13","FACADE        ",1,6,950.022207,179.306536,"Include",90
"SD2014_e2","SD2014_e2_13","EXTRACTION    ",1,5,741.431416,307.711445,"Include",91
"SD2014_e2","SD2014_e2_13","FARMHOUSE     ",1,6,975.917156,115.580452,"Include",92
"SD2014_e2","SD2014_e2_13","LACE          ",1,3,911.953798,102.601082,"Include",93
"SD2014_e2","SD2014_e2_13","MONOTONY      ",1,6,771.796117,128.535246,"Include",94
"SD2014_e2","SD2014_e2_13","SPONGE        ",1,6,1236.829559,100.849231,"Include",95
"SD2014_e2","SD2014_e2_13","WILDERNESS    ",1,5,1529.867777,445.310517,"Include",96
"SD2014_e2","SD2014_e2_13","CREATURE      ",0,4,1043.742477,940.46914,"Include",97
"SD2014_e2","SD2014_e2_13","HUMILITY      ",0,4,3884.763969,232.389108,"Include",98
"SD2014_e2","SD2014_e2_13","CHAPLAIN      ",1,6,711.512256,182.988387,"Include",99
"SD2014_e2","SD2014_e2_13","TOLERANCE     ",0,3,1080.497703,143.924122,"Include",100
"SD2014_e2","SD2014_e2_13","SPOTLIGHT     ",0,3,851.575704,268.376996,"Include",101
"SD2014_e2","SD2014_e2_13","CHORD         ",1,6,682.201088,131.192711,"Include",102
"SD2014_e2","SD2014_e2_13","EXEMPTION     ",0,3,2166.860515,110.403314,"Include",103
"SD2014_e2","SD2014_e2_13","DIALOGUE      ",1,3,883.445732,114.796503,"Include",104
"SD2014_e2","SD2014_e2_13","MAHOGANY      ",1,6,767.22863,131.911922,"Include",105
"SD2014_e2","SD2014_e2_13","CONGESTION    ",1,3,2735.446462,181.727242,"Include",106
"SD2014_e2","SD2014_e2_13","COP           ",1,6,1215.385055,160.676971,"Include",107
"SD2014_e2","SD2014_e2_13","LOCKER        ",1,6,723.696012,138.470461,"Include",108
"SD2014_e2","SD2014_e2_13","CATHEDRAL     ",0,3,878.128597,102.268165,"Include",109
"SD2014_e2","SD2014_e2_13","LIMITATION    ",0,3,795.546912,111.456406,"Include",110
"SD2014_e2","SD2014_e2_13","GRAVEL        ",0,3,852.48226,181.392336,"Include",111
"SD2014_e2","SD2014_e2_13","BREEZE        ",0,3,1174.887193,113.668564,"Include",112
"SD2014_e2","SD2014_e2_13","COLOGNE       ",0,3,902.092639,316.844552,"Include",113
"SD2014_e2","SD2014_e2_13","LIGHTER       ",0,3,1624.328421,119.250592,"Include",114
"SD2014_e2","SD2014_e2_13","PHYSICIST     ",0,3,763.798454,137.140544,"Include",115
"SD2014_e2","SD2014_e2_13","EVANGELISM    ",1,6,780.81952,129.301305,"Include",116
"SD2014_e2","SD2014_e2_13","PAROLE        ",1,3,1341.769233,553.371756,"Include",117
"SD2014_e2","SD2014_e2_13","GEOLOGY       ",0,1,698.586719,410.764666,"Include",118
"SD2014_e2","SD2014_e2_13","ORGANISM      ",1,3,1202.687394,132.086361,"Include",119
"SD2014_e2","SD2014_e2_13","PATCH         ",1,5,951.923292,260.249741,"Include",120
"SD2014_e2","SD2014_e2_13","SWAMP         ",0,3,1339.149996,742.62115,"Include",121
"SD2014_e2","SD2014_e2_13","POLITICIAN    ",0,6,1319.796023,444.085829,"Include",122
"SD2014_e2","SD2014_e2_13","RALLY         ",1,6,730.401334,153.295547,"Include",123
"SD2014_e2","SD2014_e2_13","DECAY         ",1,4,812.173459,359.29023,"Include",124
"SD2014_e2","SD2014_e2_13","TUB           ",0,4,1073.371105,160.625693,"Include",125
"SD2014_e2","SD2014_e2_13","FABRIC        ",0,4,1363.689075,870.467336,"Include",126
"SD2014_e2","SD2014_e2_13","MIGRATION     ",0,4,6201.407379,215.336615,"Include",127
"SD2014_e2","SD2014_e2_13","FLASK         ",0,3,1127.516962,196.448771,"Include",128
"SD2014_e2","SD2014_e2_13","AMAZEMENT     ",0,1,909.90752,372.697719,"Include",129
"SD2014_e2","SD2014_e2_13","CALCULATION   ",0,2,1134.039377,938.935534,"Include",130
"SD2014_e2","SD2014_e2_13","DEPLETION     ",1,2,971.487038,271.087024,"Include",131
"SD2014_e2","SD2014_e2_13","TRUNK         ",1,6,821.066958,191.216746,"Include",132
"SD2014_e2","SD2014_e2_13","GRUDGE        ",1,6,1088.865665,143.395182,"Include",133
"SD2014_e2","SD2014_e2_13","DUCK          ",0,3,1059.075687,147.013175,"Include",134
"SD2014_e2","SD2014_e2_13","SEIZURE       ",1,6,2837.993362,287.941212,"Include",135
"SD2014_e2","SD2014_e2_13","BANDSTAND     ",0,3,980.860179,232.796119,"Include",136
"SD2014_e2","SD2014_e2_13","PARADIGM      ",1,1,975.828,243.582185,"Include",137
"SD2014_e2","SD2014_e2_13","MECHANIC      ",0,2,1282.893806,225.4026,"Include",138
"SD2014_e2","SD2014_e2_13","SNACK         ",1,3,1089.424443,199.847236,"Include",139
"SD2014_e2","SD2014_e2_13","NIECE         ",0,3,984.708666,195.644387,"Include",140
"SD2014_e2","SD2014_e2_13","VITAMIN       ",0,3,1389.17937,190.416216,"Include",141
"SD2014_e2","SD2014_e2_13","ENZYME        ",0,3,1039.859424,240.786349,"Include",142
"SD2014_e2","SD2014_e2_13","COMPLAINT     ",1,5,1232.074398,376.602713,"Include",143
"SD2014_e2","SD2014_e2_13","COMPLEXITY    ",0,2,873.94068,282.204742,"Include",144
"SD2014_e2","SD2014_e2_13","GRANDSON      ",0,1,1087.144878,269.659489,"Include",145
"SD2014_e2","SD2014_e2_13","STUD          ",1,6,899.567677,258.95178,"Include",146
"SD2014_e2","SD2014_e2_13","MAP           ",0,3,1089.464309,232.07436,"Include",147
"SD2014_e2","SD2014_e2_13","MUSTACHE      ",1,6,823.379582,265.618184,"Include",148
"SD2014_e2","SD2014_e2_13","SORROW        ",0,3,1327.402701,195.689011,"Include",149
"SD2014_e2","SD2014_e2_13","PHOTOGRAPHY   ",1,6,989.149799,240.145096,"Include",150
"SD2014_e2","SD2014_e2_13","DESOLATION    ",0,3,1015.452499,345.62036,"Include",151
"SD2014_e2","SD2014_e2_13","ANTELOPE      ",1,6,1156.631428,240.201131,"Include",152
"SD2014_e2","SD2014_e2_13","BALCONY       ",1,4,823.356537,249.963953,"Include",153
"SD2014_e2","SD2014_e2_13","HARNESS       ",1,3,768.465379,164.960434,"Include",154
"SD2014_e2","SD2014_e2_13","PUPPET        ",1,4,959.257947,171.489827,"Include",155
"SD2014_e2","SD2014_e2_13","ZOO           ",1,5,1021.934351,247.354482,"Include",156
"SD2014_e2","SD2014_e2_13","REVULSION     ",0,3,813.862274,144.859956,"Include",157
"SD2014_e2","SD2014_e2_13","DIAGNOSIS     ",1,2,620.661336,159.86757,"Include",158
"SD2014_e2","SD2014_e2_13","DREAD         ",1,3,594.748133,207.469332,"Include",159
"SD2014_e2","SD2014_e2_13","SANITATION    ",0,3,648.210689,306.626924,"Include",160
"SD2014_e2","SD2014_e2_13","NOMENCLATURE  ",1,6,911.106788,181.789833,"Include",161
"SD2014_e2","SD2014_e2_13","DETECTION     ",1,5,935.323834,308.382397,"Include",162
"SD2014_e2","SD2014_e2_13","URGENCY       ",0,3,1088.676032,351.208975,"Include",163
"SD2014_e2","SD2014_e2_13","CRUELTY       ",1,4,1265.428119,248.604576,"Include",164
"SD2014_e2","SD2014_e2_13","TYRANNY       ",1,3,1183.02787,66.124112,"Include",165
"SD2014_e2","SD2014_e2_13","BRONZE        ",0,1,1256.564982,223.803613,"Include",166
"SD2014_e2","SD2014_e2_13","ELASTIC       ",0,4,895.786188,767.314039,"Include",167
"SD2014_e2","SD2014_e2_13","RIPPLE        ",1,6,854.911587,223.824461,"Include",168
"SD2014_e2","SD2014_e2_13","INFANT        ",0,3,855.772829,176.694154,"Include",169
"SD2014_e2","SD2014_e2_13","SUNRISE       ",0,3,890.836983,114.413141,"Include",170
"SD2014_e2","SD2014_e2_13","PIT           ",1,4,1014.693066,160.903022,"Include",171
"SD2014_e2","SD2014_e2_13","SENSATION     ",1,3,835.971033,141.508282,"Include",172
"SD2014_e2","SD2014_e2_13","TROPHY        ",1,6,825.185013,187.614332,"Include",173
"SD2014_e2","SD2014_e2_13","LAMB          ",0,4,1037.092353,509.941573,"Include",174
"SD2014_e2","SD2014_e2_13","TERRIER       ",0,2,713.294889,360.766452,"Include",175
"SD2014_e2","SD2014_e2_13","PIANIST       ",0,2,866.987304,235.120881,"Include",176
"SD2014_e2","SD2014_e2_13","ROT           ",1,4,994.318119,141.380343,"Include",177
"SD2014_e2","SD2014_e2_13","THANKSGIVING  ",1,6,873.0109,161.108909,"Include",178
"SD2014_e2","SD2014_e2_13","TOILET        ",0,3,1732.157098,262.668783,"Include",179
"SD2014_e2","SD2014_e2_13","TACKLE        ",0,2,1861.207325,209.856246,"Include",180
"SD2014_e2","SD2014_e2_13","TRICK         ",1,2,770.565101,183.112974,"Include",181
"SD2014_e2","SD2014_e2_13","COSTUME       ",0,2,816.805358,202.96057,"Include",182
"SD2014_e2","SD2014_e2_13","CAFETERIA     ",1,4,1347.691393,279.287708,"Include",183
"SD2014_e2","SD2014_e2_13","CAPS          ",0,3,1125.055761,218.243359,"Include",184
"SD2014_e2","SD2014_e2_13","HYSTERIA      ",1,5,1018.253825,259.762873,"Include",185
"SD2014_e2","SD2014_e2_13","NOVELIST      ",1,3,1082.295053,193.506379,"Include",186
"SD2014_e2","SD2014_e2_13","BUSH          ",0,2,970.914376,158.717086,"Include",187
"SD2014_e2","SD2014_e2_13","DOCK          ",1,2,609.67114,189.539557,"Include",188
"SD2014_e2","SD2014_e2_13","CELEBRATION   ",0,3,895.095775,358.63125,"Include",189
"SD2014_e2","SD2014_e2_13","SLATE         ",1,2,976.623147,156.372477,"Include",190
"SD2014_e2","SD2014_e2_13","CAB           ",1,3,1071.238131,518.563155,"Include",191
"SD2014_e2","SD2014_e2_13","RESERVOIR     ",1,3,777.350325,117.827152,"Include",192
"SD2014_e2","SD2014_e2_13","ASSETS        ",0,3,1722.406023,204.870114,"Include",193
"SD2014_e2","SD2014_e2_13","RELUCTANCE    ",1,4,901.636514,236.216959,"Include",194
"SD2014_e2","SD2014_e2_13","FITNESS       ",0,3,2211.53519,120.646774,"Include",195
"SD2014_e2","SD2014_e2_13","SEMESTER      ",1,3,989.117054,120.266688,"Include",196
"SD2014_e2","SD2014_e2_13","IRONY         ",1,6,876.596678,156.628134,"Include",197
"SD2014_e2","SD2014_e2_13","SANDWICH      ",1,6,975.603015,139.245089,"Include",198
"SD2014_e2","SD2014_e2_13","EMBRACE       ",1,4,1119.020009,156.136182,"Include",199
"SD2014_e2","SD2014_e2_13","ACCENT        ",0,3,807.151491,162.094238,"Include",200
"SD2014_e2","SD2014_e2_13","CANDIDACY     ",0,3,1910.539223,288.140884,"Include",201
"SD2014_e2","SD2014_e2_13","CHUCKLE       ",0,2,701.407517,228.884084,"Include",202
"SD2014_e2","SD2014_e2_13","CHAMPIONSHIP  ",0,4,1532.872107,200.288499,"Include",203
"SD2014_e2","SD2014_e2_13","REWARD        ",1,5,1168.333509,170.411684,"Include",204
"SD2014_e2","SD2014_e2_13","FORMULAE      ",0,2,780.617147,441.279469,"Include",205
"SD2014_e2","SD2014_e2_13","CULT          ",0,4,911.608901,358.339689,"Include",206
"SD2014_e2","SD2014_e2_13","CALIBRATION   ",1,3,776.455419,1396.998456,"Include",207
"SD2014_e2","SD2014_e2_13","STARVATION    ",1,6,4433.263749,260.589231,"Include",208
"SD2014_e2","SD2014_e2_13","SHELF         ",0,3,1978.97746,194.541724,"Include",209
"SD2014_e2","SD2014_e2_13","OX            ",0,3,1155.923734,167.818671,"Include",210
"SD2014_e2","SD2014_e2_13","HEAP          ",0,3,1267.720074,378.978077,"Include",211
"SD2014_e2","SD2014_e2_13","DESPERATION   ",0,3,2156.137624,147.697989,"Include",212
"SD2014_e2","SD2014_e2_13","DEFIANCE      ",0,3,558.607496,212.768907,"Include",213
"SD2014_e2","SD2014_e2_13","PROHIBITION   ",1,3,1221.502301,166.266969,"Include",214
"SD2014_e2","SD2014_e2_13","SALOON        ",1,6,1040.409842,361.171713,"Include",215
"SD2014_e2","SD2014_e2_13","TELEGRAM      ",0,3,675.329924,620.398096,"Include",216
"SD2014_e2","SD2014_e2_13","HEEL          ",1,4,978.534989,182.246057,"Include",217
"SD2014_e2","SD2014_e2_13","WRECK         ",0,5,1271.907149,166.153262,"Include",218
"SD2014_e2","SD2014_e2_13","TURTLE        ",1,5,928.453206,358.3303,"Include",219
"SD2014_e2","SD2014_e2_13","DITCH         ",0,3,616.533776,115.615926,"Include",220
"SD2014_e2","SD2014_e2_13","FRENZY        ",1,5,848.259424,233.663391,"Include",221
"SD2014_e2","SD2014_e2_13","PENTAGON      ",1,6,5362.091757,252.765403,"Include",222
"SD2014_e2","SD2014_e2_13","GAIETY        ",0,3,2067.624318,623.498133,"Include",223
"SD2014_e2","SD2014_e2_13","SUNDOWN       ",0,2,789.872013,185.681564,"Include",224
"SD2014_e2","SD2014_e2_13","OBSTACLE      ",0,5,1143.70512,164.291487,"Include",225
"SD2014_e2","SD2014_e2_13","INTEGRITY     ",1,4,886.373451,149.736018,"Include",226
"SD2014_e2","SD2014_e2_13","BURGUNDY      ",1,6,1192.64124,178.840588,"Include",227
"SD2014_e2","SD2014_e2_13","INN           ",0,4,1444.993659,172.114299,"Include",228
"SD2014_e2","SD2014_e2_13","MORTALITY     ",0,4,2238.285496,474.722292,"Include",229
"SD2014_e2","SD2014_e2_13","MUZZLE        ",1,6,1151.690265,427.296176,"Include",230
"SD2014_e2","SD2014_e2_13","FLOCK         ",0,4,874.516306,570.668695,"Include",231
"SD2014_e2","SD2014_e2_13","RESORT        ",0,4,715.154647,282.724732,"Include",232
"SD2014_e2","SD2014_e2_13","RIBBON        ",1,4,711.741935,271.155202,"Include",233
"SD2014_e2","SD2014_e2_13","INFLATION     ",0,4,2131.272439,180.08002,"Include",234
"SD2014_e2","SD2014_e2_13","PREJUDICE     ",1,6,910.328847,205.01145,"Include",235
"SD2014_e2","SD2014_e2_13","SIGNATURE     ",0,3,997.703944,176.735993,"Include",236
"SD2014_e2","SD2014_e2_13","CONSERVATION  ",1,6,1218.997286,171.709563,"Include",237
"SD2014_e2","SD2014_e2_13","INCENTIVE     ",0,6,869.785875,213.945893,"Include",238
"SD2014_e2","SD2014_e2_13","PROCLAMATION  ",0,3,3693.909866,186.237123,"Include",239
"SD2014_e2","SD2014_e2_13","DRUM          ",1,3,1787.699175,115.413813,"Include",240
"SD2014_e2","SD2014_e2_13","PRISONER      ",0,3,7327.477197,147.473,"Include",241
"SD2014_e2","SD2014_e2_13","PEARL         ",0,3,990.319564,177.20997,"Include",242
"SD2014_e2","SD2014_e2_13","MANURE        ",1,6,675.657722,124.499365,"Include",243
"SD2014_e2","SD2014_e2_13","RAG           ",1,4,920.944877,150.939131,"Include",244
"SD2014_e2","SD2014_e2_13","TEMPER        ",0,6,1049.754711,210.704669,"Include",245
"SD2014_e2","SD2014_e2_13","COLLEAGUE     ",0,3,1539.260687,469.947345,"Include",246
"SD2014_e2","SD2014_e2_13","APPREHENSION  ",0,5,1482.859883,272.580842,"Include",247
"SD2014_e2","SD2014_e2_13","CHAIRMEN      ",0,3,854.311994,327.236733,"Include",248
"SD2014_e2","SD2014_e2_13","NAIL          ",1,6,762.946567,192.021389,"Include",249
"SD2014_e2","SD2014_e2_13","CURB          ",1,3,961.691004,230.073614,"Include",250
"SD2014_e2","SD2014_e2_13","STILLNESS     ",1,4,1126.163975,923.074288,"Include",251
"SD2014_e2","SD2014_e2_13","OUTDOORS      ",0,6,780.125501,176.756928,"Include",252
"SD2014_e2","SD2014_e2_13","LIMB          ",1,3,1202.943728,460.3539,"Include",253
"SD2014_e2","SD2014_e2_13","KNOT          ",0,3,818.087629,788.365381,"Include",254
"SD2014_e2","SD2014_e2_13","DETERRENT     ",1,6,1299.496339,113.06376,"Include",255
"SD2014_e2","SD2014_e2_13","ODYSSEY       ",1,4,1342.319871,161.862639,"Include",256
"SD2014_e2","SD2014_e2_13","SCAR          ",1,3,908.689667,139.376661,"Include",257
"SD2014_e2","SD2014_e2_13","GROOM         ",1,4,1159.03329,154.819388,"Include",258
"SD2014_e2","SD2014_e2_13","EXPECTATION   ",1,3,3557.387656,151.847725,"Include",259
"SD2014_e2","SD2014_e2_13","POTATO        ",1,6,706.799458,154.433281,"Include",260
"SD2014_e2","SD2014_e2_13","CIRCUS        ",1,4,917.201754,579.31931,"Include",261
"SD2014_e2","SD2014_e2_13","GARLAND       ",1,6,1075.72568,154.926752,"Include",262
"SD2014_e2","SD2014_e2_13","STOVE         ",0,3,949.832959,187.185253,"Include",263
"SD2014_e2","SD2014_e2_13","CREEK         ",0,4,11892.14063,447.738566,"Include",264
"SD2014_e2","SD2014_e2_13","SOPHOMORE     ",0,3,1078.016149,197.286112,"Include",265
"SD2014_e2","SD2014_e2_13","CURTAIN       ",1,5,934.102897,323.319302,"Include",266
"SD2014_e2","SD2014_e2_13","MENACE        ",0,3,431.058712,754.99711,"Include",267
"SD2014_e2","SD2014_e2_13","SUPERSTITION  ",1,6,955.344078,167.870375,"Include",268
"SD2014_e2","SD2014_e2_13","ATLAS         ",0,3,6441.79652,956.656473,"Include",269
"SD2014_e2","SD2014_e2_13","WITCH         ",1,6,668.208974,149.325346,"Include",270
"SD2014_e2","SD2014_e2_13","TYPEWRITER    ",0,3,1216.132062,185.599758,"Include",271
"SD2014_e2","SD2014_e2_13","GRAVITY       ",0,6,3770.927731,771.718304,"Include",272
"SD2014_e2","SD2014_e2_13","DISGUISE      ",0,4,3179.213637,205.749329,"Include",273
"SD2014_e2","SD2014_e2_13","DRAINAGE      ",0,3,942.455591,115.719128,"Include",274
"SD2014_e2","SD2014_e2_13","PIG           ",0,6,824.163013,826.568636,"Include",275
"SD2014_e2","SD2014_e2_13","MINERAL       ",0,4,703.981567,191.395991,"Include",276
"SD2014_e2","SD2014_e2_13","REEF          ",0,4,880.939497,209.095735,"Include",277
"SD2014_e2","SD2014_e2_13","MUSKET        ",1,3,610.017203,661.710159,"Include",278
"SD2014_e2","SD2014_e2_13","NITROGEN      ",0,3,970.57765,118.286025,"Include",279
"SD2014_e2","SD2014_e2_13","CANE          ",1,6,642.790245,149.143932,"Include",280
"SD2014_e2","SD2014_e2_13","FAIRNESS      ",1,3,1080.206231,127.606318,"Include",281
"SD2014_e2","SD2014_e2_13","ASH           ",1,4,1723.932872,166.475482,"Include",282
"SD2014_e2","SD2014_e2_13","MIST          ",1,3,4328.676958,168.863714,"Include",283
"SD2014_e2","SD2014_e2_13","DIVERSITY     ",1,6,779.149398,191.682292,"Include",284
"SD2014_e2","SD2014_e2_13","RIFLEMEN      ",1,3,841.200359,170.973259,"Include",285
"SD2014_e2","SD2014_e2_13","OYSTER        ",1,6,965.063153,97.579475,"Include",286
"SD2014_e2","SD2014_e2_13","EROSION       ",1,5,1126.817321,251.724293,"Include",287
"SD2014_e2","SD2014_e2_13","BETRAYAL      ",0,1,1618.423614,433.999548,"Include",288
"SD2014_e2","SD2014_e2_13","DISCOMFORT    ",1,3,1104.497252,342.269266,"Include",289
"SD2014_e2","SD2014_e2_13","RAT           ",0,6,1089.074639,631.675609,"Include",290
"SD2014_e2","SD2014_e2_13","COLORADO      ",0,1,1181.963109,201.004688,"Include",291
"SD2014_e2","SD2014_e2_13","SUPPRESSION   ",0,2,1801.586206,313.17581,"Include",292
"SD2014_e2","SD2014_e2_13","GLUE          ",0,1,1093.673299,276.080441,"Include",293
"SD2014_e2","SD2014_e2_13","ESCORT        ",0,4,1063.599291,175.544635,"Include",294
"SD2014_e2","SD2014_e2_13","TENOR         ",0,5,1073.743448,193.229521,"Include",295
"SD2014_e2","SD2014_e2_13","FIREPLACE     ",1,6,978.616727,166.315886,"Include",296
"SD2014_e2","SD2014_e2_13","HYPOCRISY     ",0,3,1008.594555,250.808324,"Include",297
"SD2014_e2","SD2014_e2_13","HARVEST       ",1,3,2577.290995,134.407404,"Include",298
"SD2014_e2","SD2014_e2_13","RESONANCE     ",1,3,13577.44949,114.434018,"Include",299
"SD2014_e2","SD2014_e2_13","LENS          ",1,3,646.95284,145.387172,"Include",300
"SD2014_e2","SD2014_e2_13","KIDNEY        ",1,5,1029.262491,350.649537,"Include",301
"SD2014_e2","SD2014_e2_13","NOVELTY       ",1,6,672.785582,393.66753,"Include",302
"SD2014_e2","SD2014_e2_13","REMINDER      ",0,5,9378.034676,284.097145,"Include",303
"SD2014_e2","SD2014_e2_13","HOMICIDE      ",1,6,881.037454,161.16759,"Include",304
"SD2014_e2","SD2014_e2_13","ALIBI         ",0,4,14963.50348,247.657067,"Include",305
"SD2014_e2","SD2014_e2_13","SHED          ",0,3,542.022118,284.860558,"Include",306
"SD2014_e2","SD2014_e2_13","BRUTALITY     ",0,6,818.023067,356.329669,"Include",307
"SD2014_e2","SD2014_e2_13","MARROW        ",0,5,662.519889,320.210177,"Include",308
"SD2014_e2","SD2014_e2_13","HURRICANE     ",1,3,7699.590975,607.092989,"Include",309
"SD2014_e2","SD2014_e2_13","TERRACE       ",1,5,8637.798528,248.189159,"Include",310
"SD2014_e2","SD2014_e2_13","INVENTOR      ",1,5,894.736811,182.228251,"Include",311
"SD2014_e2","SD2014_e2_13","STABILITY     ",1,2,12839.07513,1440.54474,"Include",312
"SD2014_e2","SD2014_e2_13","INJECTION     ",0,5,10850.36628,267.670003,"Include",313
"SD2014_e2","SD2014_e2_13","COMMENTARY    ",1,4,1489.289831,13549.79229,"Include",314
"SD2014_e2","SD2014_e2_13","FIREMEN       ",1,5,341068.5146,257.493378,"Include",315
"SD2014_e2","SD2014_e2_13","RACKET        ",1,4,608.04309,260.068723,"Include",316
"SD2014_e2","SD2014_e2_13","NUISANCE      ",0,3,778.659724,255.054764,"Include",317
"SD2014_e2","SD2014_e2_13","PENINSULA     ",0,3,309.738787,270.963581,"Include",318
"SD2014_e2","SD2014_e2_13","MEDAL         ",1,2,244.685198,360.897683,"Include",319
"SD2014_e2","SD2014_e2_13","FRANCHISE     ",0,3,418.925757,399.009608,"Include",320
"SD2014_e2","SD2014_e2_13","RECONNAISSANCE",0,1,382.715518,660.468546,"Include",321
"SD2014_e2","SD2014_e2_13","GRATITUDE     ",0,4,913.162619,199.784385,"Include",322
"SD2014_e2","SD2014_e2_13","SCANDAL       ",1,3,512.757622,304.948926,"Include",323
"SD2014_e2","SD2014_e2_13","VENGEANCE     ",1,6,389.387817,386.822144,"Include",324
"SD2014_e2","SD2014_e2_13","HAMLET        ",1,3,899.426863,146.890727,"Include",325
"SD2014_e2","SD2014_e2_13","TENNIS        ",1,6,669.836191,190.752367,"Include",326
"SD2014_e2","SD2014_e2_13","SUSPENSE      ",1,4,584.277346,196.930898,"Include",327
"SD2014_e2","SD2014_e2_13","PATROLMAN     ",0,1,4078.378224,1465.924023,"Include",328
"SD2014_e2","SD2014_e2_13","CAPITALIST    ",0,4,707.303041,250.834776,"Include",329
"SD2014_e2","SD2014_e2_13","BARBECUE      ",1,6,1353.311348,124.230625,"Include",330
"SD2014_e2","SD2014_e2_13","LANDLORD      ",1,6,720.5433,167.186717,"Include",331
"SD2014_e2","SD2014_e2_13","NUT           ",1,6,609.633785,181.514705,"Include",332
"SD2014_e2","SD2014_e2_13","SPY           ",0,3,950.934575,171.370259,"Include",333
"SD2014_e2","SD2014_e2_13","THIEF         ",1,1,701.728664,413.086218,"Include",334
"SD2014_e2","SD2014_e2_13","SEASHORE      ",0,2,349.040292,300.012212,"Include",335
"SD2014_e2","SD2014_e2_13","HUMIDITY      ",0,3,592.52262,453.148895,"Include",336
"SD2014_e2","SD2014_e2_13","MANUSCRIPT    ",0,6,650.704119,420.426374,"Include",337
"SD2014_e2","SD2014_e2_13","JOURNALISM    ",0,5,787.515649,463.522755,"Include",338
"SD2014_e2","SD2014_e2_13","ADVERSARY     ",1,3,565.249264,194.519702,"Include",339
"SD2014_e2","SD2014_e2_13","OPTIMISM      ",0,1,196.204005,434.528261,"Include",340
"SD2014_e2","SD2014_e2_13","CARAVAN       ",0,3,336.849447,144.523069,"Include",341
"SD2014_e2","SD2014_e2_13","REFUGEE       ",1,5,900.398226,506.899221,"Include",342
"SD2014_e2","SD2014_e2_13","HAMPER        ",1,3,438.421894,161.661701,"Include",343
"SD2014_e2","SD2014_e2_13","DIPLOMAT      ",1,6,572.610642,138.038987,"Include",344
"SD2014_e2","SD2014_e2_13","LAGOON        ",1,6,709.732378,109.25068,"Include",345
"SD2014_e2","SD2014_e2_13","COMMOTION     ",1,5,514.427434,226.782155,"Include",346
"SD2014_e2","SD2014_e2_13","GOAT          ",1,6,882.796994,538.953045,"Include",347
"SD2014_e2","SD2014_e2_13","CATALOGUE     ",1,4,564.965813,179.212315,"Include",348
"SD2014_e2","SD2014_e2_13","PIE           ",0,4,1069.330996,236.714958,"Include",349
"SD2014_e2","SD2014_e2_13","CHARITY       ",1,3,795.875431,167.784013,"Include",350
"SD2014_e2","SD2014_e2_13","MARTINI       ",0,5,522.031337,545.567513,"Include",351
"SD2014_e2","SD2014_e2_13","MERCURY       ",0,3,795.599133,231.45148,"Include",352
"SD2014_e2","SD2014_e2_13","CYCLIST       ",1,4,1502.634204,186.760125,"Include",353
"SD2014_e2","SD2014_e2_13","COMPASSION    ",1,4,588.383467,608.965655,"Include",354
"SD2014_e2","SD2014_e2_13","REPRODUCTION  ",0,3,280.110637,178.805478,"Include",355
"SD2014_e2","SD2014_e2_13","EAGLE         ",1,5,316.914316,453.456424,"Include",356
"SD2014_e2","SD2014_e2_13","RECIPE        ",1,3,307.299315,260.307811,"Include",357
"SD2014_e2","SD2014_e2_13","TOMB          ",0,5,403.028088,655.825238,"Include",358
"SD2014_e2","SD2014_e2_13","WAITER        ",1,5,852.482386,173.528936,"Include",359
"SD2014_e2","SD2014_e2_13","CHAP          ",1,6,719.609834,150.342866,"Include",360
"SD2014_e2","SD2014_e2_13","THRIFT        ",0,4,1057.471534,129.354447,"Include",361
"SD2014_e2","SD2014_e2_13","BUGGY         ",1,6,725.827938,132.553956,"Include",362
"SD2014_e2","SD2014_e2_13","MILITIA       ",1,6,640.304597,458.735396,"Include",363
"SD2014_e2","SD2014_e2_13","NEUROSIS      ",0,3,864.459807,121.364095,"Include",364
"SD2014_e2","SD2014_e2_13","ECSTASY       ",0,3,1213.874644,511.144667,"Include",365
"SD2014_e2","SD2014_e2_13","PHYSICIAN     ",0,6,546.600457,281.480902,"Include",366
"SD2014_e2","SD2014_e2_13","RETENTION     ",0,4,1390.54107,655.937825,"Include",367
"SD2014_e2","SD2014_e2_13","FUSE          ",0,4,604.648637,416.805219,"Include",368
"SD2014_e2","SD2014_e2_13","FUTILITY      ",0,4,695.920462,175.923003,"Include",369
"SD2014_e2","SD2014_e2_13","TACT          ",0,6,722.22599,145.115701,"Include",370
"SD2014_e2","SD2014_e2_13","POKER         ",1,3,332.741571,332.44286,"Include",371
"SD2014_e2","SD2014_e2_13","ALBUM         ",1,4,383.306354,228.989822,"Include",372
"SD2014_e2","SD2014_e2_13","WALNUT        ",0,3,412.85787,1225.616716,"Include",373
"SD2014_e2","SD2014_e2_13","LIBRARIAN     ",1,6,909.399045,132.135303,"Include",374
"SD2014_e2","SD2014_e2_13","SPOON         ",1,4,1159.745784,259.456236,"Include",375
"SD2014_e2","SD2014_e2_13","PAD           ",0,4,434.017186,485.272826,"Include",376
"SD2014_e2","SD2014_e2_13","SPECTATOR     ",1,4,153.533567,225.491428,"Include",377
"SD2014_e2","SD2014_e2_13","CHOIR         ",0,4,633.323659,187.731201,"Include",378
"SD2014_e2","SD2014_e2_13","CORTEX        ",0,4,773.324811,177.953117,"Include",379
"SD2014_e2","SD2014_e2_13","HASTE         ",0,4,1004.04361,206.354261,"Include",380
"SD2014_e2","SD2014_e2_13","MERCHANDISE   ",1,6,495.009113,216.207499,"Include",381
"SD2014_e2","SD2014_e2_13","CHEF          ",1,6,512.315405,120.586698,"Include",382
"SD2014_e2","SD2014_e2_13","PERSUASION    ",0,4,644.945987,167.433872,"Include",383
"SD2014_e2","SD2014_e2_13","IRRATIONAL    ",0,3,601.707602,453.775063,"Include",384
"SD2014_e2","SD2014_e2_13","APPLE         ",1,3,715.297368,466.717031,"Include",385
"SD2014_e2","SD2014_e2_13","CAPER         ",1,6,855.634819,440.577701,"Include",386
"SD2014_e2","SD2014_e2_13","MOMENTUM      ",0,3,967.053175,434.781094,"Include",387
"SD2014_e2","SD2014_e2_13","DYNAMITE      ",0,3,689.276414,153.400101,"Include",388
"SD2014_e2","SD2014_e2_13","GROVE         ",0,3,388.512639,233.798445,"Include",389
"SD2014_e2","SD2014_e2_13","MEMBRANE      ",0,4,457.174801,187.907452,"Include",390
