"exp","id","item","isold","rating","RT_ON","RT_CONF","excluding","trial"
"SD2014_e1","SD2014_e1_1","FOLIAGE       ",0,5,4050.398249,2995.181409,"Include",1
"SD2014_e1","SD2014_e1_1","PATCH         ",0,1,1777.593993,1505.176102,"Include",2
"SD2014_e1","SD2014_e1_1","SUPERSTITION  ",0,3,2584.453355,1501.553865,"Include",3
"SD2014_e1","SD2014_e1_1","POULTRY       ",0,1,1669.437553,778.90001,"Include",4
"SD2014_e1","SD2014_e1_1","OX            ",0,1,2458.490039,1020.758143,"Include",5
"SD2014_e1","SD2014_e1_1","FIREPLACE     ",1,5,4648.015101,1273.690376,"Include",6
"SD2014_e1","SD2014_e1_1","GRUDGE        ",0,5,1387.064688,724.517319,"Include",7
"SD2014_e1","SD2014_e1_1","FERTILITY     ",1,6,1654.294783,771.821696,"Include",8
"SD2014_e1","SD2014_e1_1","ORATOR        ",1,5,1715.295707,942.770256,"Include",9
"SD2014_e1","SD2014_e1_1","DICE          ",0,1,1951.155129,880.095864,"Include",10
"SD2014_e1","SD2014_e1_1","PIGMENT       ",0,1,1051.313098,715.420746,"Include",11
"SD2014_e1","SD2014_e1_1","SPOON         ",1,1,1109.971948,819.792715,"Include",12
"SD2014_e1","SD2014_e1_1","NOMENCLATURE  ",0,1,3009.226973,515.022301,"Include",13
"SD2014_e1","SD2014_e1_1","APPREHENSION  ",0,1,1397.657652,511.102851,"Include",14
"SD2014_e1","SD2014_e1_1","SUNSET        ",1,6,1194.64647,860.68683,"Include",15
"SD2014_e1","SD2014_e1_1","CHOIR         ",1,6,1104.742401,326.533637,"Include",16
"SD2014_e1","SD2014_e1_1","IDOL          ",0,1,1467.640535,1018.037041,"Include",17
"SD2014_e1","SD2014_e1_1","TAPESTRY      ",1,6,998.705681,385.728494,"Include",18
"SD2014_e1","SD2014_e1_1","SHRINE        ",0,2,1482.255785,448.011146,"Include",19
"SD2014_e1","SD2014_e1_1","CHURCHYARD    ",1,6,1638.093372,420.503929,"Include",20
"SD2014_e1","SD2014_e1_1","DELICACY      ",1,6,1035.57636,996.406268,"Include",21
"SD2014_e1","SD2014_e1_1","RECESSION     ",0,1,1130.531997,295.526501,"Include",22
"SD2014_e1","SD2014_e1_1","OVERTURE      ",1,6,1564.651976,814.552171,"Include",23
"SD2014_e1","SD2014_e1_1","DEED          ",0,2,1276.816139,699.34551,"Include",24
"SD2014_e1","SD2014_e1_1","LINGUISTICS   ",0,2,1725.825465,536.526501,"Include",25
"SD2014_e1","SD2014_e1_1","RABBIT        ",1,5,1342.293435,345.872394,"Include",26
"SD2014_e1","SD2014_e1_1","PEPPER        ",0,2,1191.281985,481.393594,"Include",27
"SD2014_e1","SD2014_e1_1","MANHOOD       ",0,2,1382.143391,960.349996,"Include",28
"SD2014_e1","SD2014_e1_1","COPPER        ",0,4,2079.72798,330.965367,"Include",29
"SD2014_e1","SD2014_e1_1","DYNASTY       ",0,2,2045.830802,602.313525,"Include",30
"SD2014_e1","SD2014_e1_1","POTATO        ",0,1,1641.359602,519.6771,"Include",31
"SD2014_e1","SD2014_e1_1","BALLOON       ",0,4,1242.340656,994.360043,"Include",32
"SD2014_e1","SD2014_e1_1","JUNCTION      ",1,5,1232.312327,569.108585,"Include",33
"SD2014_e1","SD2014_e1_1","GEOGRAPHY     ",0,2,2481.44838,578.994423,"Include",34
"SD2014_e1","SD2014_e1_1","SURVEILLANCE  ",1,3,1579.361545,852.643566,"Include",35
"SD2014_e1","SD2014_e1_1","PUPPET        ",0,3,1216.450971,658.117774,"Include",36
"SD2014_e1","SD2014_e1_1","DRAINAGE      ",1,5,2366.797148,581.410976,"Include",37
"SD2014_e1","SD2014_e1_1","EXECUTION     ",1,2,1277.840234,468.396016,"Include",38
"SD2014_e1","SD2014_e1_1","DYNAMITE      ",1,3,1105.3186,2775.071794,"Include",39
"SD2014_e1","SD2014_e1_1","LIVELIHOOD    ",1,3,1238.309874,590.317985,"Include",40
"SD2014_e1","SD2014_e1_1","NURSERY       ",1,1,1197.983235,592.270947,"Include",41
"SD2014_e1","SD2014_e1_1","MOBILITY      ",1,4,1464.011098,710.31241,"Include",42
"SD2014_e1","SD2014_e1_1","DIAGRAM       ",1,2,1224.946036,1121.654845,"Include",43
"SD2014_e1","SD2014_e1_1","TUB           ",1,4,961.870523,1638.192876,"Include",44
"SD2014_e1","SD2014_e1_1","HARDWARE      ",0,4,1007.571959,673.803484,"Include",45
"SD2014_e1","SD2014_e1_1","TRUMPET       ",0,5,1893.96181,1113.047347,"Include",46
"SD2014_e1","SD2014_e1_1","TARIFF        ",0,1,1433.942126,361.882709,"Include",47
"SD2014_e1","SD2014_e1_1","FUSION        ",1,5,932.021669,730.044606,"Include",48
"SD2014_e1","SD2014_e1_1","BEE           ",1,6,1179.697783,630.744144,"Include",49
"SD2014_e1","SD2014_e1_1","TENNIS        ",0,2,1805.005288,571.912843,"Include",50
"SD2014_e1","SD2014_e1_1","INFECTION     ",0,3,1916.331625,526.919698,"Include",51
"SD2014_e1","SD2014_e1_1","BARGE         ",1,6,1404.4672,381.08913,"Include",52
"SD2014_e1","SD2014_e1_1","MONOTONY      ",1,2,1357.546004,752.523293,"Include",53
"SD2014_e1","SD2014_e1_1","CHAPLAIN      ",0,2,1520.90469,476.308012,"Include",54
"SD2014_e1","SD2014_e1_1","BRUTALITY     ",1,2,1289.029186,782.916326,"Include",55
"SD2014_e1","SD2014_e1_1","GLOOM         ",1,5,758.02121,1155.142522,"Include",56
"SD2014_e1","SD2014_e1_1","POLLEN        ",1,5,2625.721531,564.688558,"Include",57
"SD2014_e1","SD2014_e1_1","SANITATION    ",0,1,1757.931763,1022.974587,"Include",58
"SD2014_e1","SD2014_e1_1","VIBRATION     ",0,2,1243.604195,435.594358,"Include",59
"SD2014_e1","SD2014_e1_1","COURTYARD     ",1,6,1057.894444,546.020294,"Include",60
"SD2014_e1","SD2014_e1_1","GUARDIAN      ",0,2,1355.90737,446.731295,"Include",61
"SD2014_e1","SD2014_e1_1","RELAXATION    ",0,1,1933.216932,262.894532,"Include",62
"SD2014_e1","SD2014_e1_1","ELBOW         ",0,2,1165.344936,400.967468,"Include",63
"SD2014_e1","SD2014_e1_1","PROBATION     ",1,1,1216.916462,274.329787,"Include",64
"SD2014_e1","SD2014_e1_1","FRESCO        ",0,1,1128.15107,213.215711,"Include",65
"SD2014_e1","SD2014_e1_1","JUG           ",1,4,1429.696819,317.635722,"Include",66
"SD2014_e1","SD2014_e1_1","CERAMIC       ",0,2,1376.281531,898.356425,"Include",67
"SD2014_e1","SD2014_e1_1","LIBRARIAN     ",0,1,1140.655954,185.244852,"Include",68
"SD2014_e1","SD2014_e1_1","PROSECUTOR    ",0,1,1122.489566,175.783352,"Include",69
"SD2014_e1","SD2014_e1_1","FRAGRANCE     ",1,5,1233.982835,1210.608749,"Include",70
"SD2014_e1","SD2014_e1_1","MINERAL       ",0,2,1526.945614,346.601866,"Include",71
"SD2014_e1","SD2014_e1_1","MONKEY        ",1,6,981.166814,472.968033,"Include",72
"SD2014_e1","SD2014_e1_1","BULB          ",1,6,1070.002604,605.373133,"Include",73
"SD2014_e1","SD2014_e1_1","CATHARSIS     ",0,1,2132.281231,397.379828,"Include",74
"SD2014_e1","SD2014_e1_1","MARTYR        ",1,5,1437.880423,924.890716,"Include",75
"SD2014_e1","SD2014_e1_1","BRANDY        ",0,5,1134.130716,739.21238,"Include",76
"SD2014_e1","SD2014_e1_1","STABILITY     ",0,5,1596.221256,516.640697,"Include",77
"SD2014_e1","SD2014_e1_1","BLIZZARD      ",1,6,1575.521994,448.633493,"Include",78
"SD2014_e1","SD2014_e1_1","MANSION       ",0,4,1142.14247,1498.787293,"Include",79
"SD2014_e1","SD2014_e1_1","SYNTAX        ",1,2,1298.591131,560.263181,"Include",80
"SD2014_e1","SD2014_e1_1","FAIRWAY       ",0,2,1433.383244,361.350866,"Include",81
"SD2014_e1","SD2014_e1_1","PEDESTRIAN    ",1,6,1203.451399,428.935325,"Include",82
"SD2014_e1","SD2014_e1_1","MAPLE         ",0,2,1380.02831,549.981579,"Include",83
"SD2014_e1","SD2014_e1_1","SUBSISTENCE   ",0,5,2039.288164,427.934343,"Include",84
"SD2014_e1","SD2014_e1_1","WHEAT         ",1,6,1026.84691,1836.705042,"Include",85
"SD2014_e1","SD2014_e1_1","ABDOMEN       ",1,5,861.771155,326.659151,"Include",86
"SD2014_e1","SD2014_e1_1","EDUCATOR      ",0,2,1050.149889,339.014824,"Include",87
"SD2014_e1","SD2014_e1_1","ATTRITION     ",1,1,1421.715315,245.561326,"Include",88
"SD2014_e1","SD2014_e1_1","VINEGAR       ",0,1,1108.929931,234.680708,"Include",89
"SD2014_e1","SD2014_e1_1","DRIVEWAY      ",1,3,1050.075165,226.788881,"Include",90
"SD2014_e1","SD2014_e1_1","EDEN          ",0,2,2050.771263,503.407543,"Include",91
"SD2014_e1","SD2014_e1_1","CRUELTY       ",0,1,1274.937529,257.298007,"Include",92
"SD2014_e1","SD2014_e1_1","ASSETS        ",0,1,863.961104,184.867523,"Include",93
"SD2014_e1","SD2014_e1_1","GUERRILLA     ",1,5,1170.027684,525.02633,"Include",94
"SD2014_e1","SD2014_e1_1","STEREOTYPE    ",1,5,831.653946,218.231514,"Include",95
"SD2014_e1","SD2014_e1_1","ACTRESS       ",0,5,1737.986163,235.964616,"Include",96
"SD2014_e1","SD2014_e1_1","BREEZE        ",0,6,1267.203377,386.529434,"Include",97
"SD2014_e1","SD2014_e1_1","BOULDER       ",1,6,1642.893912,385.21582,"Include",98
"SD2014_e1","SD2014_e1_1","CALIBRATION   ",0,1,1857.897512,318.606795,"Include",99
"SD2014_e1","SD2014_e1_1","HUNCH         ",1,5,986.166882,469.11846,"Include",100
"SD2014_e1","SD2014_e1_1","OBSESSION     ",1,5,1170.119519,212.98805,"Include",101
"SD2014_e1","SD2014_e1_1","MORTALITY     ",0,5,1293.648576,187.366408,"Include",102
"SD2014_e1","SD2014_e1_1","SYMMETRY      ",0,1,1908.759753,239.478272,"Include",103
"SD2014_e1","SD2014_e1_1","CHARITY       ",0,5,814.682683,241.662632,"Include",104
"SD2014_e1","SD2014_e1_1","FROST         ",0,2,873.047305,256.997067,"Include",105
"SD2014_e1","SD2014_e1_1","BUFFET        ",1,6,895.674056,622.927131,"Include",106
"SD2014_e1","SD2014_e1_1","CANADIAN      ",0,2,1773.323403,653.757229,"Include",107
"SD2014_e1","SD2014_e1_1","TROLLEY       ",1,2,1282.697654,217.117181,"Include",108
"SD2014_e1","SD2014_e1_1","ESTEEM        ",0,2,905.144005,239.506767,"Include",109
"SD2014_e1","SD2014_e1_1","PROVERB       ",1,5,878.770294,255.146593,"Include",110
"SD2014_e1","SD2014_e1_1","BRACE         ",0,4,1229.588903,1046.33003,"Include",111
"SD2014_e1","SD2014_e1_1","LAMB          ",0,2,1258.206323,289.351583,"Include",112
"SD2014_e1","SD2014_e1_1","FOE           ",0,1,1350.392492,217.980178,"Include",113
"SD2014_e1","SD2014_e1_1","MOSS          ",1,5,1025.905134,259.320476,"Include",114
"SD2014_e1","SD2014_e1_1","WOE           ",1,1,881.903097,498.132594,"Include",115
"SD2014_e1","SD2014_e1_1","FOX           ",1,1,798.260542,202.211288,"Include",116
"SD2014_e1","SD2014_e1_1","INSPECTOR     ",0,2,1042.900753,323.646607,"Include",117
"SD2014_e1","SD2014_e1_1","CONTEMPT      ",0,2,695.226548,255.537743,"Include",118
"SD2014_e1","SD2014_e1_1","FAIRNESS      ",1,5,814.01221,185.046224,"Include",119
"SD2014_e1","SD2014_e1_1","BUBBLE        ",1,5,1698.792735,222.738029,"Include",120
"SD2014_e1","SD2014_e1_1","SAX           ",1,1,1398.684662,240.012684,"Include",121
"SD2014_e1","SD2014_e1_1","COIN          ",0,2,743.178792,365.327156,"Include",122
"SD2014_e1","SD2014_e1_1","DIALECT       ",1,2,806.575995,401.886422,"Include",123
"SD2014_e1","SD2014_e1_1","SUBWAY        ",0,5,673.462006,210.665199,"Include",124
"SD2014_e1","SD2014_e1_1","PYTHON        ",1,2,1155.36539,799.030488,"Include",125
"SD2014_e1","SD2014_e1_1","LOCKER        ",0,2,805.818848,289.029407,"Include",126
"SD2014_e1","SD2014_e1_1","WARRIOR       ",0,2,1694.020973,314.18059,"Include",127
"SD2014_e1","SD2014_e1_1","DEPENDENCE    ",0,2,1205.729576,286.886847,"Include",128
"SD2014_e1","SD2014_e1_1","HYSTERIA      ",1,4,2132.060316,821.158779,"Include",129
"SD2014_e1","SD2014_e1_1","DESSERT       ",1,1,3514.462467,1206.154734,"Include",130
"SD2014_e1","SD2014_e1_1","ADVENTURE     ",1,3,1314.684728,343.481345,"Include",131
"SD2014_e1","SD2014_e1_1","DAYLIGHT      ",1,3,3042.383351,282.815277,"Include",132
"SD2014_e1","SD2014_e1_1","EMPLOYER      ",1,2,1199.635822,345.907663,"Include",133
"SD2014_e1","SD2014_e1_1","STARVATION    ",0,3,1756.845504,174.062218,"Include",134
"SD2014_e1","SD2014_e1_1","BERRY         ",1,5,735.958827,582.151926,"Include",135
"SD2014_e1","SD2014_e1_1","REPRESSION    ",0,5,893.90851,269.116429,"Include",136
"SD2014_e1","SD2014_e1_1","PLEA          ",0,1,1090.87725,201.820471,"Include",137
"SD2014_e1","SD2014_e1_1","SUMMIT        ",1,4,714.336923,641.826484,"Include",138
"SD2014_e1","SD2014_e1_1","GRUMBLE       ",1,4,711.490546,511.043043,"Include",139
"SD2014_e1","SD2014_e1_1","HAMPER        ",1,5,1218.290478,1211.086495,"Include",140
"SD2014_e1","SD2014_e1_1","HIERARCHY     ",0,3,1959.683946,1655.844885,"Include",141
"SD2014_e1","SD2014_e1_1","CHEESE        ",1,3,1256.521187,799.741588,"Include",142
"SD2014_e1","SD2014_e1_1","SICKNESS      ",1,3,701.898116,301.44553,"Include",143
"SD2014_e1","SD2014_e1_1","BOURBON       ",1,1,3073.581489,193.113292,"Include",144
"SD2014_e1","SD2014_e1_1","FIGHTER       ",0,3,2938.707093,184.297893,"Include",145
"SD2014_e1","SD2014_e1_1","TEMPTATION    ",0,5,721.648365,480.561869,"Include",146
"SD2014_e1","SD2014_e1_1","SHOE          ",1,1,1045.36548,478.20578,"Include",147
"SD2014_e1","SD2014_e1_1","FRAGMENT      ",1,4,875.068391,355.360533,"Include",148
"SD2014_e1","SD2014_e1_1","SANCTUARY     ",1,5,1421.344589,837.296157,"Include",149
"SD2014_e1","SD2014_e1_1","MISTRESS      ",0,3,1170.079473,300.715283,"Include",150
"SD2014_e1","SD2014_e1_1","SCRATCH       ",0,3,872.951257,185.258463,"Include",151
"SD2014_e1","SD2014_e1_1","TANK          ",0,1,3970.718338,378.611972,"Include",152
"SD2014_e1","SD2014_e1_1","ADVISER       ",1,1,915.900969,218.572541,"Include",153
"SD2014_e1","SD2014_e1_1","LITIGATION    ",1,1,1762.590974,523.682463,"Include",154
"SD2014_e1","SD2014_e1_1","FACTION       ",0,5,766.432705,387.063393,"Include",155
"SD2014_e1","SD2014_e1_1","PERFECTION    ",1,5,867.43122,315.769157,"Include",156
"SD2014_e1","SD2014_e1_1","CORRECTION    ",1,5,3247.438236,214.843847,"Include",157
"SD2014_e1","SD2014_e1_1","DISTURBANCE   ",1,5,814.816756,201.933401,"Include",158
"SD2014_e1","SD2014_e1_1","REVOLT        ",0,5,706.669083,186.156031,"Include",159
"SD2014_e1","SD2014_e1_1","ESCORT        ",0,6,1939.600586,508.41263,"Include",160
"SD2014_e1","SD2014_e1_1","DEER          ",0,6,1528.090158,171.46449,"Include",161
"SD2014_e1","SD2014_e1_1","MAST          ",0,1,725.698292,364.49303,"Include",162
"SD2014_e1","SD2014_e1_1","ABANDONMENT   ",1,5,1333.86507,330.125969,"Include",163
"SD2014_e1","SD2014_e1_1","SUPPRESSION   ",1,5,1213.585183,183.120533,"Include",164
"SD2014_e1","SD2014_e1_1","CHORE         ",1,6,3248.52466,367.959519,"Include",165
"SD2014_e1","SD2014_e1_1","CREATOR       ",1,4,1393.394105,226.733912,"Include",166
"SD2014_e1","SD2014_e1_1","DISGUISE      ",0,3,1074.510375,169.960527,"Include",167
"SD2014_e1","SD2014_e1_1","TENURE        ",1,5,948.24832,409.384337,"Include",168
"SD2014_e1","SD2014_e1_1","HICKORY       ",1,1,1321.08564,965.499707,"Include",169
"SD2014_e1","SD2014_e1_1","BETTING       ",1,1,956.918446,217.696083,"Include",170
"SD2014_e1","SD2014_e1_1","REVELATION    ",0,1,873.619174,201.626952,"Include",171
"SD2014_e1","SD2014_e1_1","COINCIDENCE   ",0,1,714.33695,226.070236,"Include",172
"SD2014_e1","SD2014_e1_1","GAUGE         ",1,5,985.797622,165.120465,"Include",173
"SD2014_e1","SD2014_e1_1","GOSSIP        ",1,4,679.014534,672.130038,"Include",174
"SD2014_e1","SD2014_e1_1","CITATION      ",0,4,1108.217398,290.175422,"Include",175
"SD2014_e1","SD2014_e1_1","ANTISEPTIC    ",0,5,1359.168421,209.964356,"Include",176
"SD2014_e1","SD2014_e1_1","QUAKER        ",0,5,906.684856,217.302646,"Include",177
"SD2014_e1","SD2014_e1_1","HEAP          ",1,5,2297.303316,386.861448,"Include",178
"SD2014_e1","SD2014_e1_1","APRON         ",1,5,1539.498853,782.037181,"Include",179
"SD2014_e1","SD2014_e1_1","DESOLATION    ",0,3,2165.632338,605.149903,"Include",180
"SD2014_e1","SD2014_e1_1","FLASHLIGHT    ",1,5,916.196486,195.01678,"Include",181
"SD2014_e1","SD2014_e1_1","AUDITORIUM    ",0,1,1244.316885,356.245451,"Include",182
"SD2014_e1","SD2014_e1_1","TYRANNY       ",1,5,854.392615,263.308211,"Include",183
"SD2014_e1","SD2014_e1_1","INN           ",1,2,1493.739965,1122.701528,"Include",184
"SD2014_e1","SD2014_e1_1","DEPOSIT       ",0,3,2698.715917,242.750865,"Include",185
"SD2014_e1","SD2014_e1_1","COLLEAGUE     ",1,3,1729.879212,276.519716,"Include",186
"SD2014_e1","SD2014_e1_1","CARDINAL      ",0,3,698.252571,154.436133,"Include",187
"SD2014_e1","SD2014_e1_1","AGGRESSION    ",1,5,1437.472388,396.668217,"Include",188
"SD2014_e1","SD2014_e1_1","SINNER        ",1,5,821.115126,231.659851,"Include",189
"SD2014_e1","SD2014_e1_1","SNACK         ",1,4,1262.786739,638.032799,"Include",190
"SD2014_e1","SD2014_e1_1","JOCKEY        ",1,3,1971.53075,306.977287,"Include",191
"SD2014_e1","SD2014_e1_1","COCONUT       ",0,2,847.547273,425.046419,"Include",192
"SD2014_e1","SD2014_e1_1","MOONLIGHT     ",0,2,736.149518,206.100155,"Include",193
"SD2014_e1","SD2014_e1_1","PICNIC        ",0,3,878.985303,239.18104,"Include",194
"SD2014_e1","SD2014_e1_1","SIGNATURE     ",1,3,822.311273,184.764075,"Include",195
"SD2014_e1","SD2014_e1_1","CANDIDACY     ",0,3,826.197361,236.690361,"Include",196
"SD2014_e1","SD2014_e1_1","ANARCHY       ",1,3,828.339093,238.166649,"Include",197
"SD2014_e1","SD2014_e1_1","ALUMNI        ",0,2,1773.41046,453.847755,"Include",198
"SD2014_e1","SD2014_e1_1","ADOPTION      ",1,4,763.365599,968.726564,"Include",199
"SD2014_e1","SD2014_e1_1","JUNK          ",0,2,1047.614769,360.475492,"Include",200
"SD2014_e1","SD2014_e1_1","POP           ",0,1,1661.546634,386.27353,"Include",201
"SD2014_e1","SD2014_e1_1","CAVITY        ",0,5,1362.934236,317.684664,"Include",202
"SD2014_e1","SD2014_e1_1","GRAVEYARD     ",1,6,1792.502581,191.405749,"Include",203
"SD2014_e1","SD2014_e1_1","EXCLUSION     ",1,6,1088.965826,207.616625,"Include",204
"SD2014_e1","SD2014_e1_1","CAFETERIA     ",0,5,1000.175779,290.471919,"Include",205
"SD2014_e1","SD2014_e1_1","ENCLOSURE     ",1,6,703.514075,182.972404,"Include",206
"SD2014_e1","SD2014_e1_1","LANDLORD      ",0,5,1140.669332,640.889527,"Include",207
"SD2014_e1","SD2014_e1_1","CARTRIDGE     ",1,6,1038.5099,135.308525,"Include",208
"SD2014_e1","SD2014_e1_1","COMPOST       ",0,1,1298.959695,256.634263,"Include",209
"SD2014_e1","SD2014_e1_1","WAIST         ",0,4,1399.137968,240.580506,"Include",210
"SD2014_e1","SD2014_e1_1","KNOT          ",1,6,1015.858652,554.086675,"Include",211
"SD2014_e1","SD2014_e1_1","JUPITER       ",1,6,1035.292781,156.087416,"Include",212
"SD2014_e1","SD2014_e1_1","SANDWICH      ",1,6,1583.058608,440.198664,"Include",213
"SD2014_e1","SD2014_e1_1","DECENCY       ",1,3,1334.71442,298.89561,"Include",214
"SD2014_e1","SD2014_e1_1","BLESSING      ",0,2,983.27487,402.998788,"Include",215
"SD2014_e1","SD2014_e1_1","GENE          ",1,6,690.83093,379.023189,"Include",216
"SD2014_e1","SD2014_e1_1","DEMON         ",0,1,1172.490374,439.35161,"Include",217
"SD2014_e1","SD2014_e1_1","INHIBITION    ",1,5,1279.599901,366.235755,"Include",218
"SD2014_e1","SD2014_e1_1","SUSPENSE      ",1,5,983.519585,211.198531,"Include",219
"SD2014_e1","SD2014_e1_1","SEMESTER      ",0,1,1331.881726,240.300153,"Include",220
"SD2014_e1","SD2014_e1_1","MORTAR        ",1,5,807.53665,130.605239,"Include",221
"SD2014_e1","SD2014_e1_1","PITY          ",1,5,1063.335571,823.492205,"Include",222
"SD2014_e1","SD2014_e1_1","PALETTE       ",0,3,1532.96624,216.200679,"Include",223
"SD2014_e1","SD2014_e1_1","CAPILLARY     ",1,6,1008.182608,178.480381,"Include",224
"SD2014_e1","SD2014_e1_1","TREASON       ",1,3,948.807933,218.018352,"Include",225
"SD2014_e1","SD2014_e1_1","BANKER        ",0,2,985.976594,229.213599,"Include",226
"SD2014_e1","SD2014_e1_1","COMPUTER      ",0,2,804.867865,240.167422,"Include",227
"SD2014_e1","SD2014_e1_1","RESORT        ",1,6,2284.250532,222.356911,"Include",228
"SD2014_e1","SD2014_e1_1","HERB          ",0,4,2622.442615,497.93093,"Include",229
"SD2014_e1","SD2014_e1_1","PHARMACY      ",1,3,1134.181497,179.210133,"Include",230
"SD2014_e1","SD2014_e1_1","GRAVITY       ",1,5,1213.489033,342.91085,"Include",231
"SD2014_e1","SD2014_e1_1","CALCULATION   ",0,5,889.696194,233.053327,"Include",232
"SD2014_e1","SD2014_e1_1","EQUALITY      ",0,3,968.310591,380.220861,"Include",233
"SD2014_e1","SD2014_e1_1","DIALYSIS      ",1,6,1349.380498,552.952616,"Include",234
"SD2014_e1","SD2014_e1_1","FISHERMAN     ",0,3,1002.09438,132.482456,"Include",235
"SD2014_e1","SD2014_e1_1","CHEF          ",0,4,908.916819,267.597565,"Include",236
"SD2014_e1","SD2014_e1_1","PULP          ",0,5,1081.290877,200.787414,"Include",237
"SD2014_e1","SD2014_e1_1","ROBBERY       ",0,3,921.408806,183.380092,"Include",238
"SD2014_e1","SD2014_e1_1","CIGAR         ",1,6,736.734604,871.07467,"Include",239
"SD2014_e1","SD2014_e1_1","WILDERNESS    ",0,4,1082.026033,385.49826,"Include",240
"SD2014_e1","SD2014_e1_1","NEUROSIS      ",1,5,817.980706,236.53419,"Include",241
"SD2014_e1","SD2014_e1_1","RESERVATION   ",1,3,1091.875462,178.315275,"Include",242
"SD2014_e1","SD2014_e1_1","CALCIUM       ",0,1,1084.617838,267.153467,"Include",243
"SD2014_e1","SD2014_e1_1","DRIZZLE       ",0,3,1096.82525,215.436432,"Include",244
"SD2014_e1","SD2014_e1_1","FRANCHISE     ",0,5,719.437218,166.166975,"Include",245
"SD2014_e1","SD2014_e1_1","ZEAL          ",1,6,1168.420823,227.437795,"Include",246
"SD2014_e1","SD2014_e1_1","PUMP          ",1,3,947.35528,168.513554,"Include",247
"SD2014_e1","SD2014_e1_1","ALGAE         ",0,3,1986.780459,146.221012,"Include",248
"SD2014_e1","SD2014_e1_1","REED          ",0,4,941.814458,267.029034,"Include",249
"SD2014_e1","SD2014_e1_1","EPIDEMIC      ",0,4,968.893766,300.588319,"Include",250
"SD2014_e1","SD2014_e1_1","DIVERSITY     ",1,4,1072.947307,256.190734,"Include",251
"SD2014_e1","SD2014_e1_1","ENACTMENT     ",1,3,846.651084,192.342369,"Include",252
"SD2014_e1","SD2014_e1_1","SINCERITY     ",0,3,977.772663,253.585685,"Include",253
"SD2014_e1","SD2014_e1_1","TECHNICIAN    ",0,3,876.089697,196.33528,"Include",254
"SD2014_e1","SD2014_e1_1","ONION         ",1,3,4077.72813,1729.247122,"Include",255
"SD2014_e1","SD2014_e1_1","VISA          ",0,3,862.801398,191.667663,"Include",256
"SD2014_e1","SD2014_e1_1","BASIN         ",1,5,737.071785,359.289972,"Include",257
"SD2014_e1","SD2014_e1_1","COIL          ",0,1,1297.197947,215.04577,"Include",258
"SD2014_e1","SD2014_e1_1","SLATE         ",0,1,982.938981,586.557978,"Include",259
"SD2014_e1","SD2014_e1_1","HABITAT       ",1,5,666.478991,291.653347,"Include",260
"SD2014_e1","SD2014_e1_1","MERCHANDISE   ",1,5,688.608592,160.840588,"Include",261
"SD2014_e1","SD2014_e1_1","DETECTION     ",1,3,1115.725328,665.551846,"Include",262
"SD2014_e1","SD2014_e1_1","SLIT          ",1,5,966.325145,218.014479,"Include",263
"SD2014_e1","SD2014_e1_1","REMEDY        ",0,3,978.144798,317.893897,"Include",264
"SD2014_e1","SD2014_e1_1","INSOLENCE     ",1,3,1017.439889,186.851781,"Include",265
"SD2014_e1","SD2014_e1_1","DOORWAY       ",0,3,1124.336333,905.494506,"Include",266
"SD2014_e1","SD2014_e1_1","WREATH        ",0,6,1203.373959,196.558695,"Include",267
"SD2014_e1","SD2014_e1_1","VISITOR       ",1,3,733.995788,220.187415,"Include",268
"SD2014_e1","SD2014_e1_1","ASH           ",1,4,812.285488,1039.461868,"Include",269
"SD2014_e1","SD2014_e1_1","INJECTION     ",1,4,1139.247141,319.614005,"Include",270
"SD2014_e1","SD2014_e1_1","RETENTION     ",1,4,1467.533255,241.952904,"Include",271
"SD2014_e1","SD2014_e1_1","VETO          ",1,4,945.241749,230.399795,"Include",272
"SD2014_e1","SD2014_e1_1","COUNTENANCE   ",0,1,1325.793881,202.03176,"Include",273
"SD2014_e1","SD2014_e1_1","CHARCOAL      ",0,1,946.642982,191.965032,"Include",274
"SD2014_e1","SD2014_e1_1","PENTAGON      ",1,3,1009.412538,139.651161,"Include",275
"SD2014_e1","SD2014_e1_1","PLAGUE        ",1,5,919.349277,293.333771,"Include",276
"SD2014_e1","SD2014_e1_1","GRIEF         ",0,6,1122.35604,223.479498,"Include",277
"SD2014_e1","SD2014_e1_1","SOPRANO       ",1,3,983.433067,163.1766,"Include",278
"SD2014_e1","SD2014_e1_1","GRANDSON      ",1,6,1085.965586,188.684664,"Include",279
"SD2014_e1","SD2014_e1_1","STEAK         ",0,3,814.27745,177.237076,"Include",280
"SD2014_e1","SD2014_e1_1","BANKRUPTCY    ",1,5,4891.35372,250.655708,"Include",281
"SD2014_e1","SD2014_e1_1","DOCK          ",0,5,1033.195321,514.781008,"Include",282
"SD2014_e1","SD2014_e1_1","TREASURER     ",1,3,718.187174,277.005567,"Include",283
"SD2014_e1","SD2014_e1_1","LIAISON       ",1,6,2106.710217,372.227308,"Include",284
"SD2014_e1","SD2014_e1_1","FITNESS       ",0,3,789.628814,193.482102,"Include",285
"SD2014_e1","SD2014_e1_1","TRANSACTION   ",1,3,2770.897877,199.83997,"Include",286
"SD2014_e1","SD2014_e1_1","FACADE        ",0,6,1064.672833,232.849815,"Include",287
"SD2014_e1","SD2014_e1_1","PROTOZOA      ",1,6,1343.961047,195.390207,"Include",288
"SD2014_e1","SD2014_e1_1","AIRPLANE      ",0,3,900.855477,171.642113,"Include",289
"SD2014_e1","SD2014_e1_1","TEXAN         ",0,1,1469.775862,491.520026,"Include",290
"SD2014_e1","SD2014_e1_1","MISCHIEF      ",0,1,791.561565,267.470955,"Include",291
"SD2014_e1","SD2014_e1_1","SATIN         ",1,6,721.12654,400.059847,"Include",292
"SD2014_e1","SD2014_e1_1","COURTESY      ",0,3,1247.841837,159.840974,"Include",293
"SD2014_e1","SD2014_e1_1","WRECK         ",0,3,690.713802,539.042256,"Include",294
"SD2014_e1","SD2014_e1_1","SPEAR         ",1,3,700.919285,164.550937,"Include",295
"SD2014_e1","SD2014_e1_1","ARCHBISHOP    ",1,6,1462.801989,277.124745,"Include",296
"SD2014_e1","SD2014_e1_1","BALCONY       ",1,5,754.891866,264.361445,"Include",297
"SD2014_e1","SD2014_e1_1","PRISONER      ",1,5,1382.009245,328.049828,"Include",298
"SD2014_e1","SD2014_e1_1","SHED          ",0,6,1243.576221,795.558289,"Include",299
"SD2014_e1","SD2014_e1_1","GRAVEL        ",1,4,890.6746,297.927725,"Include",300
"SD2014_e1","SD2014_e1_1","CARRIAGE      ",0,4,1134.287518,290.587776,"Include",301
"SD2014_e1","SD2014_e1_1","HELIUM        ",1,5,1175.497714,202.735107,"Include",302
"SD2014_e1","SD2014_e1_1","ARITHMETIC    ",0,4,1091.294396,1161.785212,"Include",303
"SD2014_e1","SD2014_e1_1","PLASMA        ",0,3,1352.499269,179.314472,"Include",304
"SD2014_e1","SD2014_e1_1","SAGA          ",1,3,1125.430827,234.574618,"Include",305
"SD2014_e1","SD2014_e1_1","BEAST         ",1,6,697.715351,346.076419,"Include",306
"SD2014_e1","SD2014_e1_1","ADHERENCE     ",1,4,1413.029178,269.547351,"Include",307
"SD2014_e1","SD2014_e1_1","RIVAL         ",1,4,715.355872,202.889062,"Include",308
"SD2014_e1","SD2014_e1_1","CHANCELLOR    ",1,3,1739.607232,181.428347,"Include",309
"SD2014_e1","SD2014_e1_1","MISFORTUNE    ",0,3,870.910413,199.072183,"Include",310
"SD2014_e1","SD2014_e1_1","PENINSULA     ",0,1,1927.779491,193.497659,"Include",311
"SD2014_e1","SD2014_e1_1","CRIB          ",1,6,1155.002892,230.645595,"Include",312
"SD2014_e1","SD2014_e1_1","TROUSERS      ",0,1,1173.726162,184.733613,"Include",313
"SD2014_e1","SD2014_e1_1","DONOR         ",1,5,786.245583,374.03312,"Include",314
"SD2014_e1","SD2014_e1_1","SHOWER        ",0,5,559.384525,189.716864,"Include",315
"SD2014_e1","SD2014_e1_1","SQUALL        ",1,6,951.072474,211.5559,"Include",316
"SD2014_e1","SD2014_e1_1","COMEDIAN      ",0,1,932.295192,202.258993,"Include",317
"SD2014_e1","SD2014_e1_1","PENALTY       ",1,3,690.757597,163.250517,"Include",318
"SD2014_e1","SD2014_e1_1","RATTLE        ",1,4,918.114721,308.22546,"Include",319
"SD2014_e1","SD2014_e1_1","DISARMAMENT   ",0,3,936.439696,157.610826,"Include",320
"SD2014_e1","SD2014_e1_1","BIOLOGY       ",0,6,1184.522909,194.67933,"Include",321
"SD2014_e1","SD2014_e1_1","VAUDEVILLE    ",1,1,1324.204222,240.380963,"Include",322
"SD2014_e1","SD2014_e1_1","RESTRAINT     ",1,4,759.689435,252.942616,"Include",323
"SD2014_e1","SD2014_e1_1","VENGEANCE     ",0,3,1067.510641,154.880552,"Include",324
"SD2014_e1","SD2014_e1_1","LINEN         ",1,4,1037.812309,646.55884,"Include",325
"SD2014_e1","SD2014_e1_1","CELEBRATION   ",1,3,772.120128,216.719593,"Include",326
"SD2014_e1","SD2014_e1_1","TOMB          ",0,1,1080.818788,1664.037845,"Include",327
"SD2014_e1","SD2014_e1_1","VANITY        ",0,4,976.452911,252.369471,"Include",328
"SD2014_e1","SD2014_e1_1","MONOPOLY      ",1,3,714.899719,162.398746,"Include",329
"SD2014_e1","SD2014_e1_1","ATTRACTION    ",1,4,853.324514,318.242619,"Include",330
"SD2014_e1","SD2014_e1_1","SEASHORE      ",0,1,1169.796591,252.667759,"Include",331
"SD2014_e1","SD2014_e1_1","RAKE          ",0,3,803.321581,702.312749,"Include",332
"SD2014_e1","SD2014_e1_1","NAZI          ",0,1,816.945954,315.272193,"Include",333
"SD2014_e1","SD2014_e1_1","BRAZIL        ",1,1,1046.743243,375.698512,"Include",334
"SD2014_e1","SD2014_e1_1","OBSCURITY     ",1,3,1225.020682,305.716567,"Include",335
"SD2014_e1","SD2014_e1_1","EGO           ",0,3,2165.89014,157.409386,"Include",336
"SD2014_e1","SD2014_e1_1","ROT           ",1,1,832.388921,1482.648267,"Include",337
"SD2014_e1","SD2014_e1_1","CANYON        ",1,3,931.399927,169.328609,"Include",338
"SD2014_e1","SD2014_e1_1","CHERRY        ",1,3,595.62117,200.114173,"Include",339
"SD2014_e1","SD2014_e1_1","SALESMAN      ",0,3,736.946398,135.016419,"Include",340
"SD2014_e1","SD2014_e1_1","DISTRUST      ",1,2,538.770868,353.48299,"Include",341
"SD2014_e1","SD2014_e1_1","POISE         ",1,5,443.790758,455.079602,"Include",342
"SD2014_e1","SD2014_e1_1","AMAZEMENT     ",0,4,964.723418,177.147227,"Include",343
"SD2014_e1","SD2014_e1_1","TROPHY        ",0,6,1043.341732,180.060874,"Include",344
"SD2014_e1","SD2014_e1_1","WART          ",0,1,670.401857,639.325622,"Include",345
"SD2014_e1","SD2014_e1_1","PAROLE        ",1,3,692.886647,261.24277,"Include",346
"SD2014_e1","SD2014_e1_1","POLITICIAN    ",0,3,1035.829861,164.565559,"Include",347
"SD2014_e1","SD2014_e1_1","RAT           ",0,4,990.762906,217.686024,"Include",348
"SD2014_e1","SD2014_e1_1","POLLUTION     ",1,4,929.60757,223.770059,"Include",349
"SD2014_e1","SD2014_e1_1","REEF          ",1,5,959.721192,196.3518,"Include",350
"SD2014_e1","SD2014_e1_1","RECONNAISSANCE",1,1,3413.561414,485.772876,"Include",351
"SD2014_e1","SD2014_e1_1","STAIN         ",1,3,897.904647,185.343726,"Include",352
"SD2014_e1","SD2014_e1_1","COMMONWEALTH  ",0,6,1386.850878,548.147576,"Include",353
"SD2014_e1","SD2014_e1_1","CHUCKLE       ",0,3,806.086281,217.208364,"Include",354
"SD2014_e1","SD2014_e1_1","PACT          ",1,4,721.252116,327.966752,"Include",355
"SD2014_e1","SD2014_e1_1","HANDICAP      ",0,4,747.513194,273.482422,"Include",356
"SD2014_e1","SD2014_e1_1","TENANT        ",0,3,2871.406772,703.848626,"Include",357
"SD2014_e1","SD2014_e1_1","ETERNITY      ",0,2,1410.478986,563.136814,"Include",358
"SD2014_e1","SD2014_e1_1","DEBUT         ",1,2,1596.193207,412.735023,"Include",359
"SD2014_e1","SD2014_e1_1","PROHIBITION   ",1,4,1916.519942,583.099049,"Include",360
"SD2014_e1","SD2014_e1_1","TEMPER        ",0,4,646.87625,217.335094,"Include",361
"SD2014_e1","SD2014_e1_1","EARTHQUAKE    ",1,3,889.27184,136.664623,"Include",362
"SD2014_e1","SD2014_e1_1","UNREST        ",0,4,964.285785,880.942855,"Include",363
"SD2014_e1","SD2014_e1_1","AMBUSH        ",1,5,547.946624,347.155518,"Include",364
"SD2014_e1","SD2014_e1_1","HELPER        ",0,3,661.722062,439.6104,"Include",365
"SD2014_e1","SD2014_e1_1","HONESTY       ",1,5,1134.026739,555.101241,"Include",366
"SD2014_e1","SD2014_e1_1","GUM           ",0,4,756.478539,497.653067,"Include",367
"SD2014_e1","SD2014_e1_1","REGRET        ",1,4,1013.904115,256.15111,"Include",368
"SD2014_e1","SD2014_e1_1","REPRODUCTION  ",1,6,1390.638023,303.926754,"Include",369
"SD2014_e1","SD2014_e1_1","VALIDITY      ",0,5,1012.23697,246.544933,"Include",370
"SD2014_e1","SD2014_e1_1","CRANE         ",0,4,2045.72128,562.263865,"Include",371
"SD2014_e1","SD2014_e1_1","MANIA         ",0,1,1491.385735,592.507801,"Include",372
"SD2014_e1","SD2014_e1_1","HEMORRHAGE    ",0,1,992.233144,163.287587,"Include",373
"SD2014_e1","SD2014_e1_1","DROUGHT       ",0,3,1086.181183,148.750644,"Include",374
"SD2014_e1","SD2014_e1_1","APPETITE      ",1,3,895.693587,199.129539,"Include",375
"SD2014_e1","SD2014_e1_1","GARBAGE       ",1,5,927.831318,205.873771,"Include",376
"SD2014_e1","SD2014_e1_1","GRATITUDE     ",0,5,814.461251,185.517608,"Include",377
"SD2014_e1","SD2014_e1_1","LEGISLATOR    ",0,3,1139.063682,167.420073,"Include",378
"SD2014_e1","SD2014_e1_1","DESPOTISM     ",0,3,2417.607641,222.08488,"Include",379
"SD2014_e1","SD2014_e1_1","MINT          ",1,6,2221.980016,355.205974,"Include",380
"SD2014_e1","SD2014_e1_1","SPORTSMAN     ",1,1,1277.325272,211.621754,"Include",381
"SD2014_e1","SD2014_e1_1","SILK          ",1,6,836.426884,269.962421,"Include",382
"SD2014_e1","SD2014_e1_1","CORTEX        ",0,3,739.892897,217.943191,"Include",383
"SD2014_e1","SD2014_e1_1","MENU          ",0,3,969.811937,301.704743,"Include",384
"SD2014_e1","SD2014_e1_1","THANKSGIVING  ",0,2,793.963959,485.848781,"Include",385
"SD2014_e1","SD2014_e1_1","CENTENNIAL    ",0,6,1617.826546,153.784035,"Include",386
"SD2014_e1","SD2014_e1_1","FRESHMAN      ",0,5,820.693793,303.029828,"Include",387
"SD2014_e1","SD2014_e1_1","INDICTMENT    ",1,3,995.367827,222.413615,"Include",388
"SD2014_e1","SD2014_e1_1","DIPLOMAT      ",0,1,2310.186374,447.097109,"Include",389
"SD2014_e1","SD2014_e1_1","DEDUCTION     ",0,2,893.539677,268.952783,"Include",390
"SD2014_e1","SD2014_e1_1","ENTREPRENEUR  ",0,3,1114.735961,176.573985,"Include",391
"SD2014_e1","SD2014_e1_1","MALAISE       ",1,6,890.736106,178.022192,"Include",392
"SD2014_e1","SD2014_e1_1","DESTINATION   ",0,1,924.396342,314.238761,"Include",393
"SD2014_e1","SD2014_e1_1","BOYCOTT       ",1,3,797.92306,185.67499,"Include",394
"SD2014_e1","SD2014_e1_1","SHIELD        ",0,3,763.259894,216.529951,"Include",395
"SD2014_e1","SD2014_e1_1","EXPLOITATION  ",1,5,952.548558,244.96287,"Include",396
"SD2014_e1","SD2014_e1_1","COMPLAINT     ",0,5,684.306328,596.479731,"Include",397
"SD2014_e1","SD2014_e1_1","HAZE          ",0,1,908.135303,210.884917,"Include",398
"SD2014_e1","SD2014_e1_1","BOOTH         ",0,3,1059.667696,195.711096,"Include",399
"SD2014_e1","SD2014_e1_1","MENACE        ",1,3,805.280523,184.322131,"Include",400
"SD2014_e1","SD2014_e1_11","GHOST         ",0,5,4614.620361,3062.388246,"Include",1
"SD2014_e1","SD2014_e1_11","DOCK          ",1,6,3296.21845,948.619546,"Include",2
"SD2014_e1","SD2014_e1_11","GUARANTEE     ",1,6,3716.871616,1095.715412,"Include",3
"SD2014_e1","SD2014_e1_11","PARDON        ",1,5,4353.533677,904.282814,"Include",4
"SD2014_e1","SD2014_e1_11","DELICACY      ",0,2,2450.961973,2508.793942,"Include",5
"SD2014_e1","SD2014_e1_11","BUREAUCRACY   ",0,2,2655.959226,6073.850229,"Include",6
"SD2014_e1","SD2014_e1_11","FAIRWAY       ",0,2,1991.899739,5118.672965,"Include",7
"SD2014_e1","SD2014_e1_11","FABRIC        ",1,3,3800.755713,2007.92192,"Include",8
"SD2014_e1","SD2014_e1_11","FUSION        ",1,4,3481.04961,798.041343,"Include",9
"SD2014_e1","SD2014_e1_11","WOE           ",0,2,2348.935313,3132.325166,"Include",10
"SD2014_e1","SD2014_e1_11","PURITY        ",1,5,2660.04894,1405.316573,"Include",11
"SD2014_e1","SD2014_e1_11","VEGETABLE     ",1,2,4520.893709,1288.441104,"Include",12
"SD2014_e1","SD2014_e1_11","STAIN         ",1,4,3769.056415,1057.691442,"Include",13
"SD2014_e1","SD2014_e1_11","BRAVADO       ",0,2,1341.003271,2104.473247,"Include",14
"SD2014_e1","SD2014_e1_11","SCANDAL       ",0,2,1789.881843,1621.561476,"Include",15
"SD2014_e1","SD2014_e1_11","EDEN          ",0,1,4935.641766,1068.621762,"Include",16
"SD2014_e1","SD2014_e1_11","ACCENT        ",0,2,1374.976023,1537.033544,"Include",17
"SD2014_e1","SD2014_e1_11","PHOTOGRAPHY   ",0,3,1718.608944,2066.076175,"Include",18
"SD2014_e1","SD2014_e1_11","STIMULATION   ",0,2,1448.935038,968.033943,"Include",19
"SD2014_e1","SD2014_e1_11","CARDBOARD     ",0,1,1406.89209,1255.442673,"Include",20
"SD2014_e1","SD2014_e1_11","BEE           ",0,1,1633.717169,1768.624903,"Include",21
"SD2014_e1","SD2014_e1_11","COPPER        ",0,2,1874.233889,1702.006781,"Include",22
"SD2014_e1","SD2014_e1_11","PRESIDENCY    ",1,5,4085.221997,3431.753741,"Include",23
"SD2014_e1","SD2014_e1_11","TWEED         ",1,6,1711.721354,1227.026178,"Include",24
"SD2014_e1","SD2014_e1_11","CRANE         ",0,3,8127.897418,1648.880769,"Include",25
"SD2014_e1","SD2014_e1_11","NIGHTMARE     ",1,6,2850.046418,995.352216,"Include",26
"SD2014_e1","SD2014_e1_11","BRUTALITY     ",1,5,2169.2897,3672.880453,"Include",27
"SD2014_e1","SD2014_e1_11","FAIRNESS      ",1,4,3080.973855,999.856466,"Include",28
"SD2014_e1","SD2014_e1_11","STOVE         ",0,2,1786.819289,1610.852896,"Include",29
"SD2014_e1","SD2014_e1_11","CHEER         ",0,2,1413.880519,1038.43709,"Include",30
"SD2014_e1","SD2014_e1_11","CURRENCY      ",1,3,4450.037375,380.628107,"Include",31
"SD2014_e1","SD2014_e1_11","PIGMENT       ",0,2,1286.024627,2115.763827,"Include",32
"SD2014_e1","SD2014_e1_11","DEMON         ",1,2,1608.411057,920.124979,"Include",33
"SD2014_e1","SD2014_e1_11","PICNIC        ",0,3,3889.145498,964.648316,"Include",34
"SD2014_e1","SD2014_e1_11","RECESSION     ",0,2,3169.591418,2980.565898,"Include",35
"SD2014_e1","SD2014_e1_11","INFLATION     ",0,2,9882.946979,1662.586594,"Include",36
"SD2014_e1","SD2014_e1_11","WAIST         ",1,3,2479.180221,648.581576,"Include",37
"SD2014_e1","SD2014_e1_11","LIMITATION    ",0,2,1806.124832,1572.993973,"Include",38
"SD2014_e1","SD2014_e1_11","BOOTH         ",0,3,1209.288327,858.715724,"Include",39
"SD2014_e1","SD2014_e1_11","INDECISION    ",0,2,3838.476078,764.310576,"Include",40
"SD2014_e1","SD2014_e1_11","STOOL         ",1,6,1332.73735,624.950553,"Include",41
"SD2014_e1","SD2014_e1_11","AMBULANCE     ",0,2,2663.242742,1128.581038,"Include",42
"SD2014_e1","SD2014_e1_11","CHERRY        ",0,2,6104.485629,1730.852963,"Include",43
"SD2014_e1","SD2014_e1_11","BADGE         ",0,5,1896.359347,1051.656366,"Include",44
"SD2014_e1","SD2014_e1_11","EASTER        ",1,6,1630.82188,669.818723,"Include",45
"SD2014_e1","SD2014_e1_11","QUARTET       ",1,5,3233.843254,2289.943781,"Include",46
"SD2014_e1","SD2014_e1_11","BARBER        ",0,2,2102.668071,1128.848612,"Include",47
"SD2014_e1","SD2014_e1_11","REBELLION     ",0,2,6769.005935,1309.810617,"Include",48
"SD2014_e1","SD2014_e1_11","COD           ",1,2,1533.847488,849.314274,"Include",49
"SD2014_e1","SD2014_e1_11","LAYMEN        ",0,1,2501.98335,782.671715,"Include",50
"SD2014_e1","SD2014_e1_11","SCREAM        ",0,2,1182.234372,745.048162,"Include",51
"SD2014_e1","SD2014_e1_11","POSTCARD      ",1,4,3802.27973,1561.33267,"Include",52
"SD2014_e1","SD2014_e1_11","RUG           ",0,2,1190.495452,2360.618124,"Include",53
"SD2014_e1","SD2014_e1_11","CATASTROPHE   ",1,5,3946.233341,5498.671244,"Include",54
"SD2014_e1","SD2014_e1_11","OBSESSION     ",0,3,3946.317997,338.933595,"Include",55
"SD2014_e1","SD2014_e1_11","YOUNGSTER     ",0,3,4005.821099,1252.132235,"Include",56
"SD2014_e1","SD2014_e1_11","GUERRILLA     ",0,1,4606.403772,561.98664,"Include",57
"SD2014_e1","SD2014_e1_11","ELDER         ",0,2,1555.407056,597.40932,"Include",58
"SD2014_e1","SD2014_e1_11","GOAT          ",1,4,3836.923765,1330.763229,"Include",59
"SD2014_e1","SD2014_e1_11","PEAR          ",1,6,1474.119025,1063.724891,"Include",60
"SD2014_e1","SD2014_e1_11","SHOE          ",1,2,1202.900699,724.267591,"Include",61
"SD2014_e1","SD2014_e1_11","STUD          ",1,5,2805.976885,705.522961,"Include",62
"SD2014_e1","SD2014_e1_11","SLIT          ",1,5,1876.150056,703.971874,"Include",63
"SD2014_e1","SD2014_e1_11","HONEYMOON     ",0,2,1218.694613,1491.261822,"Include",64
"SD2014_e1","SD2014_e1_11","EMBRACE       ",0,3,1971.304632,450.783136,"Include",65
"SD2014_e1","SD2014_e1_11","RELIC         ",1,2,3312.417511,773.00595,"Include",66
"SD2014_e1","SD2014_e1_11","RHETORIC      ",1,2,5588.598781,604.796044,"Include",67
"SD2014_e1","SD2014_e1_11","ALBUM         ",0,2,2467.902576,1310.040875,"Include",68
"SD2014_e1","SD2014_e1_11","ABSORPTION    ",0,2,4469.904522,4919.748939,"Include",69
"SD2014_e1","SD2014_e1_11","CAGE          ",1,4,1592.409095,873.036707,"Include",70
"SD2014_e1","SD2014_e1_11","RECRUITMENT   ",0,2,4476.256674,1013.797248,"Include",71
"SD2014_e1","SD2014_e1_11","TACT          ",0,2,1835.236713,969.400939,"Include",72
"SD2014_e1","SD2014_e1_11","CARTRIDGE     ",1,3,3616.245989,183.354177,"Include",73
"SD2014_e1","SD2014_e1_11","CONTRACTION   ",1,6,2792.757321,1164.318393,"Include",74
"SD2014_e1","SD2014_e1_11","RESIN         ",1,1,1682.819916,5895.705901,"Include",75
"SD2014_e1","SD2014_e1_11","ELBOW         ",0,4,6709.752729,1036.700905,"Include",76
"SD2014_e1","SD2014_e1_11","REGULATION    ",0,3,8304.452921,529.350494,"Include",77
"SD2014_e1","SD2014_e1_11","GROVE         ",1,5,6571.988132,737.563796,"Include",78
"SD2014_e1","SD2014_e1_11","SAX           ",0,2,1506.724358,2742.8473,"Include",79
"SD2014_e1","SD2014_e1_11","MAP           ",1,3,3863.457899,363.597538,"Include",80
"SD2014_e1","SD2014_e1_11","TUNNEL        ",0,3,1445.832019,2836.711747,"Include",81
"SD2014_e1","SD2014_e1_11","HELPER        ",1,4,3873.679512,2389.887967,"Include",82
"SD2014_e1","SD2014_e1_11","GLAND         ",1,5,7485.940984,2410.975448,"Include",83
"SD2014_e1","SD2014_e1_11","FUTILITY      ",1,5,3914.331611,1140.379,"Include",84
"SD2014_e1","SD2014_e1_11","CELLULOSE     ",0,1,1747.815389,1885.59818,"Include",85
"SD2014_e1","SD2014_e1_11","COMMUTER      ",1,3,2308.784206,493.519728,"Include",86
"SD2014_e1","SD2014_e1_11","HAWK          ",0,3,2857.672455,1730.91626,"Include",87
"SD2014_e1","SD2014_e1_11","AMUSEMENT     ",0,2,2040.558578,1261.079376,"Include",88
"SD2014_e1","SD2014_e1_11","STABILITY     ",1,5,2303.165487,1400.860262,"Include",89
"SD2014_e1","SD2014_e1_11","DIALECT       ",0,2,1997.242156,644.020892,"Include",90
"SD2014_e1","SD2014_e1_11","ALUMNI        ",1,4,3705.552325,589.104984,"Include",91
"SD2014_e1","SD2014_e1_11","REFUGEE       ",1,5,3372.882332,3439.169008,"Include",92
"SD2014_e1","SD2014_e1_11","HOSTESS       ",1,3,1505.475605,669.805116,"Include",93
"SD2014_e1","SD2014_e1_11","LOTION        ",1,6,1641.880876,2623.919588,"Include",94
"SD2014_e1","SD2014_e1_11","SANCTUARY     ",0,3,4421.91505,1017.806682,"Include",95
"SD2014_e1","SD2014_e1_11","THIGH         ",1,6,1718.418065,433.604608,"Include",96
"SD2014_e1","SD2014_e1_11","SUPPRESSION   ",1,2,2552.051339,1342.530894,"Include",97
"SD2014_e1","SD2014_e1_11","GYMNASTICS    ",1,6,1293.141997,290.815368,"Include",98
"SD2014_e1","SD2014_e1_11","TENANT        ",0,5,3895.938361,586.46115,"Include",99
"SD2014_e1","SD2014_e1_11","BLOSSOM       ",1,2,1266.392056,697.622303,"Include",100
"SD2014_e1","SD2014_e1_11","PARADISE      ",1,3,2348.91002,404.226899,"Include",101
"SD2014_e1","SD2014_e1_11","JUG           ",1,6,1379.939119,958.161936,"Include",102
"SD2014_e1","SD2014_e1_11","PEDESTRIAN    ",1,5,4437.64558,960.802372,"Include",103
"SD2014_e1","SD2014_e1_11","REVIVAL       ",1,5,3496.390581,844.652118,"Include",104
"SD2014_e1","SD2014_e1_11","COMMITMENT    ",0,3,1393.318153,1546.784833,"Include",105
"SD2014_e1","SD2014_e1_11","MYSTIQUE      ",0,2,2632.569004,627.290234,"Include",106
"SD2014_e1","SD2014_e1_11","DECAY         ",1,5,2969.436273,565.676111,"Include",107
"SD2014_e1","SD2014_e1_11","SPINE         ",1,6,1093.945564,252.547847,"Include",108
"SD2014_e1","SD2014_e1_11","CHEESE        ",0,2,1467.274364,1377.411044,"Include",109
"SD2014_e1","SD2014_e1_11","PROPULSION    ",1,2,4430.488168,1034.48586,"Include",110
"SD2014_e1","SD2014_e1_11","TOLERANCE     ",1,5,4942.354011,2923.420557,"Include",111
"SD2014_e1","SD2014_e1_11","DRIVEWAY      ",0,3,2980.703864,743.956637,"Include",112
"SD2014_e1","SD2014_e1_11","GENE          ",1,5,4721.034931,519.718376,"Include",113
"SD2014_e1","SD2014_e1_11","ACTRESS       ",1,6,1378.407882,324.468385,"Include",114
"SD2014_e1","SD2014_e1_11","DOORWAY       ",1,6,1519.826263,331.447044,"Include",115
"SD2014_e1","SD2014_e1_11","MONOTONY      ",0,2,3046.263073,1094.572514,"Include",116
"SD2014_e1","SD2014_e1_11","BETRAYAL      ",1,5,5336.140378,483.502055,"Include",117
"SD2014_e1","SD2014_e1_11","PILL          ",0,2,1855.774299,804.380167,"Include",118
"SD2014_e1","SD2014_e1_11","PSYCHOLOGIST  ",0,1,3282.569553,312.482684,"Include",119
"SD2014_e1","SD2014_e1_11","FISSION       ",0,1,1724.886196,207.4264,"Include",120
"SD2014_e1","SD2014_e1_11","AVIATION      ",1,3,2680.073232,1240.672966,"Include",121
"SD2014_e1","SD2014_e1_11","PATROLMAN     ",1,5,5747.657309,501.377651,"Include",122
"SD2014_e1","SD2014_e1_11","MORTALITY     ",0,5,7808.536677,263.676519,"Include",123
"SD2014_e1","SD2014_e1_11","NOVELTY       ",0,2,1310.298495,1051.242059,"Include",124
"SD2014_e1","SD2014_e1_11","CAPTIVE       ",0,3,3230.177403,726.584902,"Include",125
"SD2014_e1","SD2014_e1_11","VIOLIN        ",0,2,2248.277589,307.980762,"Include",126
"SD2014_e1","SD2014_e1_11","STOCKADE      ",1,2,1472.45314,150.067752,"Include",127
"SD2014_e1","SD2014_e1_11","WHEAT         ",0,2,1161.026881,148.546717,"Include",128
"SD2014_e1","SD2014_e1_11","WEB           ",1,6,1007.612021,433.826083,"Include",129
"SD2014_e1","SD2014_e1_11","AMPLIFIER     ",1,3,9288.131462,1101.552009,"Include",130
"SD2014_e1","SD2014_e1_11","LAWN          ",1,5,2846.431236,143.645454,"Include",131
"SD2014_e1","SD2014_e1_11","COMPREHENSION ",0,5,2243.330853,438.934072,"Include",132
"SD2014_e1","SD2014_e1_11","CEMENT        ",1,3,4317.324559,3165.722173,"Include",133
"SD2014_e1","SD2014_e1_11","EXPLOITATION  ",0,3,3707.765822,847.53021,"Include",134
"SD2014_e1","SD2014_e1_11","FRESCO        ",0,2,3300.214128,601.495414,"Include",135
"SD2014_e1","SD2014_e1_11","MOLECULE      ",1,3,3288.455298,430.438401,"Include",136
"SD2014_e1","SD2014_e1_11","BACHELOR      ",1,5,2157.624112,1949.021394,"Include",137
"SD2014_e1","SD2014_e1_11","ARCHITECTURE  ",1,3,1705.081141,180.210902,"Include",138
"SD2014_e1","SD2014_e1_11","DIAGNOSIS     ",1,3,4582.527562,483.071368,"Include",139
"SD2014_e1","SD2014_e1_11","RELIANCE      ",0,3,2095.258579,329.587493,"Include",140
"SD2014_e1","SD2014_e1_11","STAG          ",1,6,2797.014571,960.529915,"Include",141
"SD2014_e1","SD2014_e1_11","MENU          ",1,3,936.118022,973.35438,"Include",142
"SD2014_e1","SD2014_e1_11","WARDROBE      ",0,3,1132.119475,465.219137,"Include",143
"SD2014_e1","SD2014_e1_11","BOYHOOD       ",1,3,3054.091783,390.324862,"Include",144
"SD2014_e1","SD2014_e1_11","CAPILLARY     ",0,3,4438.905177,2962.197103,"Include",145
"SD2014_e1","SD2014_e1_11","BEAST         ",0,3,2921.100315,231.503661,"Include",146
"SD2014_e1","SD2014_e1_11","TEXAN         ",0,3,1430.783276,214.605129,"Include",147
"SD2014_e1","SD2014_e1_11","APPREHENSION  ",1,5,1286.589846,564.325013,"Include",148
"SD2014_e1","SD2014_e1_11","ENCLOSURE     ",0,3,2093.544403,127.848121,"Include",149
"SD2014_e1","SD2014_e1_11","WILDERNESS    ",1,3,3388.296542,149.897251,"Include",150
"SD2014_e1","SD2014_e1_11","GHETTO        ",1,6,1240.882807,200.723647,"Include",151
"SD2014_e1","SD2014_e1_11","INACTION      ",1,2,1177.522001,580.386597,"Include",152
"SD2014_e1","SD2014_e1_11","HAZARD        ",0,3,1308.772021,177.890241,"Include",153
"SD2014_e1","SD2014_e1_11","TUNE          ",1,4,3252.105187,123.420329,"Include",154
"SD2014_e1","SD2014_e1_11","MOROCCO       ",0,2,2191.95628,549.808256,"Include",155
"SD2014_e1","SD2014_e1_11","VISA          ",1,6,1159.013991,154.894625,"Include",156
"SD2014_e1","SD2014_e1_11","DUCK          ",1,3,3277.684956,219.755658,"Include",157
"SD2014_e1","SD2014_e1_11","POLITICIAN    ",0,3,4755.505564,160.790081,"Include",158
"SD2014_e1","SD2014_e1_11","CAFETERIA     ",1,5,3123.722668,185.08923,"Include",159
"SD2014_e1","SD2014_e1_11","TENACITY      ",1,5,1378.658041,172.629749,"Include",160
"SD2014_e1","SD2014_e1_11","DISTORTION    ",0,4,5526.785763,802.005981,"Include",161
"SD2014_e1","SD2014_e1_11","ABORTION      ",0,2,3376.205185,474.379304,"Include",162
"SD2014_e1","SD2014_e1_11","PHYSICIAN     ",0,4,4991.440657,490.259236,"Include",163
"SD2014_e1","SD2014_e1_11","METER         ",0,2,3950.380706,150.921634,"Include",164
"SD2014_e1","SD2014_e1_11","BARGE         ",1,5,3785.856969,601.709405,"Include",165
"SD2014_e1","SD2014_e1_11","HAVEN         ",0,4,7304.710297,253.912565,"Include",166
"SD2014_e1","SD2014_e1_11","KITTEN        ",0,2,1100.403804,1410.937633,"Include",167
"SD2014_e1","SD2014_e1_11","INTELLECT     ",1,4,1974.602574,734.088775,"Include",168
"SD2014_e1","SD2014_e1_11","CHURCHYARD    ",0,2,5559.144684,368.768051,"Include",169
"SD2014_e1","SD2014_e1_11","CATHARSIS     ",1,6,3730.117066,524.382797,"Include",170
"SD2014_e1","SD2014_e1_11","ABDOMEN       ",1,4,4494.898295,192.17876,"Include",171
"SD2014_e1","SD2014_e1_11","HIERARCHY     ",0,3,5089.408958,583.669695,"Include",172
"SD2014_e1","SD2014_e1_11","SALAMI        ",1,3,1519.624394,506.965012,"Include",173
"SD2014_e1","SD2014_e1_11","CRUELTY       ",1,3,5766.340474,1511.370664,"Include",174
"SD2014_e1","SD2014_e1_11","LENS          ",1,4,2854.388966,447.742708,"Include",175
"SD2014_e1","SD2014_e1_11","DISGUISE      ",0,4,3486.130457,259.297171,"Include",176
"SD2014_e1","SD2014_e1_11","GROCERY       ",0,3,6449.752975,300.490676,"Include",177
"SD2014_e1","SD2014_e1_11","INSULATION    ",0,3,3120.60136,670.03907,"Include",178
"SD2014_e1","SD2014_e1_11","LUGGAGE       ",1,3,994.210915,293.181292,"Include",179
"SD2014_e1","SD2014_e1_11","SCHOLAR       ",0,3,1162.287214,173.818313,"Include",180
"SD2014_e1","SD2014_e1_11","NAZI          ",1,6,1296.52946,165.79909,"Include",181
"SD2014_e1","SD2014_e1_11","MAGNETISM     ",0,3,3656.605028,581.619651,"Include",182
"SD2014_e1","SD2014_e1_11","SHIELD        ",1,5,1934.293069,447.825783,"Include",183
"SD2014_e1","SD2014_e1_11","DEFENDANT     ",1,5,1982.452495,629.936787,"Include",184
"SD2014_e1","SD2014_e1_11","ROBE          ",0,3,2620.243152,199.683712,"Include",185
"SD2014_e1","SD2014_e1_11","SIGNATURE     ",1,3,5816.396817,1166.986209,"Include",186
"SD2014_e1","SD2014_e1_11","PULSE         ",0,5,2229.804021,258.213831,"Include",187
"SD2014_e1","SD2014_e1_11","GOSSIP        ",0,2,1240.811461,1712.744162,"Include",188
"SD2014_e1","SD2014_e1_11","FOLIAGE       ",0,2,5391.039046,472.184189,"Include",189
"SD2014_e1","SD2014_e1_11","ABANDONMENT   ",0,2,3837.094778,1714.604796,"Include",190
"SD2014_e1","SD2014_e1_11","BOULDER       ",0,3,3233.430506,1929.324441,"Include",191
"SD2014_e1","SD2014_e1_11","SUPERSTITION  ",0,2,3806.129022,613.30179,"Include",192
"SD2014_e1","SD2014_e1_11","COURTESY      ",1,3,3500.304555,200.661036,"Include",193
"SD2014_e1","SD2014_e1_11","BALLOON       ",0,3,1097.466405,607.914044,"Include",194
"SD2014_e1","SD2014_e1_11","CERTIFICATE   ",0,3,1183.081791,489.91976,"Include",195
"SD2014_e1","SD2014_e1_11","MEDAL         ",1,4,1886.183866,674.102913,"Include",196
"SD2014_e1","SD2014_e1_11","ANNOYANCE     ",0,3,1302.196632,395.125822,"Include",197
"SD2014_e1","SD2014_e1_11","CARCASS       ",1,3,2755.768309,209.358362,"Include",198
"SD2014_e1","SD2014_e1_11","CATHEDRAL     ",1,4,3554.053066,300.351817,"Include",199
"SD2014_e1","SD2014_e1_11","HAMLET        ",1,6,2496.598459,313.214107,"Include",200
"SD2014_e1","SD2014_e1_11","OBSTACLE      ",0,3,3250.495919,353.295831,"Include",201
"SD2014_e1","SD2014_e1_11","SAGA          ",1,6,1082.606068,145.00876,"Include",202
"SD2014_e1","SD2014_e1_11","ANARCHY       ",1,6,2092.828519,151.035979,"Include",203
"SD2014_e1","SD2014_e1_11","MINERAL       ",1,6,1281.94647,160.680471,"Include",204
"SD2014_e1","SD2014_e1_11","DOUGH         ",0,3,5010.785875,148.819884,"Include",205
"SD2014_e1","SD2014_e1_11","PITY          ",1,6,1079.772024,919.048865,"Include",206
"SD2014_e1","SD2014_e1_11","AGENDA        ",1,6,1128.166244,317.127273,"Include",207
"SD2014_e1","SD2014_e1_11","COUNTENANCE   ",0,3,3040.695714,186.012201,"Include",208
"SD2014_e1","SD2014_e1_11","ESPIONAGE     ",0,3,2380.387468,138.246318,"Include",209
"SD2014_e1","SD2014_e1_11","COMPUTER      ",1,5,2701.792658,781.742989,"Include",210
"SD2014_e1","SD2014_e1_11","SINGER        ",0,2,2477.35172,726.735059,"Include",211
"SD2014_e1","SD2014_e1_11","LANTERN       ",0,3,2904.631249,1191.53451,"Include",212
"SD2014_e1","SD2014_e1_11","COMEDIAN      ",1,6,1124.742966,153.899025,"Include",213
"SD2014_e1","SD2014_e1_11","SLATE         ",0,3,2732.857997,155.021292,"Include",214
"SD2014_e1","SD2014_e1_11","STEAK         ",0,2,1405.966386,126.693366,"Include",215
"SD2014_e1","SD2014_e1_11","INCEST        ",1,6,1099.097148,153.67423,"Include",216
"SD2014_e1","SD2014_e1_11","BULGE         ",0,3,1268.698957,131.094986,"Include",217
"SD2014_e1","SD2014_e1_11","COSTUME       ",0,3,1334.648302,123.059796,"Include",218
"SD2014_e1","SD2014_e1_11","STUPIDITY     ",0,2,1447.490841,126.509168,"Include",219
"SD2014_e1","SD2014_e1_11","SCULPTURE     ",1,5,2740.640072,227.074395,"Include",220
"SD2014_e1","SD2014_e1_11","OTTER         ",1,3,2291.151188,172.664452,"Include",221
"SD2014_e1","SD2014_e1_11","WALNUT        ",1,6,1030.826981,152.357102,"Include",222
"SD2014_e1","SD2014_e1_11","PESSIMISM     ",0,3,1403.289912,115.792092,"Include",223
"SD2014_e1","SD2014_e1_11","HERB          ",1,3,1600.20148,128.819876,"Include",224
"SD2014_e1","SD2014_e1_11","RIOT          ",1,6,957.113286,129.449997,"Include",225
"SD2014_e1","SD2014_e1_11","GLUE          ",0,3,1062.042229,118.075902,"Include",226
"SD2014_e1","SD2014_e1_11","SUBSISTENCE   ",0,3,3354.379161,133.44873,"Include",227
"SD2014_e1","SD2014_e1_11","COLLISION     ",1,3,1561.014819,75.121213,"Include",228
"SD2014_e1","SD2014_e1_11","CALCULATION   ",1,6,969.676598,117.487445,"Include",229
"SD2014_e1","SD2014_e1_11","PATRIOT       ",1,5,2993.934143,132.304873,"Include",230
"SD2014_e1","SD2014_e1_11","MASK          ",0,4,2001.649198,128.531513,"Include",231
"SD2014_e1","SD2014_e1_11","LIBRARIAN     ",0,3,1460.86412,115.137968,"Include",232
"SD2014_e1","SD2014_e1_11","DISARMAMENT   ",1,6,3663.614568,1844.652528,"Include",233
"SD2014_e1","SD2014_e1_11","KEEL          ",1,6,981.017636,384.881172,"Include",234
"SD2014_e1","SD2014_e1_11","PENTAGON      ",0,3,1713.490929,148.803589,"Include",235
"SD2014_e1","SD2014_e1_11","HAMMER        ",0,5,2695.743604,143.510254,"Include",236
"SD2014_e1","SD2014_e1_11","DEFORMATION   ",1,5,2995.137469,413.768843,"Include",237
"SD2014_e1","SD2014_e1_11","EXPLOSION     ",1,6,1757.609016,134.656313,"Include",238
"SD2014_e1","SD2014_e1_11","HEROINE       ",1,6,906.353496,128.924593,"Include",239
"SD2014_e1","SD2014_e1_11","BURIAL        ",1,6,885.325882,116.750456,"Include",240
"SD2014_e1","SD2014_e1_11","PROBATION     ",0,3,2577.265352,142.283275,"Include",241
"SD2014_e1","SD2014_e1_11","LEGISLATOR    ",0,3,1545.949611,132.484071,"Include",242
"SD2014_e1","SD2014_e1_11","EXPEDITION    ",0,3,1336.142953,99.725228,"Include",243
"SD2014_e1","SD2014_e1_11","POLLUTION     ",0,3,929.001949,110.919812,"Include",244
"SD2014_e1","SD2014_e1_11","IRONY         ",0,3,1012.097064,126.235566,"Include",245
"SD2014_e1","SD2014_e1_11","BERRY         ",0,3,3746.741112,723.97574,"Include",246
"SD2014_e1","SD2014_e1_11","CALIBRATION   ",1,4,2341.854529,1261.322384,"Include",247
"SD2014_e1","SD2014_e1_11","FRAGRANCE     ",0,3,2759.3995,148.351157,"Include",248
"SD2014_e1","SD2014_e1_11","COIN          ",1,3,1431.228752,407.191711,"Include",249
"SD2014_e1","SD2014_e1_11","COMMENTARY    ",0,5,1759.072942,1440.117239,"Include",250
"SD2014_e1","SD2014_e1_11","CANYON        ",0,3,3162.148041,1085.318584,"Include",251
"SD2014_e1","SD2014_e1_11","ENTREPRENEUR  ",1,6,2798.956785,882.352092,"Include",252
"SD2014_e1","SD2014_e1_11","CATALOGUE     ",1,3,2285.711617,167.793097,"Include",253
"SD2014_e1","SD2014_e1_11","RESOURCE      ",1,3,1065.994452,154.134333,"Include",254
"SD2014_e1","SD2014_e1_11","ORGAN         ",1,5,2317.015913,181.870143,"Include",255
"SD2014_e1","SD2014_e1_11","TOWER         ",0,2,1143.243505,515.771854,"Include",256
"SD2014_e1","SD2014_e1_11","HICKORY       ",1,4,2270.476342,153.341587,"Include",257
"SD2014_e1","SD2014_e1_11","ORGANISM      ",1,5,2564.38463,202.037942,"Include",258
"SD2014_e1","SD2014_e1_11","SALESMAN      ",1,5,3202.625213,452.502971,"Include",259
"SD2014_e1","SD2014_e1_11","SPOON         ",0,3,1090.022588,224.682885,"Include",260
"SD2014_e1","SD2014_e1_11","CENTENNIAL    ",1,6,1360.599272,1579.517332,"Include",261
"SD2014_e1","SD2014_e1_11","NAIL          ",0,3,911.709319,190.431805,"Include",262
"SD2014_e1","SD2014_e1_11","WALLPAPER     ",1,5,4287.870027,401.631249,"Include",263
"SD2014_e1","SD2014_e1_11","HANDICAP      ",1,3,1561.5952,139.477324,"Include",264
"SD2014_e1","SD2014_e1_11","CANNON        ",0,3,3319.124967,227.607442,"Include",265
"SD2014_e1","SD2014_e1_11","DIALYSIS      ",1,6,3163.656715,902.851401,"Include",266
"SD2014_e1","SD2014_e1_11","RAMP          ",0,3,960.59083,164.926438,"Include",267
"SD2014_e1","SD2014_e1_11","SORROW        ",1,6,1103.092599,125.125031,"Include",268
"SD2014_e1","SD2014_e1_11","COMPLEXITY    ",0,3,1977.379784,369.109258,"Include",269
"SD2014_e1","SD2014_e1_11","GAIETY        ",0,2,1562.402807,124.219718,"Include",270
"SD2014_e1","SD2014_e1_11","MONSTER       ",0,2,936.738131,477.802492,"Include",271
"SD2014_e1","SD2014_e1_11","ATHLETICS     ",1,4,1906.78012,117.189516,"Include",272
"SD2014_e1","SD2014_e1_11","RESORT        ",0,3,2851.595733,141.037631,"Include",273
"SD2014_e1","SD2014_e1_11","PLATOON       ",0,2,1456.466678,1279.076857,"Include",274
"SD2014_e1","SD2014_e1_11","PLASMA        ",1,5,1744.571876,770.388264,"Include",275
"SD2014_e1","SD2014_e1_11","CORTEX        ",1,4,1465.935001,144.385801,"Include",276
"SD2014_e1","SD2014_e1_11","DYNASTY       ",0,3,2028.07922,177.378375,"Include",277
"SD2014_e1","SD2014_e1_11","FRUSTRATION   ",1,5,1835.572582,601.667538,"Include",278
"SD2014_e1","SD2014_e1_11","HANDKERCHIEF  ",1,6,896.758469,120.21913,"Include",279
"SD2014_e1","SD2014_e1_11","APPLE         ",1,3,860.600344,101.470956,"Include",280
"SD2014_e1","SD2014_e1_11","GREASE        ",0,3,1018.68989,1716.159964,"Include",281
"SD2014_e1","SD2014_e1_11","MERCURY       ",1,5,3026.522398,611.622275,"Include",282
"SD2014_e1","SD2014_e1_11","REED          ",0,3,3426.622171,290.713211,"Include",283
"SD2014_e1","SD2014_e1_11","BOOT          ",1,5,1127.641523,684.822912,"Include",284
"SD2014_e1","SD2014_e1_11","PRUDENCE      ",1,5,3640.16245,886.748345,"Include",285
"SD2014_e1","SD2014_e1_11","SATELLITE     ",0,1,3281.196438,2735.249864,"Include",286
"SD2014_e1","SD2014_e1_11","HOMICIDE      ",0,1,1504.642814,692.716625,"Include",287
"SD2014_e1","SD2014_e1_11","FLASHLIGHT    ",1,2,1312.143067,316.965013,"Include",288
"SD2014_e1","SD2014_e1_11","DEMOCRAT      ",1,6,976.695543,188.565793,"Include",289
"SD2014_e1","SD2014_e1_11","PAROLE        ",0,3,1365.894006,1832.53013,"Include",290
"SD2014_e1","SD2014_e1_11","CARRIAGE      ",0,3,2441.823697,172.632796,"Include",291
"SD2014_e1","SD2014_e1_11","SATURATION    ",0,4,3398.939168,423.71828,"Include",292
"SD2014_e1","SD2014_e1_11","CONTRACTOR    ",1,3,2182.910143,157.536567,"Include",293
"SD2014_e1","SD2014_e1_11","INFIELD       ",0,3,1920.518322,899.006159,"Include",294
"SD2014_e1","SD2014_e1_11","BLAZE         ",0,3,1693.491527,145.415005,"Include",295
"SD2014_e1","SD2014_e1_11","CARPENTER     ",1,6,949.031994,146.536792,"Include",296
"SD2014_e1","SD2014_e1_11","COMBUSTION    ",0,3,1358.076522,952.949179,"Include",297
"SD2014_e1","SD2014_e1_11","REVOLT        ",0,3,1760.241353,113.468943,"Include",298
"SD2014_e1","SD2014_e1_11","FRENZY        ",0,3,1110.068854,323.744542,"Include",299
"SD2014_e1","SD2014_e1_11","PUBLISHER     ",0,3,1031.317127,144.833902,"Include",300
"SD2014_e1","SD2014_e1_11","POSTERIOR     ",0,3,1468.535463,1994.868516,"Include",301
"SD2014_e1","SD2014_e1_11","LIAISON       ",1,5,2316.661649,141.273884,"Include",302
"SD2014_e1","SD2014_e1_11","PURSE         ",1,3,1137.017313,125.464951,"Include",303
"SD2014_e1","SD2014_e1_11","GRANDSON      ",0,1,1665.888932,223.442674,"Include",304
"SD2014_e1","SD2014_e1_11","STEALTH       ",1,5,2312.183574,145.090998,"Include",305
"SD2014_e1","SD2014_e1_11","DRIZZLE       ",0,2,2012.544474,130.582292,"Include",306
"SD2014_e1","SD2014_e1_11","OUTDOORS      ",1,5,1734.358618,1136.920598,"Include",307
"SD2014_e1","SD2014_e1_11","CAPITALIST    ",1,5,2784.335651,172.278489,"Include",308
"SD2014_e1","SD2014_e1_11","FLASK         ",0,3,1222.695486,879.376923,"Include",309
"SD2014_e1","SD2014_e1_11","CITATION      ",1,6,954.608749,151.009514,"Include",310
"SD2014_e1","SD2014_e1_11","VEIL          ",1,4,2185.850904,120.611388,"Include",311
"SD2014_e1","SD2014_e1_11","BATON         ",1,6,900.980146,115.63716,"Include",312
"SD2014_e1","SD2014_e1_11","BANNER        ",1,6,824.018082,130.376933,"Include",313
"SD2014_e1","SD2014_e1_11","STEW          ",1,6,910.220687,140.904639,"Include",314
"SD2014_e1","SD2014_e1_11","SUFFRAGE      ",0,2,2464.596702,130.657554,"Include",315
"SD2014_e1","SD2014_e1_11","BUCKET        ",1,3,2286.419562,136.597122,"Include",316
"SD2014_e1","SD2014_e1_11","NICKEL        ",0,3,924.31865,114.079592,"Include",317
"SD2014_e1","SD2014_e1_11","TEMPER        ",1,3,1502.455679,147.454104,"Include",318
"SD2014_e1","SD2014_e1_11","CHORD         ",0,3,3494.477987,114.942175,"Include",319
"SD2014_e1","SD2014_e1_11","RIVAL         ",1,5,1455.218975,125.710168,"Include",320
"SD2014_e1","SD2014_e1_11","COURTYARD     ",0,4,3938.04996,115.349729,"Include",321
"SD2014_e1","SD2014_e1_11","EVANGELISM    ",0,1,1623.748418,126.632658,"Include",322
"SD2014_e1","SD2014_e1_11","ARCHBISHOP    ",1,4,2355.135702,626.432647,"Include",323
"SD2014_e1","SD2014_e1_11","CAPER         ",0,2,2280.718581,106.972102,"Include",324
"SD2014_e1","SD2014_e1_11","ASSASSIN      ",0,3,1536.148319,146.705499,"Include",325
"SD2014_e1","SD2014_e1_11","INSPECTOR     ",1,5,2142.458095,150.465142,"Include",326
"SD2014_e1","SD2014_e1_11","NOMINATION    ",1,5,1929.490047,267.139588,"Include",327
"SD2014_e1","SD2014_e1_11","NUISANCE      ",1,6,969.083575,156.681684,"Include",328
"SD2014_e1","SD2014_e1_11","LYRIC         ",0,3,895.710053,126.929843,"Include",329
"SD2014_e1","SD2014_e1_11","ABUNDANCE     ",1,4,3979.47556,115.216953,"Include",330
"SD2014_e1","SD2014_e1_11","PRIVACY       ",1,3,2431.703844,107.209726,"Include",331
"SD2014_e1","SD2014_e1_11","GEOMETRY      ",0,3,1120.41333,101.459546,"Include",332
"SD2014_e1","SD2014_e1_11","ADMIRATION    ",0,3,3162.670091,245.813719,"Include",333
"SD2014_e1","SD2014_e1_11","WHISPER       ",0,2,2813.09521,95.577407,"Include",334
"SD2014_e1","SD2014_e1_11","SORE          ",1,3,1181.660968,104.651724,"Include",335
"SD2014_e1","SD2014_e1_11","EARTHQUAKE    ",0,2,1429.698819,125.337557,"Include",336
"SD2014_e1","SD2014_e1_11","GRAVEL        ",1,5,1537.803397,124.528812,"Include",337
"SD2014_e1","SD2014_e1_11","NEUROSIS      ",1,4,3864.846608,1549.146916,"Include",338
"SD2014_e1","SD2014_e1_11","POKER         ",0,3,5082.912718,242.074455,"Include",339
"SD2014_e1","SD2014_e1_11","EXPECTATION   ",0,3,3241.331563,105.645603,"Include",340
"SD2014_e1","SD2014_e1_11","IVY           ",1,6,902.680486,125.313728,"Include",341
"SD2014_e1","SD2014_e1_11","EQUILIBRIUM   ",0,3,1937.750748,122.566005,"Include",342
"SD2014_e1","SD2014_e1_11","RECEPTIONIST  ",1,5,1175.202909,177.996499,"Include",343
"SD2014_e1","SD2014_e1_11","SUBURB        ",1,6,1108.094075,441.970025,"Include",344
"SD2014_e1","SD2014_e1_11","CENSUS        ",1,3,1088.470925,119.080261,"Include",345
"SD2014_e1","SD2014_e1_11","OPPRESSION    ",1,4,3987.45958,146.511576,"Include",346
"SD2014_e1","SD2014_e1_11","REPETITION    ",0,5,3398.19796,159.072656,"Include",347
"SD2014_e1","SD2014_e1_11","PULLEY        ",1,6,970.024275,141.683021,"Include",348
"SD2014_e1","SD2014_e1_11","INN           ",0,3,1041.347109,466.152554,"Include",349
"SD2014_e1","SD2014_e1_11","RIFLEMEN      ",0,2,1535.107341,122.547809,"Include",350
"SD2014_e1","SD2014_e1_11","ENVY          ",1,4,4246.882695,634.905736,"Include",351
"SD2014_e1","SD2014_e1_11","ANT           ",1,4,736.488143,110.433345,"Include",352
"SD2014_e1","SD2014_e1_11","PENSION       ",1,5,2291.481642,517.210828,"Include",353
"SD2014_e1","SD2014_e1_11","OPPONENT      ",1,3,6543.66604,1918.112039,"Include",354
"SD2014_e1","SD2014_e1_11","INFANT        ",1,6,1131.494016,144.770684,"Include",355
"SD2014_e1","SD2014_e1_11","SHAFT         ",1,6,972.30968,128.115526,"Include",356
"SD2014_e1","SD2014_e1_11","REWARD        ",1,4,2276.601356,110.661882,"Include",357
"SD2014_e1","SD2014_e1_11","RESIDUE       ",0,3,3843.7792,129.50591,"Include",358
"SD2014_e1","SD2014_e1_11","MOSS          ",0,3,2133.946112,1358.90838,"Include",359
"SD2014_e1","SD2014_e1_11","DECORATION    ",0,2,2604.620556,864.985719,"Include",360
"SD2014_e1","SD2014_e1_11","PERSECUTION   ",1,4,2092.758186,119.366442,"Include",361
"SD2014_e1","SD2014_e1_11","COCONUT       ",0,1,4131.659177,372.102391,"Include",362
"SD2014_e1","SD2014_e1_11","FITNESS       ",1,3,1549.488647,175.994398,"Include",363
"SD2014_e1","SD2014_e1_11","SCRUTINY      ",0,3,2378.179252,856.128916,"Include",364
"SD2014_e1","SD2014_e1_11","FIREWORKS     ",1,2,988.002235,1239.142722,"Include",365
"SD2014_e1","SD2014_e1_11","PARADOX       ",1,5,1754.174416,291.217587,"Include",366
"SD2014_e1","SD2014_e1_11","BUGGY         ",0,3,3312.249061,148.775168,"Include",367
"SD2014_e1","SD2014_e1_11","ROMANCE       ",1,2,1255.722022,110.789723,"Include",368
"SD2014_e1","SD2014_e1_11","QUILL         ",0,3,1931.9027,181.658777,"Include",369
"SD2014_e1","SD2014_e1_11","SUPREMACY     ",1,2,2967.242388,2123.244957,"Include",370
"SD2014_e1","SD2014_e1_11","CONVERTIBLE   ",0,2,2847.037511,1312.45812,"Include",371
"SD2014_e1","SD2014_e1_11","FUR           ",1,2,1024.460004,921.983042,"Include",372
"SD2014_e1","SD2014_e1_11","THRIFT        ",1,5,1538.997203,1181.884809,"Include",373
"SD2014_e1","SD2014_e1_11","WRIST         ",0,3,1131.641023,512.72156,"Include",374
"SD2014_e1","SD2014_e1_11","CRADLE        ",0,3,2228.180492,112.633193,"Include",375
"SD2014_e1","SD2014_e1_11","IMPATIENCE    ",1,5,1437.615927,292.936555,"Include",376
"SD2014_e1","SD2014_e1_11","ANTIQUE       ",0,2,2673.90171,171.243763,"Include",377
"SD2014_e1","SD2014_e1_11","FLOUR         ",0,6,1421.413764,141.197913,"Include",378
"SD2014_e1","SD2014_e1_11","TYPEWRITER    ",0,3,1792.915507,1088.411816,"Include",379
"SD2014_e1","SD2014_e1_11","PROCLAMATION  ",0,5,1602.192735,1234.649439,"Include",380
"SD2014_e1","SD2014_e1_11","ENZYME        ",1,6,2166.362064,1061.796498,"Include",381
"SD2014_e1","SD2014_e1_11","BALLOT        ",1,6,904.783833,135.451108,"Include",382
"SD2014_e1","SD2014_e1_11","EMBARRASSMENT ",0,3,2851.260015,124.457843,"Include",383
"SD2014_e1","SD2014_e1_11","FAREWELL      ",0,4,1160.850039,1228.364196,"Include",384
"SD2014_e1","SD2014_e1_11","STEREOTYPE    ",1,6,1336.12521,115.731847,"Include",385
"SD2014_e1","SD2014_e1_11","DEADLINE      ",1,4,2912.015279,110.308442,"Include",386
"SD2014_e1","SD2014_e1_11","ESCORT        ",1,4,2931.383301,825.014875,"Include",387
"SD2014_e1","SD2014_e1_11","RETENTION     ",0,4,3798.289946,117.495314,"Include",388
"SD2014_e1","SD2014_e1_11","RACKET        ",1,6,946.057635,111.204682,"Include",389
"SD2014_e1","SD2014_e1_11","INSTRUCTOR    ",0,5,2612.350834,135.815408,"Include",390
"SD2014_e1","SD2014_e1_11","REFUSAL       ",0,3,2539.589503,114.634018,"Include",391
"SD2014_e1","SD2014_e1_11","RIDICULE      ",0,4,3430.959978,166.45807,"Include",392
"SD2014_e1","SD2014_e1_11","DRUM          ",0,4,1728.69371,155.240537,"Include",393
"SD2014_e1","SD2014_e1_11","PHARMACY      ",0,3,1926.207365,175.754185,"Include",394
"SD2014_e1","SD2014_e1_11","DISTRESS      ",0,3,1226.069717,146.73823,"Include",395
"SD2014_e1","SD2014_e1_11","TERMINATION   ",0,4,5382.397251,144.271093,"Include",396
"SD2014_e1","SD2014_e1_11","UGLINESS      ",0,2,2347.999754,115.250897,"Include",397
"SD2014_e1","SD2014_e1_11","GLOBE         ",0,3,2071.518926,139.419086,"Include",398
"SD2014_e1","SD2014_e1_11","MOMENTUM      ",0,3,1903.229222,130.195086,"Include",399
"SD2014_e1","SD2014_e1_11","KEROSENE      ",1,5,1998.043493,948.820911,"Include",400
"SD2014_e1","SD2014_e1_13","GUERRILLA     ",1,6,2978.169082,1410.078912,"Include",1
"SD2014_e1","SD2014_e1_13","HOUSEKEEPING  ",1,6,1765.757662,398.802204,"Include",2
"SD2014_e1","SD2014_e1_13","PANTS         ",1,6,1190.676047,208.850473,"Include",3
"SD2014_e1","SD2014_e1_13","SCABBARD      ",0,2,1532.634178,639.392443,"Include",4
"SD2014_e1","SD2014_e1_13","SANCTUARY     ",0,4,2684.770115,389.490637,"Include",5
"SD2014_e1","SD2014_e1_13","PET           ",1,5,1670.025851,1738.769429,"Include",6
"SD2014_e1","SD2014_e1_13","RAILWAY       ",1,6,1527.674358,459.082352,"Include",7
"SD2014_e1","SD2014_e1_13","MOBILITY      ",0,5,1872.753439,484.684625,"Include",8
"SD2014_e1","SD2014_e1_13","COLLEAGUE     ",0,2,1296.864832,430.64798,"Include",9
"SD2014_e1","SD2014_e1_13","CALIBRATION   ",0,3,1645.719447,211.958803,"Include",10
"SD2014_e1","SD2014_e1_13","RAMP          ",1,6,964.767067,169.177749,"Include",11
"SD2014_e1","SD2014_e1_13","CARTRIDGE     ",1,6,835.413658,148.859014,"Include",12
"SD2014_e1","SD2014_e1_13","SUPERVISOR    ",1,4,2063.947289,203.792944,"Include",13
"SD2014_e1","SD2014_e1_13","ESPIONAGE     ",0,3,1420.663242,212.342557,"Include",14
"SD2014_e1","SD2014_e1_13","ANCESTOR      ",1,6,933.125544,147.16224,"Include",15
"SD2014_e1","SD2014_e1_13","BUTCHER       ",0,2,1022.002697,135.67569,"Include",16
"SD2014_e1","SD2014_e1_13","ASSAULT       ",1,5,1902.074965,593.333354,"Include",17
"SD2014_e1","SD2014_e1_13","RIDICULE      ",1,5,1145.208931,165.364678,"Include",18
"SD2014_e1","SD2014_e1_13","BEVERAGE      ",1,6,4696.784892,129.256862,"Include",19
"SD2014_e1","SD2014_e1_13","AVIATION      ",0,3,1541.537548,176.298441,"Include",20
"SD2014_e1","SD2014_e1_13","NUT           ",1,6,3097.436537,759.475649,"Include",21
"SD2014_e1","SD2014_e1_13","PHOTOGRAPHY   ",1,6,2279.817787,90.058038,"Include",22
"SD2014_e1","SD2014_e1_13","PALETTE       ",0,2,752.04359,229.495825,"Include",23
"SD2014_e1","SD2014_e1_13","POSTERIOR     ",0,1,1749.134347,183.173142,"Include",24
"SD2014_e1","SD2014_e1_13","LIMITATION    ",1,3,1377.383155,778.61248,"Include",25
"SD2014_e1","SD2014_e1_13","WALNUT        ",1,6,858.325253,139.251218,"Include",26
"SD2014_e1","SD2014_e1_13","PHYSICIST     ",0,3,1246.850857,230.832169,"Include",27
"SD2014_e1","SD2014_e1_13","MYSTIQUE      ",0,2,1790.061659,397.667303,"Include",28
"SD2014_e1","SD2014_e1_13","QUARRY        ",1,6,886.397941,189.708011,"Include",29
"SD2014_e1","SD2014_e1_13","SAX           ",1,6,679.228131,144.206457,"Include",30
"SD2014_e1","SD2014_e1_13","MUZZLE        ",0,3,788.075819,751.775686,"Include",31
"SD2014_e1","SD2014_e1_13","GUARANTEE     ",1,6,4528.016161,159.554688,"Include",32
"SD2014_e1","SD2014_e1_13","GARRISON      ",0,3,1546.494348,165.364441,"Include",33
"SD2014_e1","SD2014_e1_13","PEDESTRIAN    ",1,6,759.565122,132.683577,"Include",34
"SD2014_e1","SD2014_e1_13","STARVATION    ",1,3,2464.417703,434.515534,"Include",35
"SD2014_e1","SD2014_e1_13","ESTEEM        ",0,3,1448.877405,192.156431,"Include",36
"SD2014_e1","SD2014_e1_13","FRESCO        ",0,2,1097.507899,240.191204,"Include",37
"SD2014_e1","SD2014_e1_13","CAPER         ",1,6,863.252231,136.36596,"Include",38
"SD2014_e1","SD2014_e1_13","SEIZURE       ",1,6,811.812524,431.064121,"Include",39
"SD2014_e1","SD2014_e1_13","BOMBER        ",1,6,614.255429,138.118256,"Include",40
"SD2014_e1","SD2014_e1_13","BALLOT        ",1,2,981.81688,289.457791,"Include",41
"SD2014_e1","SD2014_e1_13","ROYALTY       ",1,6,942.471515,99.762415,"Include",42
"SD2014_e1","SD2014_e1_13","TARIFF        ",0,2,1664.874923,214.411214,"Include",43
"SD2014_e1","SD2014_e1_13","COMPASS       ",0,4,982.41233,602.158504,"Include",44
"SD2014_e1","SD2014_e1_13","OPPONENT      ",1,4,1729.202354,507.766476,"Include",45
"SD2014_e1","SD2014_e1_13","LIGHTER       ",1,4,2383.193549,172.917381,"Include",46
"SD2014_e1","SD2014_e1_13","TENNIS        ",0,3,1830.045836,140.182272,"Include",47
"SD2014_e1","SD2014_e1_13","MAP           ",0,3,943.898354,453.161475,"Include",48
"SD2014_e1","SD2014_e1_13","MANURE        ",0,4,1210.778145,756.165243,"Include",49
"SD2014_e1","SD2014_e1_13","FRAUD         ",1,5,700.626402,236.180316,"Include",50
"SD2014_e1","SD2014_e1_13","GYMNASTICS    ",0,5,1115.47779,217.28479,"Include",51
"SD2014_e1","SD2014_e1_13","RADISH        ",1,6,745.227384,183.255274,"Include",52
"SD2014_e1","SD2014_e1_13","BACTERIA      ",1,6,776.760722,149.26607,"Include",53
"SD2014_e1","SD2014_e1_13","PULSE         ",0,3,824.283986,138.576644,"Include",54
"SD2014_e1","SD2014_e1_13","ADVANCEMENT   ",1,4,1366.488127,185.115634,"Include",55
"SD2014_e1","SD2014_e1_13","GENE          ",1,6,1666.414315,128.078402,"Include",56
"SD2014_e1","SD2014_e1_13","AMBIVALENCE   ",1,5,1588.550493,157.117975,"Include",57
"SD2014_e1","SD2014_e1_13","EXEMPTION     ",1,5,807.892023,155.046717,"Include",58
"SD2014_e1","SD2014_e1_13","CEMETERY      ",0,3,1381.954151,143.958312,"Include",59
"SD2014_e1","SD2014_e1_13","INSPECTOR     ",1,2,651.682053,173.594189,"Include",60
"SD2014_e1","SD2014_e1_13","CHAIRMEN      ",1,6,1383.586083,169.73885,"Include",61
"SD2014_e1","SD2014_e1_13","MIST          ",0,2,1003.982361,134.1289,"Include",62
"SD2014_e1","SD2014_e1_13","SPARK         ",0,5,1049.759976,210.569864,"Include",63
"SD2014_e1","SD2014_e1_13","INSULATION    ",0,5,2123.308541,452.133366,"Include",64
"SD2014_e1","SD2014_e1_13","PHOSPHOR      ",0,1,2881.76788,209.600835,"Include",65
"SD2014_e1","SD2014_e1_13","TAXATION      ",0,5,962.332983,230.836777,"Include",66
"SD2014_e1","SD2014_e1_13","UNREST        ",1,5,789.923398,265.854733,"Include",67
"SD2014_e1","SD2014_e1_13","MUSKET        ",1,3,1935.629883,345.356598,"Include",68
"SD2014_e1","SD2014_e1_13","BIOLOGY       ",0,4,1700.327399,1048.205948,"Include",69
"SD2014_e1","SD2014_e1_13","GLOBE         ",1,6,812.024922,199.279546,"Include",70
"SD2014_e1","SD2014_e1_13","PLANK         ",0,3,783.927529,187.889955,"Include",71
"SD2014_e1","SD2014_e1_13","STRIFE        ",1,4,1469.226253,842.821699,"Include",72
"SD2014_e1","SD2014_e1_13","SYMBOLISM     ",1,5,2127.558047,208.522226,"Include",73
"SD2014_e1","SD2014_e1_13","THUMB         ",1,5,5745.067512,866.593672,"Include",74
"SD2014_e1","SD2014_e1_13","CAPTIVE       ",0,3,1893.961815,345.178455,"Include",75
"SD2014_e1","SD2014_e1_13","FIBERGLASS    ",0,3,8435.615167,510.945856,"Include",76
"SD2014_e1","SD2014_e1_13","PEPPER        ",0,2,1122.388857,159.663705,"Include",77
"SD2014_e1","SD2014_e1_13","FLOUR         ",1,6,1058.51148,154.550374,"Include",78
"SD2014_e1","SD2014_e1_13","DIAMOND       ",1,6,973.643688,136.990347,"Include",79
"SD2014_e1","SD2014_e1_13","MOROCCO       ",0,3,1164.843865,232.505219,"Include",80
"SD2014_e1","SD2014_e1_13","HAWK          ",0,4,1039.784218,1928.467659,"Include",81
"SD2014_e1","SD2014_e1_13","ALIBI         ",1,6,1605.2989,148.905862,"Include",82
"SD2014_e1","SD2014_e1_13","BLESSING      ",1,6,904.057837,198.81414,"Include",83
"SD2014_e1","SD2014_e1_13","AMBULANCE     ",1,5,1167.50217,226.937071,"Include",84
"SD2014_e1","SD2014_e1_13","ORGAN         ",1,5,643.252151,141.637639,"Include",85
"SD2014_e1","SD2014_e1_13","ABOLITION     ",1,5,721.196197,216.073579,"Include",86
"SD2014_e1","SD2014_e1_13","GARBAGE       ",0,3,3023.871809,2193.711618,"Include",87
"SD2014_e1","SD2014_e1_13","DYNASTY       ",1,3,1754.752588,211.967294,"Include",88
"SD2014_e1","SD2014_e1_13","EMBARRASSMENT ",0,3,940.546809,241.873161,"Include",89
"SD2014_e1","SD2014_e1_13","BLAZE         ",1,4,4632.831441,155.472097,"Include",90
"SD2014_e1","SD2014_e1_13","ECONOMIST     ",0,2,1958.365925,182.489546,"Include",91
"SD2014_e1","SD2014_e1_13","MEDAL         ",0,2,1007.980098,242.176665,"Include",92
"SD2014_e1","SD2014_e1_13","ZINC          ",0,3,6537.163112,200.59697,"Include",93
"SD2014_e1","SD2014_e1_13","LEASE         ",1,5,3769.037782,161.744703,"Include",94
"SD2014_e1","SD2014_e1_13","FORK          ",0,3,1060.756106,140.770853,"Include",95
"SD2014_e1","SD2014_e1_13","FERRY         ",1,2,912.544649,143.134173,"Include",96
"SD2014_e1","SD2014_e1_13","OUTDOORS      ",1,6,810.814587,126.091384,"Include",97
"SD2014_e1","SD2014_e1_13","GARLAND       ",0,2,906.30803,129.112833,"Include",98
"SD2014_e1","SD2014_e1_13","INDECISION    ",0,2,789.45773,145.24106,"Include",99
"SD2014_e1","SD2014_e1_13","TRICK         ",1,3,829.141399,151.49277,"Include",100
"SD2014_e1","SD2014_e1_13","ACID          ",0,3,1010.323435,212.499675,"Include",101
"SD2014_e1","SD2014_e1_13","SPOON         ",1,3,2341.250496,132.488133,"Include",102
"SD2014_e1","SD2014_e1_13","LOGGING       ",0,3,544.32585,295.134692,"Include",103
"SD2014_e1","SD2014_e1_13","LAGOON        ",1,6,3716.125096,167.036509,"Include",104
"SD2014_e1","SD2014_e1_13","FURNACE       ",1,3,5993.08232,119.67513,"Include",105
"SD2014_e1","SD2014_e1_13","GENERATOR     ",0,3,862.662691,197.150574,"Include",106
"SD2014_e1","SD2014_e1_13","MONOPOLY      ",0,2,565.872081,139.196853,"Include",107
"SD2014_e1","SD2014_e1_13","VIBRATION     ",1,5,878.858769,167.102263,"Include",108
"SD2014_e1","SD2014_e1_13","VISA          ",1,5,705.28302,184.854387,"Include",109
"SD2014_e1","SD2014_e1_13","EAGLE         ",1,5,626.406809,189.682091,"Include",110
"SD2014_e1","SD2014_e1_13","BANQUET       ",0,5,775.013746,211.477863,"Include",111
"SD2014_e1","SD2014_e1_13","IMMIGRATION   ",1,4,2676.224615,1844.87884,"Include",112
"SD2014_e1","SD2014_e1_13","SPORTSMAN     ",0,4,909.302724,180.076978,"Include",113
"SD2014_e1","SD2014_e1_13","PIANIST       ",1,6,686.208606,158.441814,"Include",114
"SD2014_e1","SD2014_e1_13","SAGA          ",1,6,713.416648,184.898914,"Include",115
"SD2014_e1","SD2014_e1_13","APRON         ",1,5,866.499548,234.533969,"Include",116
"SD2014_e1","SD2014_e1_13","MINERAL       ",0,3,817.883731,228.223616,"Include",117
"SD2014_e1","SD2014_e1_13","SHOE          ",1,3,452.211945,206.692616,"Include",118
"SD2014_e1","SD2014_e1_13","PERFUME       ",1,6,943.493548,172.757154,"Include",119
"SD2014_e1","SD2014_e1_13","BADGE         ",0,2,838.95642,176.543917,"Include",120
"SD2014_e1","SD2014_e1_13","REVOLT        ",0,2,954.793223,199.347993,"Include",121
"SD2014_e1","SD2014_e1_13","CONTRACTOR    ",1,2,1183.813566,298.756042,"Include",122
"SD2014_e1","SD2014_e1_13","GARMENT       ",0,6,1951.082205,816.188562,"Include",123
"SD2014_e1","SD2014_e1_13","SCULPTURE     ",0,4,3646.286216,236.065402,"Include",124
"SD2014_e1","SD2014_e1_13","ARENA         ",1,6,1683.315641,992.174656,"Include",125
"SD2014_e1","SD2014_e1_13","SATIN         ",0,3,894.254546,365.6328,"Include",126
"SD2014_e1","SD2014_e1_13","CARGO         ",1,6,3670.915266,260.065158,"Include",127
"SD2014_e1","SD2014_e1_13","SALAD         ",1,6,4842.377215,252.045489,"Include",128
"SD2014_e1","SD2014_e1_13","JUICE         ",0,3,1754.441059,275.557837,"Include",129
"SD2014_e1","SD2014_e1_13","CONTEMPLATION ",0,3,1545.376672,372.219996,"Include",130
"SD2014_e1","SD2014_e1_13","PARADISE      ",0,3,1453.349019,259.731217,"Include",131
"SD2014_e1","SD2014_e1_13","FOUNDER       ",0,3,850.313337,244.805436,"Include",132
"SD2014_e1","SD2014_e1_13","JUNCTION      ",0,2,442.433355,213.680537,"Include",133
"SD2014_e1","SD2014_e1_13","BARGE         ",0,2,614.471461,210.472303,"Include",134
"SD2014_e1","SD2014_e1_13","INFILTRATION  ",1,1,675.154848,676.243951,"Include",135
"SD2014_e1","SD2014_e1_13","PINEAPPLE     ",1,6,1256.11489,119.447017,"Include",136
"SD2014_e1","SD2014_e1_13","SOPHOMORE     ",0,2,2507.945525,227.708579,"Include",137
"SD2014_e1","SD2014_e1_13","PHYSICIAN     ",0,2,2035.662547,161.11781,"Include",138
"SD2014_e1","SD2014_e1_13","ACTRESS       ",0,2,1099.850887,178.785537,"Include",139
"SD2014_e1","SD2014_e1_13","MOONLIGHT     ",0,2,500.842374,156.990698,"Include",140
"SD2014_e1","SD2014_e1_13","ABUNDANCE     ",1,2,664.123671,169.80134,"Include",141
"SD2014_e1","SD2014_e1_13","GEOGRAPHY     ",1,5,924.036242,169.984714,"Include",142
"SD2014_e1","SD2014_e1_13","LUGGAGE       ",0,2,772.218059,168.873012,"Include",143
"SD2014_e1","SD2014_e1_13","JOURNALISM    ",1,6,690.964957,131.175139,"Include",144
"SD2014_e1","SD2014_e1_13","DEBUT         ",0,4,1310.922185,148.023056,"Include",145
"SD2014_e1","SD2014_e1_13","FISSION       ",1,2,726.84623,173.609642,"Include",146
"SD2014_e1","SD2014_e1_13","VENTILATION   ",1,2,815.874417,219.018485,"Include",147
"SD2014_e1","SD2014_e1_13","DEFENDANT     ",0,2,498.885048,179.267829,"Include",148
"SD2014_e1","SD2014_e1_13","PITY          ",0,2,813.524128,392.709447,"Include",149
"SD2014_e1","SD2014_e1_13","BARBER        ",0,2,641.338643,195.624192,"Include",150
"SD2014_e1","SD2014_e1_13","STAMP         ",1,5,6029.145945,370.314583,"Include",151
"SD2014_e1","SD2014_e1_13","SOPRANO       ",1,2,3715.536439,462.576515,"Include",152
"SD2014_e1","SD2014_e1_13","NOMINATION    ",0,2,772.188878,208.637526,"Include",153
"SD2014_e1","SD2014_e1_13","COMPOST       ",0,2,505.539461,202.00666,"Include",154
"SD2014_e1","SD2014_e1_13","RECONNAISSANCE",0,1,626.488151,181.928444,"Include",155
"SD2014_e1","SD2014_e1_13","FIGHTER       ",1,3,1097.277717,1119.785966,"Include",156
"SD2014_e1","SD2014_e1_13","ANKLE         ",1,5,1903.877508,291.152137,"Include",157
"SD2014_e1","SD2014_e1_13","CALCIUM       ",1,5,1040.259497,168.97111,"Include",158
"SD2014_e1","SD2014_e1_13","MOSS          ",1,4,819.189708,389.684441,"Include",159
"SD2014_e1","SD2014_e1_13","DREAD         ",1,5,2806.059912,153.650128,"Include",160
"SD2014_e1","SD2014_e1_13","PIGMENT       ",0,4,748.750959,170.602353,"Include",161
"SD2014_e1","SD2014_e1_13","ANTENNA       ",1,4,460.79514,183.269941,"Include",162
"SD2014_e1","SD2014_e1_13","OVERTURE      ",1,4,520.918865,184.463942,"Include",163
"SD2014_e1","SD2014_e1_13","PLASMA        ",0,4,713.911184,185.601424,"Include",164
"SD2014_e1","SD2014_e1_13","NEWT          ",0,4,411.275869,151.817788,"Include",165
"SD2014_e1","SD2014_e1_13","PICNIC        ",0,2,2986.609823,773.998218,"Include",166
"SD2014_e1","SD2014_e1_13","CREEK         ",0,2,749.698517,114.828358,"Include",167
"SD2014_e1","SD2014_e1_13","DRIZZLE       ",0,3,727.425565,158.191273,"Include",168
"SD2014_e1","SD2014_e1_13","PRUDENCE      ",0,2,528.988129,168.753995,"Include",169
"SD2014_e1","SD2014_e1_13","RALLY         ",1,2,354.989876,265.889663,"Include",170
"SD2014_e1","SD2014_e1_13","HUMIDITY      ",1,5,1311.808462,540.715665,"Include",171
"SD2014_e1","SD2014_e1_13","SPINE         ",0,2,830.701636,177.261545,"Include",172
"SD2014_e1","SD2014_e1_13","PURPLE        ",1,2,483.398381,196.567802,"Include",173
"SD2014_e1","SD2014_e1_13","PILGRIMAGE    ",0,2,461.992799,256.48762,"Include",174
"SD2014_e1","SD2014_e1_13","FAREWELL      ",0,2,694.962367,215.193127,"Include",175
"SD2014_e1","SD2014_e1_13","ALUMNI        ",0,3,2279.147938,177.416546,"Include",176
"SD2014_e1","SD2014_e1_13","CAFETERIA     ",1,3,915.766477,426.336114,"Include",177
"SD2014_e1","SD2014_e1_13","FRENZY        ",1,6,3721.306859,124.322348,"Include",178
"SD2014_e1","SD2014_e1_13","REFUGE        ",1,2,1328.760094,157.022468,"Include",179
"SD2014_e1","SD2014_e1_13","DEFORMATION   ",0,5,895.901958,215.315684,"Include",180
"SD2014_e1","SD2014_e1_13","PERFECTION    ",0,4,3135.340825,180.103727,"Include",181
"SD2014_e1","SD2014_e1_13","VANITY        ",0,3,1614.244238,605.882209,"Include",182
"SD2014_e1","SD2014_e1_13","LIAISON       ",0,6,1404.897409,405.536707,"Include",183
"SD2014_e1","SD2014_e1_13","CONTAINER     ",0,4,1037.487536,142.23069,"Include",184
"SD2014_e1","SD2014_e1_13","CORK          ",0,4,617.92289,125.038586,"Include",185
"SD2014_e1","SD2014_e1_13","DEPLETION     ",1,4,2201.484144,175.355277,"Include",186
"SD2014_e1","SD2014_e1_13","AGITATION     ",0,3,1137.632553,157.965654,"Include",187
"SD2014_e1","SD2014_e1_13","MISCHIEF      ",0,3,744.901885,142.956164,"Include",188
"SD2014_e1","SD2014_e1_13","HOSE          ",1,3,610.639992,142.575315,"Include",189
"SD2014_e1","SD2014_e1_13","CALF          ",1,2,610.217638,134.359879,"Include",190
"SD2014_e1","SD2014_e1_13","HURRICANE     ",0,2,745.910054,176.18474,"Include",191
"SD2014_e1","SD2014_e1_13","CURRENCY      ",0,2,578.248947,175.628975,"Include",192
"SD2014_e1","SD2014_e1_13","REVIVAL       ",0,2,577.868322,159.265467,"Include",193
"SD2014_e1","SD2014_e1_13","MINING        ",0,2,554.162682,136.351427,"Include",194
"SD2014_e1","SD2014_e1_13","DISCREPANCY   ",0,2,1220.12711,172.747602,"Include",195
"SD2014_e1","SD2014_e1_13","PASTE         ",0,2,454.925275,137.632052,"Include",196
"SD2014_e1","SD2014_e1_13","CAPSULE       ",0,2,501.378133,141.683113,"Include",197
"SD2014_e1","SD2014_e1_13","LAYER         ",1,2,457.344413,155.881277,"Include",198
"SD2014_e1","SD2014_e1_13","DOCUMENT      ",1,2,526.963761,182.454408,"Include",199
"SD2014_e1","SD2014_e1_13","DONOR         ",1,2,439.983271,155.318746,"Include",200
"SD2014_e1","SD2014_e1_13","HEEL          ",0,3,3185.387805,115.24652,"Include",201
"SD2014_e1","SD2014_e1_13","MASK          ",0,3,647.648457,154.111761,"Include",202
"SD2014_e1","SD2014_e1_13","CONTRADICTION ",1,2,1100.219673,154.173821,"Include",203
"SD2014_e1","SD2014_e1_13","TENOR         ",0,2,725.12508,155.988479,"Include",204
"SD2014_e1","SD2014_e1_13","BALCONY       ",0,2,1294.869281,204.565692,"Include",205
"SD2014_e1","SD2014_e1_13","DISARMAMENT   ",0,2,677.32067,166.411792,"Include",206
"SD2014_e1","SD2014_e1_13","DIAGNOSIS     ",1,5,2202.577154,752.45479,"Include",207
"SD2014_e1","SD2014_e1_13","RAT           ",1,6,1200.843556,154.951631,"Include",208
"SD2014_e1","SD2014_e1_13","HAMPER        ",0,2,941.870418,147.224849,"Include",209
"SD2014_e1","SD2014_e1_13","HEIR          ",1,2,734.061766,148.067288,"Include",210
"SD2014_e1","SD2014_e1_13","HUNCH         ",0,2,631.142898,146.386696,"Include",211
"SD2014_e1","SD2014_e1_13","FORGIVENESS   ",0,2,717.801925,140.684886,"Include",212
"SD2014_e1","SD2014_e1_13","WHIG          ",0,2,746.719038,142.487874,"Include",213
"SD2014_e1","SD2014_e1_13","RIBBON        ",1,6,1010.152652,132.355123,"Include",214
"SD2014_e1","SD2014_e1_13","PENALTY       ",0,2,824.088639,138.49848,"Include",215
"SD2014_e1","SD2014_e1_13","COFFIN        ",1,6,694.190049,110.635793,"Include",216
"SD2014_e1","SD2014_e1_13","MARTYR        ",1,6,1009.972981,124.132383,"Include",217
"SD2014_e1","SD2014_e1_13","CAB           ",0,6,776.508305,117.100085,"Include",218
"SD2014_e1","SD2014_e1_13","REMINDER      ",0,6,865.490936,146.492969,"Include",219
"SD2014_e1","SD2014_e1_13","RESIGNATION   ",0,3,2174.039244,108.678757,"Include",220
"SD2014_e1","SD2014_e1_13","GRUMBLE       ",1,6,991.287496,482.508386,"Include",221
"SD2014_e1","SD2014_e1_13","ARTILLERY     ",1,6,1182.673412,129.380967,"Include",222
"SD2014_e1","SD2014_e1_13","LEGACY        ",0,2,917.784814,147.786794,"Include",223
"SD2014_e1","SD2014_e1_13","SALOON        ",1,2,878.689095,190.865989,"Include",224
"SD2014_e1","SD2014_e1_13","COLLISION     ",1,6,880.31853,144.466375,"Include",225
"SD2014_e1","SD2014_e1_13","TAPESTRY      ",0,5,1076.122617,131.492048,"Include",226
"SD2014_e1","SD2014_e1_13","SOLVENT       ",0,4,919.191307,133.112515,"Include",227
"SD2014_e1","SD2014_e1_13","RAZOR         ",1,6,680.847374,209.842308,"Include",228
"SD2014_e1","SD2014_e1_13","COWARD        ",1,6,874.571232,122.752757,"Include",229
"SD2014_e1","SD2014_e1_13","CARNIVAL      ",0,5,1719.120977,314.319479,"Include",230
"SD2014_e1","SD2014_e1_13","LINEN         ",1,4,1006.04927,144.195051,"Include",231
"SD2014_e1","SD2014_e1_13","BASIN         ",0,4,619.945912,135.28901,"Include",232
"SD2014_e1","SD2014_e1_13","PRISONER      ",0,2,698.997696,195.082643,"Include",233
"SD2014_e1","SD2014_e1_13","NUCLEUS       ",0,2,812.528757,159.594019,"Include",234
"SD2014_e1","SD2014_e1_13","EDEN          ",1,6,658.603191,100.461711,"Include",235
"SD2014_e1","SD2014_e1_13","SAILOR        ",1,6,817.543146,91.803309,"Include",236
"SD2014_e1","SD2014_e1_13","TERRIER       ",1,6,945.909873,151.064529,"Include",237
"SD2014_e1","SD2014_e1_13","LIVELIHOOD    ",1,2,1058.036541,202.022283,"Include",238
"SD2014_e1","SD2014_e1_13","CENTENNIAL    ",0,2,1274.677208,209.33407,"Include",239
"SD2014_e1","SD2014_e1_13","COLUMNIST     ",0,2,601.892897,173.795203,"Include",240
"SD2014_e1","SD2014_e1_13","BULB          ",0,2,808.042284,155.301924,"Include",241
"SD2014_e1","SD2014_e1_13","GHOST         ",1,2,838.298831,167.753109,"Include",242
"SD2014_e1","SD2014_e1_13","COMPLIANCE    ",0,2,785.954645,165.908839,"Include",243
"SD2014_e1","SD2014_e1_13","STRAW         ",1,2,687.967479,136.301099,"Include",244
"SD2014_e1","SD2014_e1_13","CHAP          ",1,2,563.964087,146.325556,"Include",245
"SD2014_e1","SD2014_e1_13","PATRIOT       ",0,2,645.822762,160.261344,"Include",246
"SD2014_e1","SD2014_e1_13","CONGRESSMEN   ",1,5,1043.259838,532.085184,"Include",247
"SD2014_e1","SD2014_e1_13","ECHO          ",1,6,1182.076024,176.978653,"Include",248
"SD2014_e1","SD2014_e1_13","THERAPY       ",0,2,947.144616,144.445251,"Include",249
"SD2014_e1","SD2014_e1_13","BLAST         ",1,2,755.992928,161.150169,"Include",250
"SD2014_e1","SD2014_e1_13","COCONUT       ",1,2,772.37482,392.898576,"Include",251
"SD2014_e1","SD2014_e1_13","DISGUISE      ",1,2,665.367631,147.160623,"Include",252
"SD2014_e1","SD2014_e1_13","NITROGEN      ",1,2,478.156846,151.974915,"Include",253
"SD2014_e1","SD2014_e1_13","ACQUAINTANCE  ",1,2,698.883712,187.146299,"Include",254
"SD2014_e1","SD2014_e1_13","CELLULOSE     ",0,2,692.701619,165.079553,"Include",255
"SD2014_e1","SD2014_e1_13","PANSY         ",0,2,655.228826,145.003409,"Include",256
"SD2014_e1","SD2014_e1_13","SHERRY        ",0,2,524.624469,116.159027,"Include",257
"SD2014_e1","SD2014_e1_13","ASH           ",1,2,560.729139,166.715219,"Include",258
"SD2014_e1","SD2014_e1_13","SUPPRESSION   ",0,2,593.137596,141.766523,"Include",259
"SD2014_e1","SD2014_e1_13","TUB           ",0,2,609.381855,157.433513,"Include",260
"SD2014_e1","SD2014_e1_13","MONKEY        ",1,6,1352.324115,98.989663,"Include",261
"SD2014_e1","SD2014_e1_13","LEGISLATOR    ",0,2,544.282158,159.234982,"Include",262
"SD2014_e1","SD2014_e1_13","FISHERMAN     ",1,6,3649.943392,519.861233,"Include",263
"SD2014_e1","SD2014_e1_13","VIOLIN        ",0,2,610.595873,142.500074,"Include",264
"SD2014_e1","SD2014_e1_13","ORATOR        ",0,2,466.27113,164.026575,"Include",265
"SD2014_e1","SD2014_e1_13","DIRECTORY     ",1,2,550.226492,164.467447,"Include",266
"SD2014_e1","SD2014_e1_13","FITNESS       ",0,2,550.657039,149.001913,"Include",267
"SD2014_e1","SD2014_e1_13","BOOT          ",1,6,839.834101,137.457815,"Include",268
"SD2014_e1","SD2014_e1_13","GUARDIAN      ",1,2,453.133915,151.728265,"Include",269
"SD2014_e1","SD2014_e1_13","COURTESY      ",0,2,418.636982,174.659745,"Include",270
"SD2014_e1","SD2014_e1_13","CRUELTY       ",0,2,488.89256,161.947156,"Include",271
"SD2014_e1","SD2014_e1_13","PARADOX       ",0,2,508.894637,181.26514,"Include",272
"SD2014_e1","SD2014_e1_13","CARDINAL      ",1,2,534.749061,157.66229,"Include",273
"SD2014_e1","SD2014_e1_13","SCEPTICISM    ",1,2,608.710296,188.468573,"Include",274
"SD2014_e1","SD2014_e1_13","DESOLATION    ",1,2,526.072348,197.617984,"Include",275
"SD2014_e1","SD2014_e1_13","ORDINANCE     ",1,6,942.439233,99.788384,"Include",276
"SD2014_e1","SD2014_e1_13","OYSTER        ",0,2,512.92605,185.164781,"Include",277
"SD2014_e1","SD2014_e1_13","URANIUM       ",1,3,514.708419,1203.203414,"Include",278
"SD2014_e1","SD2014_e1_13","APPETITE      ",0,4,2207.595889,484.675822,"Include",279
"SD2014_e1","SD2014_e1_13","TIGER         ",0,2,960.83681,197.352085,"Include",280
"SD2014_e1","SD2014_e1_13","TEMPER        ",0,2,566.139828,155.517756,"Include",281
"SD2014_e1","SD2014_e1_13","PROBATION     ",0,2,606.566911,202.416378,"Include",282
"SD2014_e1","SD2014_e1_13","CARAVAN       ",1,2,547.181747,154.202614,"Include",283
"SD2014_e1","SD2014_e1_13","SORE          ",1,2,580.991389,170.554056,"Include",284
"SD2014_e1","SD2014_e1_13","SCRUTINY      ",0,2,484.681069,181.829981,"Include",285
"SD2014_e1","SD2014_e1_13","INJECTION     ",0,2,623.217206,154.412745,"Include",286
"SD2014_e1","SD2014_e1_13","VIRUS         ",1,3,349.427003,700.400376,"Include",287
"SD2014_e1","SD2014_e1_13","TENURE        ",0,4,1143.060915,163.563665,"Include",288
"SD2014_e1","SD2014_e1_13","BRACE         ",0,2,437.596253,168.816661,"Include",289
"SD2014_e1","SD2014_e1_13","BUGGY         ",0,2,507.147574,203.491928,"Include",290
"SD2014_e1","SD2014_e1_13","ARCHITECTURE  ",0,2,300.28781,173.396521,"Include",291
"SD2014_e1","SD2014_e1_13","SURGERY       ",1,6,983.711629,122.55306,"Include",292
"SD2014_e1","SD2014_e1_13","FORMULAE      ",1,6,1327.233175,155.298829,"Include",293
"SD2014_e1","SD2014_e1_13","SIGNATURE     ",0,2,3534.200539,153.147224,"Include",294
"SD2014_e1","SD2014_e1_13","LANTERN       ",0,2,748.13169,194.243073,"Include",295
"SD2014_e1","SD2014_e1_13","PHARMACY      ",1,6,3595.570256,251.6543,"Include",296
"SD2014_e1","SD2014_e1_13","BAYONET       ",1,2,626.011619,205.370597,"Include",297
"SD2014_e1","SD2014_e1_13","DELEGATE      ",0,2,638.19947,160.487724,"Include",298
"SD2014_e1","SD2014_e1_13","STEALTH       ",1,6,1043.545194,124.462973,"Include",299
"SD2014_e1","SD2014_e1_13","TERMINATION   ",1,4,1184.75994,1362.874806,"Include",300
"SD2014_e1","SD2014_e1_13","APPRENTICE    ",1,2,1896.740852,155.921801,"Include",301
"SD2014_e1","SD2014_e1_13","TORSO         ",0,2,4606.817963,138.558383,"Include",302
"SD2014_e1","SD2014_e1_13","MENACE        ",1,2,558.33608,164.506366,"Include",303
"SD2014_e1","SD2014_e1_13","DOUGH         ",0,2,430.755764,186.740458,"Include",304
"SD2014_e1","SD2014_e1_13","BARLEY        ",1,2,396.358062,193.728488,"Include",305
"SD2014_e1","SD2014_e1_13","IRRITATION    ",1,2,523.274038,178.864936,"Include",306
"SD2014_e1","SD2014_e1_13","TRAILER       ",1,2,605.028789,152.995805,"Include",307
"SD2014_e1","SD2014_e1_13","IMPATIENCE    ",0,2,443.991447,199.27413,"Include",308
"SD2014_e1","SD2014_e1_13","SANITATION    ",1,2,992.047226,163.050114,"Include",309
"SD2014_e1","SD2014_e1_13","SOLICITOR     ",1,2,478.021144,135.780892,"Include",310
"SD2014_e1","SD2014_e1_13","SHOVEL        ",1,2,619.527762,94.806161,"Include",311
"SD2014_e1","SD2014_e1_13","TURMOIL       ",0,2,524.66031,116.223356,"Include",312
"SD2014_e1","SD2014_e1_13","CRIB          ",0,2,504.68152,137.006002,"Include",313
"SD2014_e1","SD2014_e1_13","EPIDEMIC      ",0,2,812.894648,248.079836,"Include",314
"SD2014_e1","SD2014_e1_13","HAVEN         ",0,2,566.494543,155.757189,"Include",315
"SD2014_e1","SD2014_e1_13","REPRODUCTION  ",0,2,1350.695207,194.378557,"Include",316
"SD2014_e1","SD2014_e1_13","TRUNK         ",0,2,1307.750551,224.709926,"Include",317
"SD2014_e1","SD2014_e1_13","INNOVATION    ",0,2,528.807386,200.521463,"Include",318
"SD2014_e1","SD2014_e1_13","LIME          ",1,6,713.118327,128.577898,"Include",319
"SD2014_e1","SD2014_e1_13","EXPECTATION   ",0,2,629.042803,160.334417,"Include",320
"SD2014_e1","SD2014_e1_13","TENACITY      ",1,2,651.317612,157.001176,"Include",321
"SD2014_e1","SD2014_e1_13","COLOGNE       ",0,2,687.860894,168.126828,"Include",322
"SD2014_e1","SD2014_e1_13","WILDERNESS    ",0,2,490.27975,163.453789,"Include",323
"SD2014_e1","SD2014_e1_13","SHINE         ",0,2,430.454154,170.452666,"Include",324
"SD2014_e1","SD2014_e1_13","DRAINAGE      ",1,2,468.732115,198.54015,"Include",325
"SD2014_e1","SD2014_e1_13","PONY          ",1,6,695.318923,111.591098,"Include",326
"SD2014_e1","SD2014_e1_13","BALLOON       ",0,2,708.713036,148.187601,"Include",327
"SD2014_e1","SD2014_e1_13","CURTAIN       ",0,2,399.230796,155.935953,"Include",328
"SD2014_e1","SD2014_e1_13","GRANDSON      ",0,2,830.995259,417.376966,"Include",329
"SD2014_e1","SD2014_e1_13","PARENT        ",0,2,576.446846,133.983883,"Include",330
"SD2014_e1","SD2014_e1_13","SHAFT         ",1,2,1281.607381,176.130093,"Include",331
"SD2014_e1","SD2014_e1_13","IMAGERY       ",0,2,666.273366,163.415453,"Include",332
"SD2014_e1","SD2014_e1_13","DELICACY      ",0,2,526.153753,157.838169,"Include",333
"SD2014_e1","SD2014_e1_13","HYPOCRISY     ",0,2,592.857069,165.558998,"Include",334
"SD2014_e1","SD2014_e1_13","ADAPTATION    ",0,6,1071.633182,102.894785,"Include",335
"SD2014_e1","SD2014_e1_13","MEMBRANE      ",1,2,492.172622,133.211736,"Include",336
"SD2014_e1","SD2014_e1_13","ULCER         ",1,5,656.928315,498.673079,"Include",337
"SD2014_e1","SD2014_e1_13","PUMP          ",0,4,3659.563896,153.415886,"Include",338
"SD2014_e1","SD2014_e1_13","RELIC         ",1,6,1068.37594,107.681017,"Include",339
"SD2014_e1","SD2014_e1_13","DYNAMITE      ",1,6,1912.963274,99.260289,"Include",340
"SD2014_e1","SD2014_e1_13","CATASTROPHE   ",0,2,1096.420155,142.992262,"Include",341
"SD2014_e1","SD2014_e1_13","BREAST        ",1,6,634.72791,85.168398,"Include",342
"SD2014_e1","SD2014_e1_13","BETRAYAL      ",0,2,739.154498,153.276581,"Include",343
"SD2014_e1","SD2014_e1_13","KITTEN        ",0,2,644.222873,150.635582,"Include",344
"SD2014_e1","SD2014_e1_13","SCREAM        ",0,2,553.489008,151.730708,"Include",345
"SD2014_e1","SD2014_e1_13","MARTINI       ",0,2,642.574314,141.101797,"Include",346
"SD2014_e1","SD2014_e1_13","WRECK         ",1,2,440.747726,164.286382,"Include",347
"SD2014_e1","SD2014_e1_13","TEMPTATION    ",0,2,654.288954,176.035421,"Include",348
"SD2014_e1","SD2014_e1_13","BRAZIL        ",0,2,826.230703,148.565527,"Include",349
"SD2014_e1","SD2014_e1_13","TIN           ",1,6,767.615842,324.330946,"Include",350
"SD2014_e1","SD2014_e1_13","RECRUITMENT   ",0,2,719.744911,142.443652,"Include",351
"SD2014_e1","SD2014_e1_13","PLEA          ",1,6,666.228944,83.275838,"Include",352
"SD2014_e1","SD2014_e1_13","HICKORY       ",0,2,697.09647,169.324608,"Include",353
"SD2014_e1","SD2014_e1_13","CHAMPAGNE     ",1,2,403.631179,152.302899,"Include",354
"SD2014_e1","SD2014_e1_13","DEBRIS        ",0,2,603.446607,167.420293,"Include",355
"SD2014_e1","SD2014_e1_13","INSOLENCE     ",1,2,497.525245,154.555972,"Include",356
"SD2014_e1","SD2014_e1_13","RUST          ",0,2,925.691842,147.578791,"Include",357
"SD2014_e1","SD2014_e1_13","SUNDOWN       ",0,2,614.531253,162.350046,"Include",358
"SD2014_e1","SD2014_e1_13","STRONGHOLD    ",1,6,941.24329,106.531799,"Include",359
"SD2014_e1","SD2014_e1_13","SLATE         ",0,2,687.688932,143.969367,"Include",360
"SD2014_e1","SD2014_e1_13","STAIRCASE     ",1,2,499.637126,204.038911,"Include",361
"SD2014_e1","SD2014_e1_13","ANTISEPTIC    ",1,6,892.748523,163.805567,"Include",362
"SD2014_e1","SD2014_e1_13","THESIS        ",1,6,958.371086,99.030022,"Include",363
"SD2014_e1","SD2014_e1_13","SUNSHINE      ",1,2,704.03923,151.595392,"Include",364
"SD2014_e1","SD2014_e1_13","SATIRE        ",1,2,602.581309,150.491398,"Include",365
"SD2014_e1","SD2014_e1_13","DISORDER      ",1,6,1033.381691,131.058206,"Include",366
"SD2014_e1","SD2014_e1_13","LAUNDRY       ",1,6,950.550054,115.067443,"Include",367
"SD2014_e1","SD2014_e1_13","REGRESSION    ",1,6,1071.577416,102.843088,"Include",368
"SD2014_e1","SD2014_e1_13","LOCUST        ",0,2,724.109044,146.761273,"Include",369
"SD2014_e1","SD2014_e1_13","TRUMPET       ",1,2,494.397074,159.541001,"Include",370
"SD2014_e1","SD2014_e1_13","TEXTURE       ",1,2,610.470662,150.471272,"Include",371
"SD2014_e1","SD2014_e1_13","HEMORRHAGE    ",0,2,593.360454,158.24891,"Include",372
"SD2014_e1","SD2014_e1_13","SELLER        ",0,2,433.031686,132.333203,"Include",373
"SD2014_e1","SD2014_e1_13","CARCASS       ",1,2,400.066926,156.797424,"Include",374
"SD2014_e1","SD2014_e1_13","OBSTACLE      ",1,2,407.866765,148.710792,"Include",375
"SD2014_e1","SD2014_e1_13","SWEATER       ",1,2,495.57491,168.722585,"Include",376
"SD2014_e1","SD2014_e1_13","WARRIOR       ",0,4,1754.824282,500.143994,"Include",377
"SD2014_e1","SD2014_e1_13","CAVITY        ",1,6,935.381565,124.675923,"Include",378
"SD2014_e1","SD2014_e1_13","SCRATCH       ",0,2,705.107417,152.578435,"Include",379
"SD2014_e1","SD2014_e1_13","HAMLET        ",1,6,667.534006,92.515168,"Include",380
"SD2014_e1","SD2014_e1_13","VETO          ",0,2,610.57445,134.370057,"Include",381
"SD2014_e1","SD2014_e1_13","SACK          ",0,2,633.977604,148.759061,"Include",382
"SD2014_e1","SD2014_e1_13","RESTRICTION   ",1,2,455.36473,154.027925,"Include",383
"SD2014_e1","SD2014_e1_13","RELAXATION    ",1,2,445.025657,184.231219,"Include",384
"SD2014_e1","SD2014_e1_13","SPONGE        ",1,6,857.702724,98.685806,"Include",385
"SD2014_e1","SD2014_e1_13","CHOCOLATE     ",1,2,759.902971,141.176054,"Include",386
"SD2014_e1","SD2014_e1_13","PAD           ",0,2,504.79099,161.339198,"Include",387
"SD2014_e1","SD2014_e1_13","COMMUTER      ",1,2,692.238201,140.495402,"Include",388
"SD2014_e1","SD2014_e1_13","HOSTESS       ",1,6,616.222538,91.438756,"Include",389
"SD2014_e1","SD2014_e1_13","INHERITANCE   ",0,2,457.262248,131.725447,"Include",390
"SD2014_e1","SD2014_e1_13","SHOWER        ",1,2,343.433875,159.262121,"Include",391
