"exp","id","isold","condition1","condition2","rating","RT","excluding","trial"
"SSW2015_e3","SSW2015_e3_21",0,"Younger","UnrelatedLures",1,"98.2","Include",1
"SSW2015_e3","SSW2015_e3_21",0,"Younger","RelatedLures",4,"1493.2","Include",2
"SSW2015_e3","SSW2015_e3_21",1,"Younger","Studied",4,"1223.3","Include",3
"SSW2015_e3","SSW2015_e3_21",1,"Younger","Studied",4,"850.6","Include",4
"SSW2015_e3","SSW2015_e3_21",1,"Younger","Studied",4,"867.1","Include",5
"SSW2015_e3","SSW2015_e3_21",0,"Younger","RelatedLures",3,"1518.1","Include",6
"SSW2015_e3","SSW2015_e3_21",0,"Younger","UnrelatedLures",1,"1377","Include",7
"SSW2015_e3","SSW2015_e3_21",0,"Younger","UnrelatedLures",1,"713.7","Include",8
"SSW2015_e3","SSW2015_e3_21",0,"Younger","UnrelatedLures",1,"818.7","Include",9
"SSW2015_e3","SSW2015_e3_21",0,"Younger","UnrelatedLures",1,"1466.4","Include",10
"SSW2015_e3","SSW2015_e3_21",1,"Younger","Studied",4,"1143.4000000000001","Include",11
"SSW2015_e3","SSW2015_e3_21",0,"Younger","UnrelatedLures",1,"973.5","Include",12
"SSW2015_e3","SSW2015_e3_21",0,"Younger","RelatedLures",2,"1956.3","Include",13
"SSW2015_e3","SSW2015_e3_21",0,"Younger","UnrelatedLures",1,"1061.7","Include",14
"SSW2015_e3","SSW2015_e3_21",0,"Younger","RelatedLures",1,"1594","Include",15
"SSW2015_e3","SSW2015_e3_21",1,"Younger","Studied",4,"1152.0999999999999","Include",16
"SSW2015_e3","SSW2015_e3_21",1,"Younger","Studied",4,"847.1","Include",17
"SSW2015_e3","SSW2015_e3_21",1,"Younger","Studied",1,"1191.5999999999999","Include",18
"SSW2015_e3","SSW2015_e3_21",0,"Younger","RelatedLures",1,"762.6","Include",19
"SSW2015_e3","SSW2015_e3_21",0,"Younger","UnrelatedLures",1,"712.6","Include",20
"SSW2015_e3","SSW2015_e3_21",0,"Younger","RelatedLures",1,"1793.5","Include",21
"SSW2015_e3","SSW2015_e3_21",0,"Younger","UnrelatedLures",1,"855.9","Include",22
"SSW2015_e3","SSW2015_e3_21",0,"Younger","RelatedLures",2,"3132","Include",23
"SSW2015_e3","SSW2015_e3_21",1,"Younger","Studied",4,"1387.3","Include",24
"SSW2015_e3","SSW2015_e3_21",0,"Younger","RelatedLures",1,"1735.8","Include",25
"SSW2015_e3","SSW2015_e3_21",1,"Younger","Studied",4,"1074","Include",26
"SSW2015_e3","SSW2015_e3_21",0,"Younger","RelatedLures",4,"911.3","Include",27
"SSW2015_e3","SSW2015_e3_21",0,"Younger","UnrelatedLures",1,"1607.7","Include",28
"SSW2015_e3","SSW2015_e3_21",1,"Younger","Studied",4,"1262.9000000000001","Include",29
"SSW2015_e3","SSW2015_e3_21",0,"Younger","UnrelatedLures",1,"1166.4000000000001","Include",30
"SSW2015_e3","SSW2015_e3_21",0,"Younger","UnrelatedLures",1,"1443.2","Include",31
"SSW2015_e3","SSW2015_e3_21",0,"Younger","UnrelatedLures",1,"1197.9000000000001","Include",32
"SSW2015_e3","SSW2015_e3_21",0,"Younger","UnrelatedLures",1,"672.5","Include",33
"SSW2015_e3","SSW2015_e3_21",1,"Younger","Studied",4,"898.7","Include",34
"SSW2015_e3","SSW2015_e3_21",0,"Younger","UnrelatedLures",1,"1193.4000000000001","Include",35
"SSW2015_e3","SSW2015_e3_21",0,"Younger","UnrelatedLures",1,"721.6","Include",36
"SSW2015_e3","SSW2015_e3_21",0,"Younger","RelatedLures",4,"1069.8","Include",37
"SSW2015_e3","SSW2015_e3_21",0,"Younger","UnrelatedLures",1,"962.7","Include",38
"SSW2015_e3","SSW2015_e3_21",0,"Younger","RelatedLures",4,"1138.9000000000001","Include",39
"SSW2015_e3","SSW2015_e3_21",0,"Younger","RelatedLures",4,"1150","Include",40
"SSW2015_e3","SSW2015_e3_21",1,"Younger","Studied",4,"1150","Include",41
"SSW2015_e3","SSW2015_e3_21",1,"Younger","Studied",4,"984.7","Include",42
"SSW2015_e3","SSW2015_e3_21",0,"Younger","RelatedLures",1,"867.6","Include",43
"SSW2015_e3","SSW2015_e3_21",1,"Younger","Studied",4,"903.9","Include",44
"SSW2015_e3","SSW2015_e3_21",0,"Younger","RelatedLures",1,"641.29999999999995","Include",45
"SSW2015_e3","SSW2015_e3_21",0,"Younger","UnrelatedLures",1,"882.6","Include",46
"SSW2015_e3","SSW2015_e3_21",1,"Younger","Studied",1,"1062.9000000000001","Include",47
"SSW2015_e3","SSW2015_e3_21",0,"Younger","RelatedLures",4,"1421.2","Include",48
"SSW2015_e3","SSW2015_e3_21",1,"Younger","Studied",1,"1717.1","Include",49
"SSW2015_e3","SSW2015_e3_21",0,"Younger","RelatedLures",4,"1607.2","Include",50
"SSW2015_e3","SSW2015_e3_21",0,"Younger","RelatedLures",4,"842.2","Include",51
"SSW2015_e3","SSW2015_e3_21",0,"Younger","RelatedLures",4,"1934.8","Include",52
"SSW2015_e3","SSW2015_e3_21",0,"Younger","UnrelatedLures",1,"1407.6","Include",53
"SSW2015_e3","SSW2015_e3_21",0,"Younger","UnrelatedLures",1,"633.20000000000005","Include",54
"SSW2015_e3","SSW2015_e3_21",1,"Younger","Studied",4,"1017","Include",55
"SSW2015_e3","SSW2015_e3_21",0,"Younger","RelatedLures",3,"33.5","Include",56
"SSW2015_e3","SSW2015_e3_21",0,"Younger","RelatedLures",4,"985.4","Include",57
"SSW2015_e3","SSW2015_e3_21",1,"Younger","Studied",1,"877","Include",58
"SSW2015_e3","SSW2015_e3_21",0,"Younger","UnrelatedLures",1,"1566.1","Include",59
"SSW2015_e3","SSW2015_e3_21",0,"Younger","RelatedLures",4,"1045","Include",60
"SSW2015_e3","SSW2015_e3_21",1,"Younger","Studied",4,"976.4","Include",61
"SSW2015_e3","SSW2015_e3_21",1,"Younger","Studied",4,"989.2","Include",62
"SSW2015_e3","SSW2015_e3_21",0,"Younger","UnrelatedLures",1,"879.2","Include",63
"SSW2015_e3","SSW2015_e3_21",0,"Younger","UnrelatedLures",1,"868.1","Include",64
"SSW2015_e3","SSW2015_e3_21",1,"Younger","Studied",4,"1091.7","Include",65
"SSW2015_e3","SSW2015_e3_21",0,"Younger","UnrelatedLures",1,"955","Include",66
"SSW2015_e3","SSW2015_e3_21",0,"Younger","RelatedLures",2,"228.1","Include",67
"SSW2015_e3","SSW2015_e3_21",0,"Younger","RelatedLures",3,"1981.2","Include",68
"SSW2015_e3","SSW2015_e3_21",0,"Younger","UnrelatedLures",1,"1008.4","Include",69
"SSW2015_e3","SSW2015_e3_21",1,"Younger","Studied",4,"970.4","Include",70
"SSW2015_e3","SSW2015_e3_21",0,"Younger","RelatedLures",3,"1345.1","Include",71
"SSW2015_e3","SSW2015_e3_21",1,"Younger","Studied",4,"1063.5999999999999","Include",72
"SSW2015_e3","SSW2015_e3_21",0,"Younger","UnrelatedLures",1,"1031.2","Include",73
"SSW2015_e3","SSW2015_e3_21",0,"Younger","RelatedLures",4,"1551.7","Include",74
"SSW2015_e3","SSW2015_e3_21",0,"Younger","RelatedLures",3,"1340.5","Include",75
"SSW2015_e3","SSW2015_e3_21",0,"Younger","UnrelatedLures",1,"872.8","Include",76
"SSW2015_e3","SSW2015_e3_21",0,"Younger","UnrelatedLures",1,"667.7","Include",77
"SSW2015_e3","SSW2015_e3_21",1,"Younger","Studied",3,"1906.2","Include",78
"SSW2015_e3","SSW2015_e3_21",1,"Younger","Studied",4,"1216.8","Include",79
"SSW2015_e3","SSW2015_e3_21",1,"Younger","Studied",4,"713.6","Include",80
"SSW2015_e3","SSW2015_e3_21",0,"Younger","RelatedLures",3,"1583.2","Include",81
"SSW2015_e3","SSW2015_e3_21",0,"Younger","UnrelatedLures",1,"1361.7","Include",82
"SSW2015_e3","SSW2015_e3_21",0,"Younger","RelatedLures",3,"52.7","Include",83
"SSW2015_e3","SSW2015_e3_21",1,"Younger","Studied",4,"771.9","Include",84
"SSW2015_e3","SSW2015_e3_21",0,"Younger","UnrelatedLures",1,"1217.9000000000001","Include",85
"SSW2015_e3","SSW2015_e3_21",0,"Younger","UnrelatedLures",1,"776.9","Include",86
"SSW2015_e3","SSW2015_e3_21",0,"Younger","RelatedLures",1,"838.6","Include",87
"SSW2015_e3","SSW2015_e3_21",0,"Younger","RelatedLures",4,"1117.3","Include",88
"SSW2015_e3","SSW2015_e3_21",0,"Younger","UnrelatedLures",1,"887.6","Include",89
"SSW2015_e3","SSW2015_e3_21",0,"Younger","UnrelatedLures",1,"794","Include",90
"SSW2015_e3","SSW2015_e3_21",0,"Younger","UnrelatedLures",1,"1440.8","Include",91
"SSW2015_e3","SSW2015_e3_21",0,"Younger","RelatedLures",4,"1053","Include",92
"SSW2015_e3","SSW2015_e3_21",1,"Younger","Studied",4,"804.8","Include",93
"SSW2015_e3","SSW2015_e3_21",0,"Younger","RelatedLures",1,"429.1","Include",94
"SSW2015_e3","SSW2015_e3_21",0,"Younger","RelatedLures",3,"111.4","Include",95
"SSW2015_e3","SSW2015_e3_21",0,"Younger","RelatedLures",1,"1462.9","Include",96
"SSW2015_e3","SSW2015_e3_21",1,"Younger","Studied",4,"1335.2","Include",97
"SSW2015_e3","SSW2015_e3_21",1,"Younger","Studied",2,"1559.8","Include",98
"SSW2015_e3","SSW2015_e3_21",0,"Younger","UnrelatedLures",1,"1164.3","Include",99
"SSW2015_e3","SSW2015_e3_21",0,"Younger","RelatedLures",4,"1136.7","Include",100
"SSW2015_e3","SSW2015_e3_21",0,"Younger","UnrelatedLures",1,"1062.4000000000001","Include",101
"SSW2015_e3","SSW2015_e3_21",0,"Younger","UnrelatedLures",1,"836.2","Include",102
"SSW2015_e3","SSW2015_e3_21",0,"Younger","RelatedLures",4,"834","Include",103
"SSW2015_e3","SSW2015_e3_21",0,"Younger","RelatedLures",3,"1779.5","Include",104
"SSW2015_e3","SSW2015_e3_21",0,"Younger","UnrelatedLures",1,"1210.4000000000001","Include",105
"SSW2015_e3","SSW2015_e3_21",0,"Younger","UnrelatedLures",1,"581.9","Include",106
"SSW2015_e3","SSW2015_e3_21",1,"Younger","Studied",1,"818.1","Include",107
"SSW2015_e3","SSW2015_e3_21",0,"Younger","RelatedLures",4,"1072.5","Include",108
"SSW2015_e3","SSW2015_e3_21",0,"Younger","RelatedLures",4,"1059.4000000000001","Include",109
"SSW2015_e3","SSW2015_e3_21",0,"Younger","RelatedLures",4,"1188.5999999999999","Include",110
"SSW2015_e3","SSW2015_e3_21",1,"Younger","Studied",4,"721.1","Include",111
"SSW2015_e3","SSW2015_e3_21",1,"Younger","Studied",4,"634.9","Include",112
"SSW2015_e3","SSW2015_e3_21",0,"Younger","RelatedLures",1,"1223.9000000000001","Include",113
"SSW2015_e3","SSW2015_e3_21",0,"Younger","UnrelatedLures",1,"693.6","Include",114
"SSW2015_e3","SSW2015_e3_21",0,"Younger","UnrelatedLures",1,"659.9","Include",115
"SSW2015_e3","SSW2015_e3_21",1,"Younger","Studied",4,"890","Include",116
"SSW2015_e3","SSW2015_e3_21",0,"Younger","UnrelatedLures",1,"765","Include",117
"SSW2015_e3","SSW2015_e3_21",0,"Younger","RelatedLures",2,"1712.5","Include",118
"SSW2015_e3","SSW2015_e3_21",1,"Younger","Studied",3,"1873.3","Include",119
"SSW2015_e3","SSW2015_e3_21",1,"Younger","Studied",1,"1439.5","Include",120
"SSW2015_e3","SSW2015_e3_21",1,"Younger","Studied",4,"914.6","Include",121
"SSW2015_e3","SSW2015_e3_21",0,"Younger","RelatedLures",3,"1508.7","Include",122
"SSW2015_e3","SSW2015_e3_21",0,"Younger","UnrelatedLures",1,"1145","Include",123
"SSW2015_e3","SSW2015_e3_21",0,"Younger","UnrelatedLures",1,"830","Include",124
"SSW2015_e3","SSW2015_e3_21",0,"Younger","RelatedLures",1,"1023.3","Include",125
"SSW2015_e3","SSW2015_e3_21",0,"Younger","RelatedLures",4,"1635.3","Include",126
"SSW2015_e3","SSW2015_e3_21",0,"Younger","UnrelatedLures",1,"1039.8","Include",127
"SSW2015_e3","SSW2015_e3_21",0,"Younger","UnrelatedLures",1,"852.3","Include",128
"SSW2015_e3","SSW2015_e3_21",1,"Younger","Studied",4,"794.2","Include",129
"SSW2015_e3","SSW2015_e3_21",1,"Younger","Studied",4,"1541.3","Include",130
"SSW2015_e3","SSW2015_e3_21",0,"Younger","RelatedLures",4,"948.9","Include",131
"SSW2015_e3","SSW2015_e3_21",1,"Younger","Studied",4,"644.29999999999995","Include",132
"SSW2015_e3","SSW2015_e3_21",1,"Younger","Studied",1,"997.5","Include",133
"SSW2015_e3","SSW2015_e3_21",1,"Younger","Studied",4,"1021","Include",134
"SSW2015_e3","SSW2015_e3_21",0,"Younger","RelatedLures",1,"928.3","Include",135
"SSW2015_e3","SSW2015_e3_21",0,"Younger","UnrelatedLures",1,"1275.5999999999999","Include",136
"SSW2015_e3","SSW2015_e3_21",0,"Younger","UnrelatedLures",1,"722.5","Include",137
"SSW2015_e3","SSW2015_e3_21",1,"Younger","Studied",4,"1785.2","Include",138
"SSW2015_e3","SSW2015_e3_21",0,"Younger","RelatedLures",1,"1042.9000000000001","Include",139
"SSW2015_e3","SSW2015_e3_21",1,"Younger","Studied",1,"1725.8","Include",140
"SSW2015_e3","SSW2015_e3_21",1,"Younger","Studied",1,"682.6","Include",141
"SSW2015_e3","SSW2015_e3_21",1,"Younger","Studied",4,"869","Include",142
"SSW2015_e3","SSW2015_e3_21",0,"Younger","RelatedLures",1,"946.7","Include",143
"SSW2015_e3","SSW2015_e3_21",1,"Younger","Studied",4,"1429.6","Include",144
"SSW2015_e3","SSW2015_e3_21",1,"Younger","Studied",4,"983.8","Include",145
"SSW2015_e3","SSW2015_e3_21",0,"Younger","UnrelatedLures",1,"872.5","Include",146
"SSW2015_e3","SSW2015_e3_21",0,"Younger","RelatedLures",4,"876.7","Include",147
"SSW2015_e3","SSW2015_e3_21",0,"Younger","UnrelatedLures",1,"820","Include",148
"SSW2015_e3","SSW2015_e3_21",0,"Younger","RelatedLures",4,"1198.7","Include",149
"SSW2015_e3","SSW2015_e3_21",0,"Younger","UnrelatedLures",1,"942.8","Include",150
"SSW2015_e3","SSW2015_e3_21",0,"Younger","UnrelatedLures",1,"1384.6","Include",151
"SSW2015_e3","SSW2015_e3_21",0,"Younger","RelatedLures",1,"809.5","Include",152
"SSW2015_e3","SSW2015_e3_21",1,"Younger","Studied",4,"1642.6","Include",153
"SSW2015_e3","SSW2015_e3_21",0,"Younger","UnrelatedLures",1,"586.20000000000005","Include",154
"SSW2015_e3","SSW2015_e3_21",1,"Younger","Studied",4,"865.5","Include",155
"SSW2015_e3","SSW2015_e3_21",0,"Younger","UnrelatedLures",1,"699.7","Include",156
"SSW2015_e3","SSW2015_e3_21",1,"Younger","Studied",1,"1274.9000000000001","Include",157
"SSW2015_e3","SSW2015_e3_21",0,"Younger","RelatedLures",1,"847.7","Include",158
"SSW2015_e3","SSW2015_e3_21",0,"Younger","UnrelatedLures",1,"1453.3","Include",159
"SSW2015_e3","SSW2015_e3_21",0,"Younger","RelatedLures",4,"1281.0999999999999","Include",160
"SSW2015_e3","SSW2015_e3_21",1,"Younger","Studied",1,"1186.4000000000001","Include",161
"SSW2015_e3","SSW2015_e3_21",0,"Younger","RelatedLures",1,"131.19999999999999","Include",162
"SSW2015_e3","SSW2015_e3_21",1,"Younger","Studied",1,"1832.9","Include",163
"SSW2015_e3","SSW2015_e3_21",1,"Younger","Studied",4,"1044.5","Include",164
"SSW2015_e3","SSW2015_e3_21",1,"Younger","Studied",1,"1564.6","Include",165
"SSW2015_e3","SSW2015_e3_21",0,"Younger","RelatedLures",4,"1033.9000000000001","Include",166
"SSW2015_e3","SSW2015_e3_21",0,"Younger","RelatedLures",1,"1385.4","Include",167
"SSW2015_e3","SSW2015_e3_21",0,"Younger","UnrelatedLures",1,"1110.3","Include",168
"SSW2015_e3","SSW2015_e3_21",1,"Younger","Studied",4,"1192.9000000000001","Include",169
"SSW2015_e3","SSW2015_e3_21",1,"Younger","Studied",1,"1122.4000000000001","Include",170
"SSW2015_e3","SSW2015_e3_21",0,"Younger","RelatedLures",4,"239.9","Include",171
"SSW2015_e3","SSW2015_e3_21",1,"Younger","Studied",4,"934.8","Include",172
"SSW2015_e3","SSW2015_e3_21",0,"Younger","UnrelatedLures",1,"1092.8","Include",173
"SSW2015_e3","SSW2015_e3_21",1,"Younger","Studied",4,"920.2","Include",174
"SSW2015_e3","SSW2015_e3_21",0,"Younger","RelatedLures",1,"1123.8","Include",175
"SSW2015_e3","SSW2015_e3_21",0,"Younger","RelatedLures",1,"872.4","Include",176
"SSW2015_e3","SSW2015_e3_21",0,"Younger","RelatedLures",1,"1009.3","Include",177
"SSW2015_e3","SSW2015_e3_21",0,"Younger","UnrelatedLures",1,"792.7","Include",178
"SSW2015_e3","SSW2015_e3_21",0,"Younger","UnrelatedLures",1,"897.1","Include",179
"SSW2015_e3","SSW2015_e3_21",1,"Younger","Studied",4,"1038.8","Include",180
"SSW2015_e3","SSW2015_e3_21",0,"Younger","UnrelatedLures",1,"671.1","Include",181
"SSW2015_e3","SSW2015_e3_21",0,"Younger","RelatedLures",4,"913.3","Include",182
"SSW2015_e3","SSW2015_e3_21",1,"Younger","Studied",4,"898.3","Include",183
"SSW2015_e3","SSW2015_e3_21",0,"Younger","UnrelatedLures",1,"1173.4000000000001","Include",184
"SSW2015_e3","SSW2015_e3_21",1,"Younger","Studied",4,"1087","Include",185
"SSW2015_e3","SSW2015_e3_21",0,"Younger","UnrelatedLures",1,"1204.7","Include",186
"SSW2015_e3","SSW2015_e3_21",1,"Younger","Studied",4,"1365.7","Include",187
"SSW2015_e3","SSW2015_e3_21",0,"Younger","RelatedLures",1,"1402.2","Include",188
"SSW2015_e3","SSW2015_e3_21",0,"Younger","UnrelatedLures",1,"626.6","Include",189
"SSW2015_e3","SSW2015_e3_21",0,"Younger","RelatedLures",1,"1164.4000000000001","Include",190
"SSW2015_e3","SSW2015_e3_21",0,"Younger","UnrelatedLures",1,"577.5","Include",191
"SSW2015_e3","SSW2015_e3_21",1,"Younger","Studied",4,"663.3","Include",192
"SSW2015_e3","SSW2015_e3_22",0,"Younger","UnrelatedLures",1,"1274.9000000000001","Include",1
"SSW2015_e3","SSW2015_e3_22",0,"Younger","RelatedLures",3,"1548.3","Include",2
"SSW2015_e3","SSW2015_e3_22",1,"Younger","Studied",4,"1012.8","Include",3
"SSW2015_e3","SSW2015_e3_22",0,"Younger","UnrelatedLures",2,"1934.2","Include",4
"SSW2015_e3","SSW2015_e3_22",0,"Younger","UnrelatedLures",1,"1499.4","Include",5
"SSW2015_e3","SSW2015_e3_22",1,"Younger","Studied",4,"894.6","Include",6
"SSW2015_e3","SSW2015_e3_22",0,"Younger","RelatedLures",2,"2005.1","Include",7
"SSW2015_e3","SSW2015_e3_22",1,"Younger","Studied",4,"1887.6","Include",8
"SSW2015_e3","SSW2015_e3_22",0,"Younger","RelatedLures",2,"1503.5","Include",9
"SSW2015_e3","SSW2015_e3_22",1,"Younger","Studied",4,"864.1","Include",10
"SSW2015_e3","SSW2015_e3_22",1,"Younger","Studied",4,"985.6","Include",11
"SSW2015_e3","SSW2015_e3_22",0,"Younger","UnrelatedLures",1,"1228.4000000000001","Include",12
"SSW2015_e3","SSW2015_e3_22",0,"Younger","UnrelatedLures",1,"1106","Include",13
"SSW2015_e3","SSW2015_e3_22",0,"Younger","UnrelatedLures",1,"921.2","Include",14
"SSW2015_e3","SSW2015_e3_22",0,"Younger","RelatedLures",4,"1238.7","Include",15
"SSW2015_e3","SSW2015_e3_22",0,"Younger","RelatedLures",4,"1174.0999999999999","Include",16
"SSW2015_e3","SSW2015_e3_22",0,"Younger","RelatedLures",4,"995.9","Include",17
"SSW2015_e3","SSW2015_e3_22",0,"Younger","RelatedLures",4,"1091.4000000000001","Include",18
"SSW2015_e3","SSW2015_e3_22",0,"Younger","RelatedLures",3,"1337.7","Include",19
"SSW2015_e3","SSW2015_e3_22",0,"Younger","UnrelatedLures",1,"1202.5999999999999","Include",20
"SSW2015_e3","SSW2015_e3_22",0,"Younger","RelatedLures",4,"1484.1","Include",21
"SSW2015_e3","SSW2015_e3_22",1,"Younger","Studied",4,"1578.5","Include",22
"SSW2015_e3","SSW2015_e3_22",0,"Younger","RelatedLures",4,"1258.8","Include",23
"SSW2015_e3","SSW2015_e3_22",0,"Younger","UnrelatedLures",3,"1642.1","Include",24
"SSW2015_e3","SSW2015_e3_22",1,"Younger","Studied",4,"1059.9000000000001","Include",25
"SSW2015_e3","SSW2015_e3_22",0,"Younger","UnrelatedLures",2,"1226.5999999999999","Include",26
"SSW2015_e3","SSW2015_e3_22",0,"Younger","RelatedLures",3,"1192.0999999999999","Include",27
"SSW2015_e3","SSW2015_e3_22",1,"Younger","Studied",4,"975.5","Include",28
"SSW2015_e3","SSW2015_e3_22",0,"Younger","UnrelatedLures",2,"1406.8","Include",29
"SSW2015_e3","SSW2015_e3_22",0,"Younger","UnrelatedLures",1,"1072.5","Include",30
"SSW2015_e3","SSW2015_e3_22",0,"Younger","UnrelatedLures",1,"1101.7","Include",31
"SSW2015_e3","SSW2015_e3_22",0,"Younger","RelatedLures",3,"1253.5","Include",32
"SSW2015_e3","SSW2015_e3_22",0,"Younger","RelatedLures",3,"1119.5","Include",33
"SSW2015_e3","SSW2015_e3_22",0,"Younger","RelatedLures",4,"1609.9","Include",34
"SSW2015_e3","SSW2015_e3_22",0,"Younger","RelatedLures",2,"1654.2","Include",35
"SSW2015_e3","SSW2015_e3_22",0,"Younger","RelatedLures",1,"1857.6","Include",36
"SSW2015_e3","SSW2015_e3_22",0,"Younger","RelatedLures",4,"1586.8","Include",37
"SSW2015_e3","SSW2015_e3_22",0,"Younger","RelatedLures",1,"1965.2","Include",38
"SSW2015_e3","SSW2015_e3_22",0,"Younger","UnrelatedLures",2,"1198.5999999999999","Include",39
"SSW2015_e3","SSW2015_e3_22",1,"Younger","Studied",4,"1449.6","Include",40
"SSW2015_e3","SSW2015_e3_22",1,"Younger","Studied",4,"1270.0999999999999","Include",41
"SSW2015_e3","SSW2015_e3_22",0,"Younger","RelatedLures",3,"1840.6","Include",42
"SSW2015_e3","SSW2015_e3_22",1,"Younger","Studied",4,"857.3","Include",43
"SSW2015_e3","SSW2015_e3_22",1,"Younger","Studied",4,"955.9","Include",44
"SSW2015_e3","SSW2015_e3_22",1,"Younger","Studied",4,"981.2","Include",45
"SSW2015_e3","SSW2015_e3_22",1,"Younger","Studied",4,"838.3","Include",46
"SSW2015_e3","SSW2015_e3_22",0,"Younger","RelatedLures",3,"1441.8","Include",47
"SSW2015_e3","SSW2015_e3_22",0,"Younger","UnrelatedLures",2,"1098.5","Include",48
"SSW2015_e3","SSW2015_e3_22",0,"Younger","RelatedLures",4,"826","Include",49
"SSW2015_e3","SSW2015_e3_22",1,"Younger","Studied",4,"865.2","Include",50
"SSW2015_e3","SSW2015_e3_22",1,"Younger","Studied",4,"867.5","Include",51
"SSW2015_e3","SSW2015_e3_22",0,"Younger","RelatedLures",2,"1561","Include",52
"SSW2015_e3","SSW2015_e3_22",1,"Younger","Studied",4,"968.2","Include",53
"SSW2015_e3","SSW2015_e3_22",0,"Younger","RelatedLures",4,"1254.3","Include",54
"SSW2015_e3","SSW2015_e3_22",0,"Younger","RelatedLures",4,"1301.3","Include",55
"SSW2015_e3","SSW2015_e3_22",0,"Younger","UnrelatedLures",2,"1172.5","Include",56
"SSW2015_e3","SSW2015_e3_22",0,"Younger","UnrelatedLures",1,"972","Include",57
"SSW2015_e3","SSW2015_e3_22",1,"Younger","Studied",3,"1035.4000000000001","Include",58
"SSW2015_e3","SSW2015_e3_22",1,"Younger","Studied",4,"804.2","Include",59
"SSW2015_e3","SSW2015_e3_22",0,"Younger","UnrelatedLures",2,"1061.9000000000001","Include",60
"SSW2015_e3","SSW2015_e3_22",0,"Younger","UnrelatedLures",1,"849.8","Include",61
"SSW2015_e3","SSW2015_e3_22",0,"Younger","RelatedLures",4,"1379.4","Include",62
"SSW2015_e3","SSW2015_e3_22",0,"Younger","UnrelatedLures",2,"1595.2","Include",63
"SSW2015_e3","SSW2015_e3_22",1,"Younger","Studied",4,"899.5","Include",64
"SSW2015_e3","SSW2015_e3_22",0,"Younger","UnrelatedLures",1,"981.8","Include",65
"SSW2015_e3","SSW2015_e3_22",0,"Younger","UnrelatedLures",2,"1239.5999999999999","Include",66
"SSW2015_e3","SSW2015_e3_22",0,"Younger","UnrelatedLures",1,"1109.4000000000001","Include",67
"SSW2015_e3","SSW2015_e3_22",1,"Younger","Studied",4,"1090.9000000000001","Include",68
"SSW2015_e3","SSW2015_e3_22",0,"Younger","RelatedLures",4,"874.9","Include",69
"SSW2015_e3","SSW2015_e3_22",0,"Younger","UnrelatedLures",2,"1169.0999999999999","Include",70
"SSW2015_e3","SSW2015_e3_22",1,"Younger","Studied",4,"818.1","Include",71
"SSW2015_e3","SSW2015_e3_22",1,"Younger","Studied",4,"901.2","Include",72
"SSW2015_e3","SSW2015_e3_22",0,"Younger","RelatedLures",3,"1818.9","Include",73
"SSW2015_e3","SSW2015_e3_22",1,"Younger","Studied",4,"915.2","Include",74
"SSW2015_e3","SSW2015_e3_22",1,"Younger","Studied",4,"802","Include",75
"SSW2015_e3","SSW2015_e3_22",0,"Younger","UnrelatedLures",2,"1129.3","Include",76
"SSW2015_e3","SSW2015_e3_22",0,"Younger","RelatedLures",3,"1120.7","Include",77
"SSW2015_e3","SSW2015_e3_22",1,"Younger","Studied",4,"1030.0999999999999","Include",78
"SSW2015_e3","SSW2015_e3_22",1,"Younger","Studied",4,"842.1","Include",79
"SSW2015_e3","SSW2015_e3_22",0,"Younger","RelatedLures",4,"804.3","Include",80
"SSW2015_e3","SSW2015_e3_22",1,"Younger","Studied",4,"800.4","Include",81
"SSW2015_e3","SSW2015_e3_22",1,"Younger","Studied",4,"713.6","Include",82
"SSW2015_e3","SSW2015_e3_22",0,"Younger","RelatedLures",3,"1666.8","Include",83
"SSW2015_e3","SSW2015_e3_22",0,"Younger","UnrelatedLures",2,"1103.2","Include",84
"SSW2015_e3","SSW2015_e3_22",1,"Younger","Studied",4,"842.5","Include",85
"SSW2015_e3","SSW2015_e3_22",0,"Younger","UnrelatedLures",1,"1397.7","Include",86
"SSW2015_e3","SSW2015_e3_22",0,"Younger","UnrelatedLures",1,"1018","Include",87
"SSW2015_e3","SSW2015_e3_22",0,"Younger","UnrelatedLures",2,"1075","Include",88
"SSW2015_e3","SSW2015_e3_22",0,"Younger","UnrelatedLures",1,"1022.8","Include",89
"SSW2015_e3","SSW2015_e3_22",0,"Younger","UnrelatedLures",1,"884","Include",90
"SSW2015_e3","SSW2015_e3_22",0,"Younger","UnrelatedLures",1,"1183.7","Include",91
"SSW2015_e3","SSW2015_e3_22",0,"Younger","RelatedLures",1,"1076","Include",92
"SSW2015_e3","SSW2015_e3_22",0,"Younger","UnrelatedLures",1,"975.2","Include",93
"SSW2015_e3","SSW2015_e3_22",0,"Younger","UnrelatedLures",1,"985.8","Include",94
"SSW2015_e3","SSW2015_e3_22",0,"Younger","UnrelatedLures",1,"946.4","Include",95
"SSW2015_e3","SSW2015_e3_22",0,"Younger","UnrelatedLures",1,"903.1","Include",96
"SSW2015_e3","SSW2015_e3_22",0,"Younger","UnrelatedLures",1,"912.2","Include",97
"SSW2015_e3","SSW2015_e3_22",1,"Younger","Studied",2,"1098.8","Include",98
"SSW2015_e3","SSW2015_e3_22",0,"Younger","UnrelatedLures",1,"842.1","Include",99
"SSW2015_e3","SSW2015_e3_22",1,"Younger","Studied",4,"974.3","Include",100
"SSW2015_e3","SSW2015_e3_22",1,"Younger","Studied",4,"841.5","Include",101
"SSW2015_e3","SSW2015_e3_22",1,"Younger","Studied",4,"745.7","Include",102
"SSW2015_e3","SSW2015_e3_22",1,"Younger","Studied",4,"784.8","Include",103
"SSW2015_e3","SSW2015_e3_22",0,"Younger","RelatedLures",3,"1093.5999999999999","Include",104
"SSW2015_e3","SSW2015_e3_22",1,"Younger","Studied",4,"776.2","Include",105
"SSW2015_e3","SSW2015_e3_22",0,"Younger","RelatedLures",2,"1190.8","Include",106
"SSW2015_e3","SSW2015_e3_22",0,"Younger","UnrelatedLures",1,"930.3","Include",107
"SSW2015_e3","SSW2015_e3_22",0,"Younger","UnrelatedLures",1,"722.8","Include",108
"SSW2015_e3","SSW2015_e3_22",1,"Younger","Studied",4,"709.4","Include",109
"SSW2015_e3","SSW2015_e3_22",1,"Younger","Studied",4,"730.7","Include",110
"SSW2015_e3","SSW2015_e3_22",1,"Younger","Studied",4,"746.5","Include",111
"SSW2015_e3","SSW2015_e3_22",0,"Younger","UnrelatedLures",2,"1086.7","Include",112
"SSW2015_e3","SSW2015_e3_22",0,"Younger","RelatedLures",4,"753.4","Include",113
"SSW2015_e3","SSW2015_e3_22",0,"Younger","RelatedLures",4,"784.2","Include",114
"SSW2015_e3","SSW2015_e3_22",1,"Younger","Studied",4,"830.7","Include",115
"SSW2015_e3","SSW2015_e3_22",0,"Younger","RelatedLures",4,"880.8","Include",116
"SSW2015_e3","SSW2015_e3_22",0,"Younger","UnrelatedLures",2,"1142.4000000000001","Include",117
"SSW2015_e3","SSW2015_e3_22",0,"Younger","RelatedLures",4,"915.4","Include",118
"SSW2015_e3","SSW2015_e3_22",0,"Younger","RelatedLures",2,"1360.3","Include",119
"SSW2015_e3","SSW2015_e3_22",0,"Younger","UnrelatedLures",1,"1240.3","Include",120
"SSW2015_e3","SSW2015_e3_22",0,"Younger","RelatedLures",4,"835.5","Include",121
"SSW2015_e3","SSW2015_e3_22",0,"Younger","UnrelatedLures",1,"1161","Include",122
"SSW2015_e3","SSW2015_e3_22",0,"Younger","UnrelatedLures",1,"771.7","Include",123
"SSW2015_e3","SSW2015_e3_22",0,"Younger","RelatedLures",4,"967","Include",124
"SSW2015_e3","SSW2015_e3_22",1,"Younger","Studied",4,"674.8","Include",125
"SSW2015_e3","SSW2015_e3_22",1,"Younger","Studied",4,"886.9","Include",126
"SSW2015_e3","SSW2015_e3_22",1,"Younger","Studied",4,"706.9","Include",127
"SSW2015_e3","SSW2015_e3_22",1,"Younger","Studied",4,"639","Include",128
"SSW2015_e3","SSW2015_e3_22",0,"Younger","UnrelatedLures",2,"1140.7","Include",129
"SSW2015_e3","SSW2015_e3_22",1,"Younger","Studied",4,"792.7","Include",130
"SSW2015_e3","SSW2015_e3_22",0,"Younger","UnrelatedLures",1,"871.7","Include",131
"SSW2015_e3","SSW2015_e3_22",0,"Younger","RelatedLures",1,"697.2","Include",132
"SSW2015_e3","SSW2015_e3_22",0,"Younger","UnrelatedLures",1,"891.1","Include",133
"SSW2015_e3","SSW2015_e3_22",1,"Younger","Studied",4,"793.8","Include",134
"SSW2015_e3","SSW2015_e3_22",0,"Younger","RelatedLures",4,"801.8","Include",135
"SSW2015_e3","SSW2015_e3_22",0,"Younger","RelatedLures",4,"1034.0999999999999","Include",136
"SSW2015_e3","SSW2015_e3_22",0,"Younger","RelatedLures",4,"747.3","Include",137
"SSW2015_e3","SSW2015_e3_22",0,"Younger","RelatedLures",4,"1266.2","Include",138
"SSW2015_e3","SSW2015_e3_22",0,"Younger","UnrelatedLures",2,"1178.9000000000001","Include",139
"SSW2015_e3","SSW2015_e3_22",1,"Younger","Studied",4,"776.3","Include",140
"SSW2015_e3","SSW2015_e3_22",0,"Younger","UnrelatedLures",1,"1243.5","Include",141
"SSW2015_e3","SSW2015_e3_22",0,"Younger","UnrelatedLures",1,"795.7","Include",142
"SSW2015_e3","SSW2015_e3_22",0,"Younger","RelatedLures",1,"1478.9","Include",143
"SSW2015_e3","SSW2015_e3_22",0,"Younger","RelatedLures",4,"1305.5999999999999","Include",144
"SSW2015_e3","SSW2015_e3_22",1,"Younger","Studied",4,"904.8","Include",145
"SSW2015_e3","SSW2015_e3_22",0,"Younger","UnrelatedLures",1,"1389.7","Include",146
"SSW2015_e3","SSW2015_e3_22",0,"Younger","UnrelatedLures",1,"1052.7","Include",147
"SSW2015_e3","SSW2015_e3_22",0,"Younger","RelatedLures",2,"1820.6","Include",148
"SSW2015_e3","SSW2015_e3_22",1,"Younger","Studied",4,"1021.8","Include",149
"SSW2015_e3","SSW2015_e3_22",0,"Younger","RelatedLures",4,"1005.9","Include",150
"SSW2015_e3","SSW2015_e3_22",1,"Younger","Studied",4,"773.1","Include",151
"SSW2015_e3","SSW2015_e3_22",0,"Younger","RelatedLures",4,"782","Include",152
"SSW2015_e3","SSW2015_e3_22",0,"Younger","RelatedLures",4,"713.6","Include",153
"SSW2015_e3","SSW2015_e3_22",0,"Younger","RelatedLures",4,"1052.8","Include",154
"SSW2015_e3","SSW2015_e3_22",1,"Younger","Studied",4,"647.5","Include",155
"SSW2015_e3","SSW2015_e3_22",1,"Younger","Studied",4,"636.20000000000005","Include",156
"SSW2015_e3","SSW2015_e3_22",0,"Younger","UnrelatedLures",1,"1058.5","Include",157
"SSW2015_e3","SSW2015_e3_22",1,"Younger","Studied",4,"774.8","Include",158
"SSW2015_e3","SSW2015_e3_22",1,"Younger","Studied",4,"1078.0999999999999","Include",159
"SSW2015_e3","SSW2015_e3_22",1,"Younger","Studied",1,"1281.2","Include",160
"SSW2015_e3","SSW2015_e3_22",0,"Younger","UnrelatedLures",1,"858.1","Include",161
"SSW2015_e3","SSW2015_e3_22",0,"Younger","RelatedLures",3,"1460.8","Include",162
"SSW2015_e3","SSW2015_e3_22",0,"Younger","RelatedLures",3,"1513.8","Include",163
"SSW2015_e3","SSW2015_e3_22",1,"Younger","Studied",4,"877.6","Include",164
"SSW2015_e3","SSW2015_e3_22",0,"Younger","RelatedLures",4,"921.1","Include",165
"SSW2015_e3","SSW2015_e3_22",0,"Younger","RelatedLures",4,"909.6","Include",166
"SSW2015_e3","SSW2015_e3_22",0,"Younger","RelatedLures",2,"1540.4","Include",167
"SSW2015_e3","SSW2015_e3_22",1,"Younger","Studied",4,"1081.5999999999999","Include",168
"SSW2015_e3","SSW2015_e3_22",0,"Younger","RelatedLures",3,"1585.3","Include",169
"SSW2015_e3","SSW2015_e3_22",0,"Younger","UnrelatedLures",2,"1061.9000000000001","Include",170
"SSW2015_e3","SSW2015_e3_22",0,"Younger","UnrelatedLures",1,"954","Include",171
"SSW2015_e3","SSW2015_e3_22",0,"Younger","UnrelatedLures",1,"1021.6","Include",172
"SSW2015_e3","SSW2015_e3_22",1,"Younger","Studied",4,"1837.2","Include",173
"SSW2015_e3","SSW2015_e3_22",1,"Younger","Studied",4,"715.1","Include",174
"SSW2015_e3","SSW2015_e3_22",0,"Younger","RelatedLures",4,"628.29999999999995","Include",175
"SSW2015_e3","SSW2015_e3_22",0,"Younger","UnrelatedLures",2,"1094.0999999999999","Include",176
"SSW2015_e3","SSW2015_e3_22",0,"Younger","UnrelatedLures",1,"1383.4","Include",177
"SSW2015_e3","SSW2015_e3_22",0,"Younger","RelatedLures",4,"1638.4","Include",178
"SSW2015_e3","SSW2015_e3_22",0,"Younger","UnrelatedLures",2,"855.6","Include",179
"SSW2015_e3","SSW2015_e3_22",0,"Younger","UnrelatedLures",1,"1349.3","Include",180
"SSW2015_e3","SSW2015_e3_22",0,"Younger","UnrelatedLures",1,"965.1","Include",181
"SSW2015_e3","SSW2015_e3_22",1,"Younger","Studied",4,"962.8","Include",182
"SSW2015_e3","SSW2015_e3_22",1,"Younger","Studied",4,"638.79999999999995","Include",183
"SSW2015_e3","SSW2015_e3_22",0,"Younger","RelatedLures",3,"1726.2","Include",184
"SSW2015_e3","SSW2015_e3_22",0,"Younger","UnrelatedLures",2,"1518.8","Include",185
"SSW2015_e3","SSW2015_e3_22",0,"Younger","RelatedLures",4,"865.6","Include",186
"SSW2015_e3","SSW2015_e3_22",0,"Younger","RelatedLures",4,"803","Include",187
"SSW2015_e3","SSW2015_e3_22",0,"Younger","UnrelatedLures",1,"1062.3","Include",188
"SSW2015_e3","SSW2015_e3_22",1,"Younger","Studied",4,"1008.6","Include",189
"SSW2015_e3","SSW2015_e3_22",0,"Younger","RelatedLures",4,"745.8","Include",190
"SSW2015_e3","SSW2015_e3_22",1,"Younger","Studied",4,"638.79999999999995","Include",191
"SSW2015_e3","SSW2015_e3_22",1,"Younger","Studied",4,"624.20000000000005","Include",192
"SSW2015_e3","SSW2015_e3_23",0,"Younger","RelatedLures",4,"1884.5","Include",1
"SSW2015_e3","SSW2015_e3_23",0,"Younger","UnrelatedLures",4,"1565.5","Include",2
"SSW2015_e3","SSW2015_e3_23",0,"Younger","UnrelatedLures",4,"1564","Include",3
"SSW2015_e3","SSW2015_e3_23",0,"Younger","UnrelatedLures",1,"1713.8","Include",4
"SSW2015_e3","SSW2015_e3_23",0,"Younger","RelatedLures",4,"1538.4","Include",5
"SSW2015_e3","SSW2015_e3_23",0,"Younger","UnrelatedLures",1,"1603.4","Include",6
"SSW2015_e3","SSW2015_e3_23",0,"Younger","RelatedLures",4,"1427.8","Include",7
"SSW2015_e3","SSW2015_e3_23",1,"Younger","Studied",4,"119","Include",8
"SSW2015_e3","SSW2015_e3_23",0,"Younger","RelatedLures",4,"1689.8","Include",9
"SSW2015_e3","SSW2015_e3_23",0,"Younger","UnrelatedLures",1,"1379.2","Include",10
"SSW2015_e3","SSW2015_e3_23",1,"Younger","Studied",4,"1112.5999999999999","Include",11
"SSW2015_e3","SSW2015_e3_23",0,"Younger","RelatedLures",4,"1387.5","Include",12
"SSW2015_e3","SSW2015_e3_23",1,"Younger","Studied",4,"1033.9000000000001","Include",13
"SSW2015_e3","SSW2015_e3_23",0,"Younger","RelatedLures",4,"1031.5999999999999","Include",14
"SSW2015_e3","SSW2015_e3_23",0,"Younger","RelatedLures",4,"1212","Include",15
"SSW2015_e3","SSW2015_e3_23",1,"Younger","Studied",4,"813.3","Include",16
"SSW2015_e3","SSW2015_e3_23",1,"Younger","Studied",4,"1024.3","Include",17
"SSW2015_e3","SSW2015_e3_23",0,"Younger","RelatedLures",4,"940.8","Include",18
"SSW2015_e3","SSW2015_e3_23",0,"Younger","UnrelatedLures",1,"1237.5999999999999","Include",19
"SSW2015_e3","SSW2015_e3_23",1,"Younger","Studied",3,"1363.1","Include",20
"SSW2015_e3","SSW2015_e3_23",0,"Younger","RelatedLures",4,"910.7","Include",21
"SSW2015_e3","SSW2015_e3_23",1,"Younger","Studied",4,"886.6","Include",22
"SSW2015_e3","SSW2015_e3_23",1,"Younger","Studied",4,"1061.3","Include",23
"SSW2015_e3","SSW2015_e3_23",0,"Younger","RelatedLures",3,"1148.5","Include",24
"SSW2015_e3","SSW2015_e3_23",0,"Younger","RelatedLures",4,"918.5","Include",25
"SSW2015_e3","SSW2015_e3_23",0,"Younger","RelatedLures",4,"1285.4000000000001","Include",26
"SSW2015_e3","SSW2015_e3_23",1,"Younger","Studied",4,"1128.8","Include",27
"SSW2015_e3","SSW2015_e3_23",1,"Younger","Studied",4,"940.4","Include",28
"SSW2015_e3","SSW2015_e3_23",0,"Younger","RelatedLures",4,"804.6","Include",29
"SSW2015_e3","SSW2015_e3_23",0,"Younger","UnrelatedLures",1,"1512","Include",30
"SSW2015_e3","SSW2015_e3_23",0,"Younger","RelatedLures",3,"1375.7","Include",31
"SSW2015_e3","SSW2015_e3_23",0,"Younger","UnrelatedLures",1,"1195.7","Include",32
"SSW2015_e3","SSW2015_e3_23",0,"Younger","RelatedLures",4,"1081.5","Include",33
"SSW2015_e3","SSW2015_e3_23",0,"Younger","UnrelatedLures",1,"1034.5999999999999","Include",34
"SSW2015_e3","SSW2015_e3_23",0,"Younger","UnrelatedLures",1,"1332.3","Include",35
"SSW2015_e3","SSW2015_e3_23",0,"Younger","RelatedLures",3,"1660.9","Include",36
"SSW2015_e3","SSW2015_e3_23",1,"Younger","Studied",4,"905.2","Include",37
"SSW2015_e3","SSW2015_e3_23",0,"Younger","RelatedLures",4,"717.9","Include",38
"SSW2015_e3","SSW2015_e3_23",0,"Younger","RelatedLures",3,"1172.9000000000001","Include",39
"SSW2015_e3","SSW2015_e3_23",1,"Younger","Studied",4,"1106.5999999999999","Include",40
"SSW2015_e3","SSW2015_e3_23",0,"Younger","UnrelatedLures",1,"898.3","Include",41
"SSW2015_e3","SSW2015_e3_23",0,"Younger","UnrelatedLures",1,"795.9","Include",42
"SSW2015_e3","SSW2015_e3_23",1,"Younger","Studied",4,"1035","Include",43
"SSW2015_e3","SSW2015_e3_23",1,"Younger","Studied",3,"1227.0999999999999","Include",44
"SSW2015_e3","SSW2015_e3_23",0,"Younger","RelatedLures",3,"1127.3","Include",45
"SSW2015_e3","SSW2015_e3_23",0,"Younger","UnrelatedLures",1,"945.4","Include",46
"SSW2015_e3","SSW2015_e3_23",1,"Younger","Studied",4,"1318.7","Include",47
"SSW2015_e3","SSW2015_e3_23",0,"Younger","RelatedLures",3,"1666","Include",48
"SSW2015_e3","SSW2015_e3_23",1,"Younger","Studied",4,"789.5","Include",49
"SSW2015_e3","SSW2015_e3_23",0,"Younger","UnrelatedLures",1,"873.8","Include",50
"SSW2015_e3","SSW2015_e3_23",0,"Younger","RelatedLures",2,"1623.8","Include",51
"SSW2015_e3","SSW2015_e3_23",0,"Younger","RelatedLures",4,"1264.9000000000001","Include",52
"SSW2015_e3","SSW2015_e3_23",1,"Younger","Studied",4,"891.8","Include",53
"SSW2015_e3","SSW2015_e3_23",0,"Younger","RelatedLures",3,"1288.5999999999999","Include",54
"SSW2015_e3","SSW2015_e3_23",0,"Younger","RelatedLures",3,"1473.1","Include",55
"SSW2015_e3","SSW2015_e3_23",0,"Younger","UnrelatedLures",4,"1673.3","Include",56
"SSW2015_e3","SSW2015_e3_23",1,"Younger","Studied",4,"756","Include",57
"SSW2015_e3","SSW2015_e3_23",0,"Younger","UnrelatedLures",1,"1552.6","Include",58
"SSW2015_e3","SSW2015_e3_23",1,"Younger","Studied",4,"845.8","Include",59
"SSW2015_e3","SSW2015_e3_23",0,"Younger","RelatedLures",3,"1372.3","Include",60
"SSW2015_e3","SSW2015_e3_23",0,"Younger","UnrelatedLures",1,"1349.6","Include",61
"SSW2015_e3","SSW2015_e3_23",0,"Younger","UnrelatedLures",1,"754.6","Include",62
"SSW2015_e3","SSW2015_e3_23",1,"Younger","Studied",4,"862.1","Include",63
"SSW2015_e3","SSW2015_e3_23",0,"Younger","UnrelatedLures",1,"800.4","Include",64
"SSW2015_e3","SSW2015_e3_23",0,"Younger","RelatedLures",3,"1234.0999999999999","Include",65
"SSW2015_e3","SSW2015_e3_23",1,"Younger","Studied",4,"810.1","Include",66
"SSW2015_e3","SSW2015_e3_23",1,"Younger","Studied",4,"637.1","Include",67
"SSW2015_e3","SSW2015_e3_23",0,"Younger","UnrelatedLures",1,"886.7","Include",68
"SSW2015_e3","SSW2015_e3_23",1,"Younger","Studied",4,"752.4","Include",69
"SSW2015_e3","SSW2015_e3_23",1,"Younger","Studied",4,"846.9","Include",70
"SSW2015_e3","SSW2015_e3_23",0,"Younger","RelatedLures",3,"1346.4","Include",71
"SSW2015_e3","SSW2015_e3_23",0,"Younger","RelatedLures",1,"876.9","Include",72
"SSW2015_e3","SSW2015_e3_23",1,"Younger","Studied",4,"797.2","Include",73
"SSW2015_e3","SSW2015_e3_23",0,"Younger","RelatedLures",1,"1179.5999999999999","Include",74
"SSW2015_e3","SSW2015_e3_23",0,"Younger","UnrelatedLures",1,"955.1","Include",75
"SSW2015_e3","SSW2015_e3_23",1,"Younger","Studied",4,"1501.8","Include",76
"SSW2015_e3","SSW2015_e3_23",0,"Younger","UnrelatedLures",1,"788.2","Include",77
"SSW2015_e3","SSW2015_e3_23",0,"Younger","UnrelatedLures",1,"704","Include",78
"SSW2015_e3","SSW2015_e3_23",1,"Younger","Studied",4,"776.8","Include",79
"SSW2015_e3","SSW2015_e3_23",0,"Younger","UnrelatedLures",1,"990.6","Include",80
"SSW2015_e3","SSW2015_e3_23",1,"Younger","Studied",4,"723.2","Include",81
"SSW2015_e3","SSW2015_e3_23",0,"Younger","RelatedLures",4,"642.70000000000005","Include",82
"SSW2015_e3","SSW2015_e3_23",0,"Younger","RelatedLures",3,"1285.8","Include",83
"SSW2015_e3","SSW2015_e3_23",1,"Younger","Studied",4,"849.9","Include",84
"SSW2015_e3","SSW2015_e3_23",0,"Younger","UnrelatedLures",1,"696.4","Include",85
"SSW2015_e3","SSW2015_e3_23",1,"Younger","Studied",4,"707.1","Include",86
"SSW2015_e3","SSW2015_e3_23",0,"Younger","UnrelatedLures",1,"705.1","Include",87
"SSW2015_e3","SSW2015_e3_23",0,"Younger","UnrelatedLures",1,"858.5","Include",88
"SSW2015_e3","SSW2015_e3_23",0,"Younger","UnrelatedLures",1,"735.3","Include",89
"SSW2015_e3","SSW2015_e3_23",0,"Younger","UnrelatedLures",1,"633.9","Include",90
"SSW2015_e3","SSW2015_e3_23",0,"Younger","RelatedLures",3,"1076.7","Include",91
"SSW2015_e3","SSW2015_e3_23",0,"Younger","UnrelatedLures",3,"1435.4","Include",92
"SSW2015_e3","SSW2015_e3_23",1,"Younger","Studied",3,"1416.2","Include",93
"SSW2015_e3","SSW2015_e3_23",0,"Younger","RelatedLures",1,"1422.3","Include",94
"SSW2015_e3","SSW2015_e3_23",1,"Younger","Studied",4,"782.3","Include",95
"SSW2015_e3","SSW2015_e3_23",0,"Younger","UnrelatedLures",1,"673.1","Include",96
"SSW2015_e3","SSW2015_e3_23",0,"Younger","UnrelatedLures",1,"1388.2","Include",97
"SSW2015_e3","SSW2015_e3_23",0,"Younger","RelatedLures",3,"1395.1","Include",98
"SSW2015_e3","SSW2015_e3_23",0,"Younger","UnrelatedLures",1,"1136.4000000000001","Include",99
"SSW2015_e3","SSW2015_e3_23",0,"Younger","UnrelatedLures",1,"741.6","Include",100
"SSW2015_e3","SSW2015_e3_23",0,"Younger","UnrelatedLures",3,"1070.0999999999999","Include",101
"SSW2015_e3","SSW2015_e3_23",1,"Younger","Studied",4,"1097.0999999999999","Include",102
"SSW2015_e3","SSW2015_e3_23",0,"Younger","UnrelatedLures",1,"562.4","Include",103
"SSW2015_e3","SSW2015_e3_23",0,"Younger","RelatedLures",3,"1140.5999999999999","Include",104
"SSW2015_e3","SSW2015_e3_23",1,"Younger","Studied",4,"1202.8","Include",105
"SSW2015_e3","SSW2015_e3_23",0,"Younger","UnrelatedLures",1,"944.9","Include",106
"SSW2015_e3","SSW2015_e3_23",0,"Younger","UnrelatedLures",1,"799.4","Include",107
"SSW2015_e3","SSW2015_e3_23",0,"Younger","UnrelatedLures",1,"634.79999999999995","Include",108
"SSW2015_e3","SSW2015_e3_23",1,"Younger","Studied",3,"1203.5","Include",109
"SSW2015_e3","SSW2015_e3_23",0,"Younger","RelatedLures",4,"817.4","Include",110
"SSW2015_e3","SSW2015_e3_23",0,"Younger","RelatedLures",3,"1018.2","Include",111
"SSW2015_e3","SSW2015_e3_23",1,"Younger","Studied",4,"1058.9000000000001","Include",112
"SSW2015_e3","SSW2015_e3_23",0,"Younger","RelatedLures",3,"1477.7","Include",113
"SSW2015_e3","SSW2015_e3_23",0,"Younger","RelatedLures",4,"770.2","Include",114
"SSW2015_e3","SSW2015_e3_23",0,"Younger","RelatedLures",3,"1133.3","Include",115
"SSW2015_e3","SSW2015_e3_23",0,"Younger","RelatedLures",3,"1200.4000000000001","Include",116
"SSW2015_e3","SSW2015_e3_23",0,"Younger","UnrelatedLures",1,"1337.1","Include",117
"SSW2015_e3","SSW2015_e3_23",1,"Younger","Studied",4,"728.1","Include",118
"SSW2015_e3","SSW2015_e3_23",1,"Younger","Studied",4,"734","Include",119
"SSW2015_e3","SSW2015_e3_23",0,"Younger","RelatedLures",4,"1033.8","Include",120
"SSW2015_e3","SSW2015_e3_23",1,"Younger","Studied",4,"737.8","Include",121
"SSW2015_e3","SSW2015_e3_23",1,"Younger","Studied",4,"681.4","Include",122
"SSW2015_e3","SSW2015_e3_23",1,"Younger","Studied",4,"686.7","Include",123
"SSW2015_e3","SSW2015_e3_23",1,"Younger","Studied",4,"655.8","Include",124
"SSW2015_e3","SSW2015_e3_23",1,"Younger","Studied",4,"610.5","Include",125
"SSW2015_e3","SSW2015_e3_23",1,"Younger","Studied",4,"874.6","Include",126
"SSW2015_e3","SSW2015_e3_23",1,"Younger","Studied",4,"1080.4000000000001","Include",127
"SSW2015_e3","SSW2015_e3_23",0,"Younger","RelatedLures",4,"1267.2","Include",128
"SSW2015_e3","SSW2015_e3_23",0,"Younger","RelatedLures",4,"1156","Include",129
"SSW2015_e3","SSW2015_e3_23",1,"Younger","Studied",4,"798.1","Include",130
"SSW2015_e3","SSW2015_e3_23",1,"Younger","Studied",4,"695.2","Include",131
"SSW2015_e3","SSW2015_e3_23",0,"Younger","UnrelatedLures",1,"759.6","Include",132
"SSW2015_e3","SSW2015_e3_23",1,"Younger","Studied",4,"701.6","Include",133
"SSW2015_e3","SSW2015_e3_23",0,"Younger","RelatedLures",4,"811.4","Include",134
"SSW2015_e3","SSW2015_e3_23",0,"Younger","RelatedLures",3,"1509","Include",135
"SSW2015_e3","SSW2015_e3_23",0,"Younger","UnrelatedLures",3,"984.4","Include",136
"SSW2015_e3","SSW2015_e3_23",0,"Younger","RelatedLures",3,"958.7","Include",137
"SSW2015_e3","SSW2015_e3_23",1,"Younger","Studied",4,"1015.6","Include",138
"SSW2015_e3","SSW2015_e3_23",0,"Younger","UnrelatedLures",1,"1254.0999999999999","Include",139
"SSW2015_e3","SSW2015_e3_23",0,"Younger","RelatedLures",3,"1201.4000000000001","Include",140
"SSW2015_e3","SSW2015_e3_23",0,"Younger","UnrelatedLures",2,"1273.2","Include",141
"SSW2015_e3","SSW2015_e3_23",0,"Younger","UnrelatedLures",1,"1116","Include",142
"SSW2015_e3","SSW2015_e3_23",0,"Younger","RelatedLures",1,"1034.3","Include",143
"SSW2015_e3","SSW2015_e3_23",1,"Younger","Studied",4,"863.3","Include",144
"SSW2015_e3","SSW2015_e3_23",0,"Younger","RelatedLures",4,"889.9","Include",145
"SSW2015_e3","SSW2015_e3_23",1,"Younger","Studied",4,"818.2","Include",146
"SSW2015_e3","SSW2015_e3_23",0,"Younger","RelatedLures",4,"716.3","Include",147
"SSW2015_e3","SSW2015_e3_23",0,"Younger","UnrelatedLures",1,"727.6","Include",148
"SSW2015_e3","SSW2015_e3_23",0,"Younger","RelatedLures",1,"1643.4","Include",149
"SSW2015_e3","SSW2015_e3_23",1,"Younger","Studied",1,"1342.5","Include",150
"SSW2015_e3","SSW2015_e3_23",0,"Younger","UnrelatedLures",1,"908","Include",151
"SSW2015_e3","SSW2015_e3_23",1,"Younger","Studied",4,"789.2","Include",152
"SSW2015_e3","SSW2015_e3_23",0,"Younger","UnrelatedLures",1,"756.2","Include",153
"SSW2015_e3","SSW2015_e3_23",0,"Younger","UnrelatedLures",1,"740.4","Include",154
"SSW2015_e3","SSW2015_e3_23",0,"Younger","UnrelatedLures",1,"1321.8","Include",155
"SSW2015_e3","SSW2015_e3_23",0,"Younger","UnrelatedLures",1,"558.5","Include",156
"SSW2015_e3","SSW2015_e3_23",1,"Younger","Studied",4,"731.2","Include",157
"SSW2015_e3","SSW2015_e3_23",0,"Younger","UnrelatedLures",1,"831.8","Include",158
"SSW2015_e3","SSW2015_e3_23",1,"Younger","Studied",4,"798.2","Include",159
"SSW2015_e3","SSW2015_e3_23",1,"Younger","Studied",4,"1154.9000000000001","Include",160
"SSW2015_e3","SSW2015_e3_23",1,"Younger","Studied",4,"815.5","Include",161
"SSW2015_e3","SSW2015_e3_23",0,"Younger","UnrelatedLures",1,"872.8","Include",162
"SSW2015_e3","SSW2015_e3_23",0,"Younger","UnrelatedLures",1,"641","Include",163
"SSW2015_e3","SSW2015_e3_23",1,"Younger","Studied",4,"819.8","Include",164
"SSW2015_e3","SSW2015_e3_23",1,"Younger","Studied",4,"730.8","Include",165
"SSW2015_e3","SSW2015_e3_23",0,"Younger","RelatedLures",4,"1236.2","Include",166
"SSW2015_e3","SSW2015_e3_23",0,"Younger","RelatedLures",4,"1291.9000000000001","Include",167
"SSW2015_e3","SSW2015_e3_23",0,"Younger","RelatedLures",3,"1189.3","Include",168
"SSW2015_e3","SSW2015_e3_23",0,"Younger","RelatedLures",4,"797.6","Include",169
"SSW2015_e3","SSW2015_e3_23",0,"Younger","RelatedLures",3,"1365.9","Include",170
"SSW2015_e3","SSW2015_e3_23",0,"Younger","RelatedLures",3,"1042.4000000000001","Include",171
"SSW2015_e3","SSW2015_e3_23",0,"Younger","RelatedLures",4,"877.7","Include",172
"SSW2015_e3","SSW2015_e3_23",0,"Younger","UnrelatedLures",1,"906.9","Include",173
"SSW2015_e3","SSW2015_e3_23",1,"Younger","Studied",4,"777.1","Include",174
"SSW2015_e3","SSW2015_e3_23",0,"Younger","UnrelatedLures",1,"779.3","Include",175
"SSW2015_e3","SSW2015_e3_23",0,"Younger","UnrelatedLures",1,"777.6","Include",176
"SSW2015_e3","SSW2015_e3_23",0,"Younger","RelatedLures",3,"1412.1","Include",177
"SSW2015_e3","SSW2015_e3_23",0,"Younger","UnrelatedLures",3,"1623.8","Include",178
"SSW2015_e3","SSW2015_e3_23",0,"Younger","UnrelatedLures",1,"604.29999999999995","Include",179
"SSW2015_e3","SSW2015_e3_23",0,"Younger","RelatedLures",3,"1439.8","Include",180
"SSW2015_e3","SSW2015_e3_23",0,"Younger","UnrelatedLures",1,"646.4","Include",181
"SSW2015_e3","SSW2015_e3_23",0,"Younger","UnrelatedLures",1,"1412.1","Include",182
"SSW2015_e3","SSW2015_e3_23",0,"Younger","UnrelatedLures",1,"696.2","Include",183
"SSW2015_e3","SSW2015_e3_23",1,"Younger","Studied",3,"1162.5","Include",184
"SSW2015_e3","SSW2015_e3_23",0,"Younger","RelatedLures",4,"795.3","Include",185
"SSW2015_e3","SSW2015_e3_23",1,"Younger","Studied",4,"911.5","Include",186
"SSW2015_e3","SSW2015_e3_23",1,"Younger","Studied",4,"682.6","Include",187
"SSW2015_e3","SSW2015_e3_23",1,"Younger","Studied",4,"757.4","Include",188
"SSW2015_e3","SSW2015_e3_23",0,"Younger","RelatedLures",4,"727.7","Include",189
"SSW2015_e3","SSW2015_e3_23",0,"Younger","UnrelatedLures",1,"953.4","Include",190
"SSW2015_e3","SSW2015_e3_23",0,"Younger","UnrelatedLures",1,"533.70000000000005","Include",191
"SSW2015_e3","SSW2015_e3_23",0,"Younger","RelatedLures",3,"1295.3","Include",192
"SSW2015_e3","SSW2015_e3_24",0,"Younger","RelatedLures",4,"1870","Include",1
"SSW2015_e3","SSW2015_e3_24",0,"Younger","UnrelatedLures",4,"1129.4000000000001","Include",2
"SSW2015_e3","SSW2015_e3_24",0,"Younger","UnrelatedLures",4,"1362","Include",3
"SSW2015_e3","SSW2015_e3_24",0,"Younger","UnrelatedLures",4,"743.9","Include",4
"SSW2015_e3","SSW2015_e3_24",1,"Younger","Studied",4,"836.9","Include",5
"SSW2015_e3","SSW2015_e3_24",0,"Younger","RelatedLures",4,"1564.1","Include",6
"SSW2015_e3","SSW2015_e3_24",1,"Younger","Studied",4,"772.5","Include",7
"SSW2015_e3","SSW2015_e3_24",1,"Younger","Studied",4,"722.5","Include",8
"SSW2015_e3","SSW2015_e3_24",1,"Younger","Studied",3,"1717.5","Include",9
"SSW2015_e3","SSW2015_e3_24",0,"Younger","UnrelatedLures",2,"46.9","Include",10
"SSW2015_e3","SSW2015_e3_24",0,"Younger","RelatedLures",4,"1098.4000000000001","Include",11
"SSW2015_e3","SSW2015_e3_24",1,"Younger","Studied",4,"1050","Include",12
"SSW2015_e3","SSW2015_e3_24",0,"Younger","RelatedLures",4,"976.9","Include",13
"SSW2015_e3","SSW2015_e3_24",0,"Younger","RelatedLures",4,"690.8","Include",14
"SSW2015_e3","SSW2015_e3_24",0,"Younger","RelatedLures",4,"785.8","Include",15
"SSW2015_e3","SSW2015_e3_24",0,"Younger","UnrelatedLures",4,"976.4","Include",16
"SSW2015_e3","SSW2015_e3_24",1,"Younger","Studied",2,"158.19999999999999","Include",17
"SSW2015_e3","SSW2015_e3_24",0,"Younger","RelatedLures",4,"967","Include",18
"SSW2015_e3","SSW2015_e3_24",1,"Younger","Studied",2,"79.8","Include",19
"SSW2015_e3","SSW2015_e3_24",0,"Younger","UnrelatedLures",4,"1069.7","Include",20
"SSW2015_e3","SSW2015_e3_24",0,"Younger","UnrelatedLures",2,"1783.2","Include",21
"SSW2015_e3","SSW2015_e3_24",1,"Younger","Studied",4,"1001.3","Include",22
"SSW2015_e3","SSW2015_e3_24",0,"Younger","UnrelatedLures",4,"1007.7","Include",23
"SSW2015_e3","SSW2015_e3_24",0,"Younger","RelatedLures",4,"1941.5","Include",24
"SSW2015_e3","SSW2015_e3_24",0,"Younger","UnrelatedLures",3,"1699.5","Include",25
"SSW2015_e3","SSW2015_e3_24",1,"Younger","Studied",4,"72.5","Include",26
"SSW2015_e3","SSW2015_e3_24",0,"Younger","UnrelatedLures",4,"1440.6","Include",27
"SSW2015_e3","SSW2015_e3_24",0,"Younger","UnrelatedLures",4,"876.5","Include",28
"SSW2015_e3","SSW2015_e3_24",1,"Younger","Studied",3,"1331.2","Include",29
"SSW2015_e3","SSW2015_e3_24",0,"Younger","RelatedLures",4,"779.4","Include",30
"SSW2015_e3","SSW2015_e3_24",0,"Younger","UnrelatedLures",2,"1996.5","Include",31
"SSW2015_e3","SSW2015_e3_24",1,"Younger","Studied",4,"840.1","Include",32
"SSW2015_e3","SSW2015_e3_24",0,"Younger","UnrelatedLures",4,"1036.3","Include",33
"SSW2015_e3","SSW2015_e3_24",0,"Younger","RelatedLures",4,"1894.9","Include",34
"SSW2015_e3","SSW2015_e3_24",0,"Younger","RelatedLures",4,"1863.3","Include",35
"SSW2015_e3","SSW2015_e3_24",0,"Younger","UnrelatedLures",2,"33.6","Include",36
"SSW2015_e3","SSW2015_e3_24",1,"Younger","Studied",4,"768.2","Include",37
"SSW2015_e3","SSW2015_e3_24",0,"Younger","UnrelatedLures",1,"1378.2","Include",38
"SSW2015_e3","SSW2015_e3_24",0,"Younger","UnrelatedLures",4,"885.1","Include",39
"SSW2015_e3","SSW2015_e3_24",1,"Younger","Studied",1,"1421.9","Include",40
"SSW2015_e3","SSW2015_e3_24",1,"Younger","Studied",4,"770","Include",41
"SSW2015_e3","SSW2015_e3_24",1,"Younger","Studied",4,"798.6","Include",42
"SSW2015_e3","SSW2015_e3_24",0,"Younger","UnrelatedLures",1,"1170.9000000000001","Include",43
"SSW2015_e3","SSW2015_e3_24",1,"Younger","Studied",4,"999.8","Include",44
"SSW2015_e3","SSW2015_e3_24",0,"Younger","RelatedLures",2,"1510.5","Include",45
"SSW2015_e3","SSW2015_e3_24",1,"Younger","Studied",4,"1061.2","Include",46
"SSW2015_e3","SSW2015_e3_24",1,"Younger","Studied",4,"752","Include",47
"SSW2015_e3","SSW2015_e3_24",0,"Younger","UnrelatedLures",4,"1110","Include",48
"SSW2015_e3","SSW2015_e3_24",1,"Younger","Studied",4,"1082.8","Include",49
"SSW2015_e3","SSW2015_e3_24",1,"Younger","Studied",2,"1515.9","Include",50
"SSW2015_e3","SSW2015_e3_24",0,"Younger","UnrelatedLures",4,"770","Include",51
"SSW2015_e3","SSW2015_e3_24",0,"Younger","UnrelatedLures",4,"1390.5","Include",52
"SSW2015_e3","SSW2015_e3_24",0,"Younger","RelatedLures",4,"619.70000000000005","Include",53
"SSW2015_e3","SSW2015_e3_24",1,"Younger","Studied",4,"975.7","Include",54
"SSW2015_e3","SSW2015_e3_24",0,"Younger","RelatedLures",4,"824.7","Include",55
"SSW2015_e3","SSW2015_e3_24",1,"Younger","Studied",1,"1784.7","Include",56
"SSW2015_e3","SSW2015_e3_24",0,"Younger","UnrelatedLures",4,"1090.5","Include",57
"SSW2015_e3","SSW2015_e3_24",0,"Younger","RelatedLures",4,"1379","Include",58
"SSW2015_e3","SSW2015_e3_24",0,"Younger","RelatedLures",4,"1299.7","Include",59
"SSW2015_e3","SSW2015_e3_24",0,"Younger","UnrelatedLures",4,"876.4","Include",60
"SSW2015_e3","SSW2015_e3_24",1,"Younger","Studied",4,"878.7","Include",61
"SSW2015_e3","SSW2015_e3_24",0,"Younger","RelatedLures",2,"1246.8","Include",62
"SSW2015_e3","SSW2015_e3_24",0,"Younger","UnrelatedLures",1,"1772.1","Include",63
"SSW2015_e3","SSW2015_e3_24",0,"Younger","UnrelatedLures",1,"1713","Include",64
"SSW2015_e3","SSW2015_e3_24",0,"Younger","RelatedLures",4,"717.5","Include",65
"SSW2015_e3","SSW2015_e3_24",0,"Younger","UnrelatedLures",4,"1373.6","Include",66
"SSW2015_e3","SSW2015_e3_24",0,"Younger","UnrelatedLures",3,"1701.7","Include",67
"SSW2015_e3","SSW2015_e3_24",0,"Younger","RelatedLures",4,"887.5","Include",68
"SSW2015_e3","SSW2015_e3_24",1,"Younger","Studied",4,"1124.3","Include",69
"SSW2015_e3","SSW2015_e3_24",0,"Younger","UnrelatedLures",4,"1020.6","Include",70
"SSW2015_e3","SSW2015_e3_24",1,"Younger","Studied",4,"1077.7","Include",71
"SSW2015_e3","SSW2015_e3_24",1,"Younger","Studied",3,"1966.8","Include",72
"SSW2015_e3","SSW2015_e3_24",0,"Younger","UnrelatedLures",4,"1011.7","Include",73
"SSW2015_e3","SSW2015_e3_24",0,"Younger","UnrelatedLures",4,"1160.0999999999999","Include",74
"SSW2015_e3","SSW2015_e3_24",0,"Younger","UnrelatedLures",4,"1012.9","Include",75
"SSW2015_e3","SSW2015_e3_24",1,"Younger","Studied",4,"651.4","Include",76
"SSW2015_e3","SSW2015_e3_24",1,"Younger","Studied",4,"639.5","Include",77
"SSW2015_e3","SSW2015_e3_24",0,"Younger","UnrelatedLures",4,"1040.3","Include",78
"SSW2015_e3","SSW2015_e3_24",0,"Younger","UnrelatedLures",4,"921","Include",79
"SSW2015_e3","SSW2015_e3_24",1,"Younger","Studied",4,"567.70000000000005","Include",80
"SSW2015_e3","SSW2015_e3_24",1,"Younger","Studied",4,"594.1","Include",81
"SSW2015_e3","SSW2015_e3_24",0,"Younger","RelatedLures",2,"1202.2","Include",82
"SSW2015_e3","SSW2015_e3_24",1,"Younger","Studied",4,"955.4","Include",83
"SSW2015_e3","SSW2015_e3_24",0,"Younger","UnrelatedLures",1,"1648.9","Include",84
"SSW2015_e3","SSW2015_e3_24",0,"Younger","RelatedLures",4,"1304.8","Include",85
"SSW2015_e3","SSW2015_e3_24",0,"Younger","UnrelatedLures",4,"1277.2","Include",86
"SSW2015_e3","SSW2015_e3_24",0,"Younger","RelatedLures",2,"1886","Include",87
"SSW2015_e3","SSW2015_e3_24",1,"Younger","Studied",2,"1968.4","Include",88
"SSW2015_e3","SSW2015_e3_24",0,"Younger","RelatedLures",4,"1202.0999999999999","Include",89
"SSW2015_e3","SSW2015_e3_24",1,"Younger","Studied",4,"1625.4","Include",90
"SSW2015_e3","SSW2015_e3_24",0,"Younger","RelatedLures",2,"1701.1","Include",91
"SSW2015_e3","SSW2015_e3_24",0,"Younger","UnrelatedLures",4,"1142","Include",92
"SSW2015_e3","SSW2015_e3_24",1,"Younger","Studied",4,"886.8","Include",93
"SSW2015_e3","SSW2015_e3_24",1,"Younger","Studied",3,"1388.7","Include",94
"SSW2015_e3","SSW2015_e3_24",1,"Younger","Studied",4,"1390.7","Include",95
"SSW2015_e3","SSW2015_e3_24",0,"Younger","RelatedLures",4,"832.9","Include",96
"SSW2015_e3","SSW2015_e3_24",0,"Younger","RelatedLures",4,"1195.3","Include",97
"SSW2015_e3","SSW2015_e3_24",1,"Younger","Studied",2,"1688.6","Include",98
"SSW2015_e3","SSW2015_e3_24",0,"Younger","UnrelatedLures",4,"1760.1","Include",99
"SSW2015_e3","SSW2015_e3_24",0,"Younger","RelatedLures",4,"1152.5","Include",100
"SSW2015_e3","SSW2015_e3_24",1,"Younger","Studied",4,"1080","Include",101
"SSW2015_e3","SSW2015_e3_24",0,"Younger","RelatedLures",4,"764.7","Include",102
"SSW2015_e3","SSW2015_e3_24",1,"Younger","Studied",4,"784.8","Include",103
"SSW2015_e3","SSW2015_e3_24",0,"Younger","UnrelatedLures",4,"608.20000000000005","Include",104
"SSW2015_e3","SSW2015_e3_24",0,"Younger","RelatedLures",4,"739","Include",105
"SSW2015_e3","SSW2015_e3_24",1,"Younger","Studied",4,"1167.3","Include",106
"SSW2015_e3","SSW2015_e3_24",0,"Younger","UnrelatedLures",4,"856.3","Include",107
"SSW2015_e3","SSW2015_e3_24",0,"Younger","RelatedLures",4,"410.2","Include",108
"SSW2015_e3","SSW2015_e3_24",0,"Younger","RelatedLures",4,"957","Include",109
"SSW2015_e3","SSW2015_e3_24",0,"Younger","RelatedLures",4,"829.1","Include",110
"SSW2015_e3","SSW2015_e3_24",0,"Younger","UnrelatedLures",3,"1816.6","Include",111
"SSW2015_e3","SSW2015_e3_24",1,"Younger","Studied",4,"878.2","Include",112
"SSW2015_e3","SSW2015_e3_24",0,"Younger","RelatedLures",4,"1853.2","Include",113
"SSW2015_e3","SSW2015_e3_24",1,"Younger","Studied",4,"1185","Include",114
"SSW2015_e3","SSW2015_e3_24",0,"Younger","RelatedLures",4,"1142.7","Include",115
"SSW2015_e3","SSW2015_e3_24",0,"Younger","UnrelatedLures",4,"1430.3","Include",116
"SSW2015_e3","SSW2015_e3_24",0,"Younger","RelatedLures",3,"1752.6","Include",117
"SSW2015_e3","SSW2015_e3_24",0,"Younger","UnrelatedLures",4,"1694.8","Include",118
"SSW2015_e3","SSW2015_e3_24",1,"Younger","Studied",4,"1718.1","Include",119
"SSW2015_e3","SSW2015_e3_24",0,"Younger","UnrelatedLures",1,"308.60000000000002","Include",120
"SSW2015_e3","SSW2015_e3_24",1,"Younger","Studied",4,"1568.2","Include",121
"SSW2015_e3","SSW2015_e3_24",0,"Younger","RelatedLures",4,"1204","Include",122
"SSW2015_e3","SSW2015_e3_24",0,"Younger","RelatedLures",4,"938.3","Include",123
"SSW2015_e3","SSW2015_e3_24",0,"Younger","RelatedLures",4,"971.4","Include",124
"SSW2015_e3","SSW2015_e3_24",0,"Younger","RelatedLures",2,"1275.9000000000001","Include",125
"SSW2015_e3","SSW2015_e3_24",0,"Younger","RelatedLures",4,"799","Include",126
"SSW2015_e3","SSW2015_e3_24",0,"Younger","RelatedLures",4,"1423.3","Include",127
"SSW2015_e3","SSW2015_e3_24",0,"Younger","UnrelatedLures",4,"1114","Include",128
"SSW2015_e3","SSW2015_e3_24",0,"Younger","UnrelatedLures",1,"1590.8","Include",129
"SSW2015_e3","SSW2015_e3_24",0,"Younger","UnrelatedLures",3,"1901.1","Include",130
"SSW2015_e3","SSW2015_e3_24",0,"Younger","UnrelatedLures",4,"1235","Include",131
"SSW2015_e3","SSW2015_e3_24",1,"Younger","Studied",4,"684.3","Include",132
"SSW2015_e3","SSW2015_e3_24",0,"Younger","UnrelatedLures",4,"634.5","Include",133
"SSW2015_e3","SSW2015_e3_24",0,"Younger","RelatedLures",4,"742.7","Include",134
"SSW2015_e3","SSW2015_e3_24",0,"Younger","UnrelatedLures",4,"948.1","Include",135
"SSW2015_e3","SSW2015_e3_24",0,"Younger","UnrelatedLures",3,"60.5","Include",136
"SSW2015_e3","SSW2015_e3_24",0,"Younger","RelatedLures",4,"1479.2","Include",137
"SSW2015_e3","SSW2015_e3_24",1,"Younger","Studied",4,"792.6","Include",138
"SSW2015_e3","SSW2015_e3_24",1,"Younger","Studied",4,"811.8","Include",139
"SSW2015_e3","SSW2015_e3_24",0,"Younger","UnrelatedLures",4,"1418.5","Include",140
"SSW2015_e3","SSW2015_e3_24",0,"Younger","UnrelatedLures",4,"720.2","Include",141
"SSW2015_e3","SSW2015_e3_24",1,"Younger","Studied",2,"1400.5","Include",142
"SSW2015_e3","SSW2015_e3_24",0,"Younger","UnrelatedLures",4,"1145.3","Include",143
"SSW2015_e3","SSW2015_e3_24",0,"Younger","RelatedLures",4,"1214.7","Include",144
"SSW2015_e3","SSW2015_e3_24",0,"Younger","UnrelatedLures",4,"1147","Include",145
"SSW2015_e3","SSW2015_e3_24",1,"Younger","Studied",4,"822.2","Include",146
"SSW2015_e3","SSW2015_e3_24",1,"Younger","Studied",4,"1055.3","Include",147
"SSW2015_e3","SSW2015_e3_24",1,"Younger","Studied",4,"208.6","Include",148
"SSW2015_e3","SSW2015_e3_24",0,"Younger","RelatedLures",4,"1256.2","Include",149
"SSW2015_e3","SSW2015_e3_24",0,"Younger","RelatedLures",4,"1233.9000000000001","Include",150
"SSW2015_e3","SSW2015_e3_24",1,"Younger","Studied",4,"1434.6","Include",151
"SSW2015_e3","SSW2015_e3_24",1,"Younger","Studied",4,"892.4","Include",152
"SSW2015_e3","SSW2015_e3_24",0,"Younger","UnrelatedLures",4,"978.8","Include",153
"SSW2015_e3","SSW2015_e3_24",0,"Younger","RelatedLures",4,"1101.2","Include",154
"SSW2015_e3","SSW2015_e3_24",1,"Younger","Studied",3,"1603.5","Include",155
"SSW2015_e3","SSW2015_e3_24",0,"Younger","RelatedLures",4,"1577.8","Include",156
"SSW2015_e3","SSW2015_e3_24",0,"Younger","UnrelatedLures",4,"1069.7","Include",157
"SSW2015_e3","SSW2015_e3_24",1,"Younger","Studied",3,"1831.5","Include",158
"SSW2015_e3","SSW2015_e3_24",1,"Younger","Studied",4,"819.1","Include",159
"SSW2015_e3","SSW2015_e3_24",1,"Younger","Studied",4,"1237.3","Include",160
"SSW2015_e3","SSW2015_e3_24",0,"Younger","RelatedLures",4,"811","Include",161
"SSW2015_e3","SSW2015_e3_24",1,"Younger","Studied",4,"712.6","Include",162
"SSW2015_e3","SSW2015_e3_24",0,"Younger","RelatedLures",4,"599.79999999999995","Include",163
"SSW2015_e3","SSW2015_e3_24",0,"Younger","UnrelatedLures",4,"1377.3","Include",164
"SSW2015_e3","SSW2015_e3_24",0,"Younger","RelatedLures",4,"988.2","Include",165
"SSW2015_e3","SSW2015_e3_24",0,"Younger","RelatedLures",4,"939.1","Include",166
"SSW2015_e3","SSW2015_e3_24",0,"Younger","UnrelatedLures",4,"552.79999999999995","Include",167
"SSW2015_e3","SSW2015_e3_24",0,"Younger","UnrelatedLures",4,"798.6","Include",168
"SSW2015_e3","SSW2015_e3_24",0,"Younger","RelatedLures",4,"540.9","Include",169
"SSW2015_e3","SSW2015_e3_24",1,"Younger","Studied",3,"1440.2","Include",170
"SSW2015_e3","SSW2015_e3_24",0,"Younger","RelatedLures",4,"1105.4000000000001","Include",171
"SSW2015_e3","SSW2015_e3_24",0,"Younger","RelatedLures",4,"1004.7","Include",172
"SSW2015_e3","SSW2015_e3_24",0,"Younger","RelatedLures",4,"1592.5","Include",173
"SSW2015_e3","SSW2015_e3_24",1,"Younger","Studied",4,"1065","Include",174
"SSW2015_e3","SSW2015_e3_24",0,"Younger","UnrelatedLures",3,"1522.5","Include",175
"SSW2015_e3","SSW2015_e3_24",0,"Younger","UnrelatedLures",4,"1811.4","Include",176
"SSW2015_e3","SSW2015_e3_24",0,"Younger","UnrelatedLures",4,"1022.1","Include",177
"SSW2015_e3","SSW2015_e3_24",0,"Younger","RelatedLures",4,"756.2","Include",178
"SSW2015_e3","SSW2015_e3_24",1,"Younger","Studied",4,"752.2","Include",179
"SSW2015_e3","SSW2015_e3_24",0,"Younger","RelatedLures",2,"1420.1","Include",180
"SSW2015_e3","SSW2015_e3_24",0,"Younger","RelatedLures",4,"1350.6","Include",181
"SSW2015_e3","SSW2015_e3_24",1,"Younger","Studied",4,"1024.3","Include",182
"SSW2015_e3","SSW2015_e3_24",0,"Younger","RelatedLures",4,"1074.8","Include",183
"SSW2015_e3","SSW2015_e3_24",0,"Younger","UnrelatedLures",3,"1806.4","Include",184
"SSW2015_e3","SSW2015_e3_24",1,"Younger","Studied",3,"308.89999999999998","Include",185
"SSW2015_e3","SSW2015_e3_24",0,"Younger","UnrelatedLures",4,"1104.2","Include",186
"SSW2015_e3","SSW2015_e3_24",0,"Younger","RelatedLures",4,"1322.8","Include",187
"SSW2015_e3","SSW2015_e3_24",0,"Younger","RelatedLures",4,"1233.3","Include",188
"SSW2015_e3","SSW2015_e3_24",1,"Younger","Studied",4,"720.2","Include",189
"SSW2015_e3","SSW2015_e3_24",0,"Younger","UnrelatedLures",4,"1311","Include",190
"SSW2015_e3","SSW2015_e3_24",0,"Younger","RelatedLures",4,"506.8","Include",191
"SSW2015_e3","SSW2015_e3_24",0,"Younger","RelatedLures",4,"815.6","Include",192
"SSW2015_e3","SSW2015_e3_25",1,"Younger","Studied",4,"1437","Include",1
"SSW2015_e3","SSW2015_e3_25",0,"Younger","UnrelatedLures",1,"1501.7","Include",2
"SSW2015_e3","SSW2015_e3_25",1,"Younger","Studied",4,"1797.7","Include",3
"SSW2015_e3","SSW2015_e3_25",0,"Younger","UnrelatedLures",1,"1366.2","Include",4
"SSW2015_e3","SSW2015_e3_25",0,"Younger","RelatedLures",4,"1439.6","Include",5
"SSW2015_e3","SSW2015_e3_25",0,"Younger","RelatedLures",4,"975.3","Include",6
"SSW2015_e3","SSW2015_e3_25",0,"Younger","RelatedLures",3,"123.8","Include",7
"SSW2015_e3","SSW2015_e3_25",0,"Younger","RelatedLures",4,"1302","Include",8
"SSW2015_e3","SSW2015_e3_25",0,"Younger","UnrelatedLures",4,"1145.5999999999999","Include",9
"SSW2015_e3","SSW2015_e3_25",0,"Younger","UnrelatedLures",4,"769.6","Include",10
"SSW2015_e3","SSW2015_e3_25",0,"Younger","RelatedLures",4,"535.79999999999995","Include",11
"SSW2015_e3","SSW2015_e3_25",1,"Younger","Studied",2,"1609.3","Include",12
"SSW2015_e3","SSW2015_e3_25",1,"Younger","Studied",4,"936","Include",13
"SSW2015_e3","SSW2015_e3_25",0,"Younger","UnrelatedLures",4,"664.1","Include",14
"SSW2015_e3","SSW2015_e3_25",0,"Younger","UnrelatedLures",4,"976.6","Include",15
"SSW2015_e3","SSW2015_e3_25",1,"Younger","Studied",4,"764.5","Include",16
"SSW2015_e3","SSW2015_e3_25",0,"Younger","RelatedLures",4,"855.4","Include",17
"SSW2015_e3","SSW2015_e3_25",0,"Younger","RelatedLures",4,"1290.0999999999999","Include",18
"SSW2015_e3","SSW2015_e3_25",0,"Younger","UnrelatedLures",4,"605.29999999999995","Include",19
"SSW2015_e3","SSW2015_e3_25",0,"Younger","RelatedLures",4,"657.3","Include",20
"SSW2015_e3","SSW2015_e3_25",0,"Younger","RelatedLures",4,"830.8","Include",21
"SSW2015_e3","SSW2015_e3_25",1,"Younger","Studied",4,"851.7","Include",22
"SSW2015_e3","SSW2015_e3_25",0,"Younger","UnrelatedLures",4,"672.4","Include",23
"SSW2015_e3","SSW2015_e3_25",1,"Younger","Studied",4,"912.5","Include",24
"SSW2015_e3","SSW2015_e3_25",0,"Younger","RelatedLures",4,"1138.5","Include",25
"SSW2015_e3","SSW2015_e3_25",0,"Younger","RelatedLures",4,"638.1","Include",26
"SSW2015_e3","SSW2015_e3_25",0,"Younger","UnrelatedLures",4,"597.20000000000005","Include",27
"SSW2015_e3","SSW2015_e3_25",0,"Younger","RelatedLures",4,"803.7","Include",28
"SSW2015_e3","SSW2015_e3_25",0,"Younger","RelatedLures",4,"995","Include",29
"SSW2015_e3","SSW2015_e3_25",0,"Younger","RelatedLures",4,"1006.3","Include",30
"SSW2015_e3","SSW2015_e3_25",1,"Younger","Studied",4,"971.4","Include",31
"SSW2015_e3","SSW2015_e3_25",0,"Younger","RelatedLures",4,"882.2","Include",32
"SSW2015_e3","SSW2015_e3_25",1,"Younger","Studied",4,"1080.9000000000001","Include",33
"SSW2015_e3","SSW2015_e3_25",0,"Younger","UnrelatedLures",4,"953.4","Include",34
"SSW2015_e3","SSW2015_e3_25",0,"Younger","RelatedLures",4,"681.7","Include",35
"SSW2015_e3","SSW2015_e3_25",0,"Younger","UnrelatedLures",4,"1629.3","Include",36
"SSW2015_e3","SSW2015_e3_25",0,"Younger","RelatedLures",4,"1217.8","Include",37
"SSW2015_e3","SSW2015_e3_25",1,"Younger","Studied",3,"1182.9000000000001","Include",38
"SSW2015_e3","SSW2015_e3_25",0,"Younger","UnrelatedLures",3,"1161.2","Include",39
"SSW2015_e3","SSW2015_e3_25",1,"Younger","Studied",3,"1182.5999999999999","Include",40
"SSW2015_e3","SSW2015_e3_25",0,"Younger","RelatedLures",4,"1005.7","Include",41
"SSW2015_e3","SSW2015_e3_25",1,"Younger","Studied",4,"998.6","Include",42
"SSW2015_e3","SSW2015_e3_25",0,"Younger","UnrelatedLures",4,"747.2","Include",43
"SSW2015_e3","SSW2015_e3_25",0,"Younger","RelatedLures",2,"1441.2","Include",44
"SSW2015_e3","SSW2015_e3_25",0,"Younger","UnrelatedLures",4,"802.7","Include",45
"SSW2015_e3","SSW2015_e3_25",0,"Younger","UnrelatedLures",4,"959.3","Include",46
"SSW2015_e3","SSW2015_e3_25",0,"Younger","UnrelatedLures",4,"1378.3","Include",47
"SSW2015_e3","SSW2015_e3_25",0,"Younger","UnrelatedLures",4,"914.9","Include",48
"SSW2015_e3","SSW2015_e3_25",1,"Younger","Studied",4,"601.70000000000005","Include",49
"SSW2015_e3","SSW2015_e3_25",0,"Younger","RelatedLures",4,"547.79999999999995","Include",50
"SSW2015_e3","SSW2015_e3_25",1,"Younger","Studied",4,"566.5","Include",51
"SSW2015_e3","SSW2015_e3_25",0,"Younger","UnrelatedLures",4,"537.20000000000005","Include",52
"SSW2015_e3","SSW2015_e3_25",1,"Younger","Studied",4,"437.8","Include",53
"SSW2015_e3","SSW2015_e3_25",0,"Younger","UnrelatedLures",4,"431.8","Include",54
"SSW2015_e3","SSW2015_e3_25",0,"Younger","UnrelatedLures",4,"416.4","Include",55
"SSW2015_e3","SSW2015_e3_25",0,"Younger","RelatedLures",4,"613.20000000000005","Include",56
"SSW2015_e3","SSW2015_e3_25",1,"Younger","Studied",4,"536.5","Include",57
"SSW2015_e3","SSW2015_e3_25",0,"Younger","RelatedLures",4,"1079.0999999999999","Include",58
"SSW2015_e3","SSW2015_e3_25",0,"Younger","RelatedLures",4,"896.8","Include",59
"SSW2015_e3","SSW2015_e3_25",0,"Younger","UnrelatedLures",4,"516.79999999999995","Include",60
"SSW2015_e3","SSW2015_e3_25",1,"Younger","Studied",4,"545.9","Include",61
"SSW2015_e3","SSW2015_e3_25",1,"Younger","Studied",4,"733","Include",62
"SSW2015_e3","SSW2015_e3_25",0,"Younger","UnrelatedLures",4,"929.5","Include",63
"SSW2015_e3","SSW2015_e3_25",0,"Younger","RelatedLures",4,"777.9","Include",64
"SSW2015_e3","SSW2015_e3_25",1,"Younger","Studied",4,"837.4","Include",65
"SSW2015_e3","SSW2015_e3_25",0,"Younger","UnrelatedLures",4,"993.7","Include",66
"SSW2015_e3","SSW2015_e3_25",0,"Younger","RelatedLures",4,"1047.2","Include",67
"SSW2015_e3","SSW2015_e3_25",1,"Younger","Studied",4,"1157","Include",68
"SSW2015_e3","SSW2015_e3_25",0,"Younger","RelatedLures",4,"811.4","Include",69
"SSW2015_e3","SSW2015_e3_25",0,"Younger","UnrelatedLures",4,"679.1","Include",70
"SSW2015_e3","SSW2015_e3_25",1,"Younger","Studied",4,"608.79999999999995","Include",71
"SSW2015_e3","SSW2015_e3_25",1,"Younger","Studied",4,"1682","Include",72
"SSW2015_e3","SSW2015_e3_25",0,"Younger","RelatedLures",4,"910.9","Include",73
"SSW2015_e3","SSW2015_e3_25",0,"Younger","UnrelatedLures",4,"936.3","Include",74
"SSW2015_e3","SSW2015_e3_25",0,"Younger","UnrelatedLures",4,"699.1","Include",75
"SSW2015_e3","SSW2015_e3_25",1,"Younger","Studied",4,"661.1","Include",76
"SSW2015_e3","SSW2015_e3_25",0,"Younger","UnrelatedLures",4,"1029.4000000000001","Include",77
"SSW2015_e3","SSW2015_e3_25",0,"Younger","UnrelatedLures",4,"633.29999999999995","Include",78
"SSW2015_e3","SSW2015_e3_25",1,"Younger","Studied",4,"968.5","Include",79
"SSW2015_e3","SSW2015_e3_25",0,"Younger","RelatedLures",4,"558.70000000000005","Include",80
"SSW2015_e3","SSW2015_e3_25",1,"Younger","Studied",4,"640.1","Include",81
"SSW2015_e3","SSW2015_e3_25",1,"Younger","Studied",4,"620.9","Include",82
"SSW2015_e3","SSW2015_e3_25",0,"Younger","RelatedLures",3,"799.1","Include",83
"SSW2015_e3","SSW2015_e3_25",0,"Younger","RelatedLures",4,"670.6","Include",84
"SSW2015_e3","SSW2015_e3_25",0,"Younger","RelatedLures",4,"501.5","Include",85
"SSW2015_e3","SSW2015_e3_25",0,"Younger","UnrelatedLures",4,"613","Include",86
"SSW2015_e3","SSW2015_e3_25",0,"Younger","RelatedLures",4,"511.3","Include",87
"SSW2015_e3","SSW2015_e3_25",0,"Younger","UnrelatedLures",4,"738.6","Include",88
"SSW2015_e3","SSW2015_e3_25",1,"Younger","Studied",4,"923.8","Include",89
"SSW2015_e3","SSW2015_e3_25",1,"Younger","Studied",3,"1169.4000000000001","Include",90
"SSW2015_e3","SSW2015_e3_25",0,"Younger","UnrelatedLures",4,"858.8","Include",91
"SSW2015_e3","SSW2015_e3_25",0,"Younger","RelatedLures",4,"503","Include",92
"SSW2015_e3","SSW2015_e3_25",0,"Younger","UnrelatedLures",3,"1742.4","Include",93
"SSW2015_e3","SSW2015_e3_25",1,"Younger","Studied",4,"1271.3","Include",94
"SSW2015_e3","SSW2015_e3_25",0,"Younger","UnrelatedLures",4,"994.2","Include",95
"SSW2015_e3","SSW2015_e3_25",1,"Younger","Studied",3,"958.2","Include",96
"SSW2015_e3","SSW2015_e3_25",1,"Younger","Studied",4,"792.4","Include",97
"SSW2015_e3","SSW2015_e3_25",1,"Younger","Studied",4,"508.5","Include",98
"SSW2015_e3","SSW2015_e3_25",0,"Younger","RelatedLures",2,"1641","Include",99
"SSW2015_e3","SSW2015_e3_25",0,"Younger","RelatedLures",4,"640.6","Include",100
"SSW2015_e3","SSW2015_e3_25",0,"Younger","UnrelatedLures",4,"930.4","Include",101
"SSW2015_e3","SSW2015_e3_25",0,"Younger","UnrelatedLures",4,"910.7","Include",102
"SSW2015_e3","SSW2015_e3_25",0,"Younger","UnrelatedLures",2,"926.9","Include",103
"SSW2015_e3","SSW2015_e3_25",0,"Younger","RelatedLures",4,"531.9","Include",104
"SSW2015_e3","SSW2015_e3_25",0,"Younger","RelatedLures",4,"525.9","Include",105
"SSW2015_e3","SSW2015_e3_25",0,"Younger","UnrelatedLures",2,"671.9","Include",106
"SSW2015_e3","SSW2015_e3_25",1,"Younger","Studied",4,"552.4","Include",107
"SSW2015_e3","SSW2015_e3_25",1,"Younger","Studied",4,"614.29999999999995","Include",108
"SSW2015_e3","SSW2015_e3_25",0,"Younger","UnrelatedLures",4,"818.7","Include",109
"SSW2015_e3","SSW2015_e3_25",0,"Younger","UnrelatedLures",4,"698.6","Include",110
"SSW2015_e3","SSW2015_e3_25",1,"Younger","Studied",4,"824.8","Include",111
"SSW2015_e3","SSW2015_e3_25",1,"Younger","Studied",4,"495.7","Include",112
"SSW2015_e3","SSW2015_e3_25",0,"Younger","UnrelatedLures",4,"518.29999999999995","Include",113
"SSW2015_e3","SSW2015_e3_25",0,"Younger","UnrelatedLures",4,"1364","Include",114
"SSW2015_e3","SSW2015_e3_25",0,"Younger","RelatedLures",4,"618","Include",115
"SSW2015_e3","SSW2015_e3_25",0,"Younger","UnrelatedLures",4,"849.9","Include",116
"SSW2015_e3","SSW2015_e3_25",0,"Younger","RelatedLures",4,"721.7","Include",117
"SSW2015_e3","SSW2015_e3_25",1,"Younger","Studied",2,"1079.8","Include",118
"SSW2015_e3","SSW2015_e3_25",0,"Younger","RelatedLures",4,"601.5","Include",119
"SSW2015_e3","SSW2015_e3_25",0,"Younger","RelatedLures",4,"423.9","Include",120
"SSW2015_e3","SSW2015_e3_25",0,"Younger","RelatedLures",4,"395.4","Include",121
"SSW2015_e3","SSW2015_e3_25",0,"Younger","UnrelatedLures",4,"603.20000000000005","Include",122
"SSW2015_e3","SSW2015_e3_25",0,"Younger","UnrelatedLures",4,"671.1","Include",123
"SSW2015_e3","SSW2015_e3_25",1,"Younger","Studied",4,"515.6","Include",124
"SSW2015_e3","SSW2015_e3_25",0,"Younger","RelatedLures",4,"435.9","Include",125
"SSW2015_e3","SSW2015_e3_25",1,"Younger","Studied",4,"584.4","Include",126
"SSW2015_e3","SSW2015_e3_25",1,"Younger","Studied",4,"536.70000000000005","Include",127
"SSW2015_e3","SSW2015_e3_25",0,"Younger","UnrelatedLures",4,"904.6","Include",128
"SSW2015_e3","SSW2015_e3_25",0,"Younger","RelatedLures",4,"669.2","Include",129
"SSW2015_e3","SSW2015_e3_25",1,"Younger","Studied",2,"1099.9000000000001","Include",130
"SSW2015_e3","SSW2015_e3_25",0,"Younger","UnrelatedLures",2,"1260.0999999999999","Include",131
"SSW2015_e3","SSW2015_e3_25",1,"Younger","Studied",4,"661.7","Include",132
"SSW2015_e3","SSW2015_e3_25",1,"Younger","Studied",2,"953.7","Include",133
"SSW2015_e3","SSW2015_e3_25",1,"Younger","Studied",2,"883.7","Include",134
"SSW2015_e3","SSW2015_e3_25",1,"Younger","Studied",4,"696.3","Include",135
"SSW2015_e3","SSW2015_e3_25",1,"Younger","Studied",4,"660.3","Include",136
"SSW2015_e3","SSW2015_e3_25",1,"Younger","Studied",2,"746","Include",137
"SSW2015_e3","SSW2015_e3_25",1,"Younger","Studied",4,"656.4","Include",138
"SSW2015_e3","SSW2015_e3_25",0,"Younger","RelatedLures",3,"1611","Include",139
"SSW2015_e3","SSW2015_e3_25",1,"Younger","Studied",3,"786","Include",140
"SSW2015_e3","SSW2015_e3_25",1,"Younger","Studied",4,"668","Include",141
"SSW2015_e3","SSW2015_e3_25",0,"Younger","RelatedLures",2,"771.8","Include",142
"SSW2015_e3","SSW2015_e3_25",1,"Younger","Studied",4,"844.9","Include",143
"SSW2015_e3","SSW2015_e3_25",1,"Younger","Studied",4,"441.3","Include",144
"SSW2015_e3","SSW2015_e3_25",0,"Younger","RelatedLures",4,"1401.8","Include",145
"SSW2015_e3","SSW2015_e3_25",0,"Younger","UnrelatedLures",4,"741.7","Include",146
"SSW2015_e3","SSW2015_e3_25",0,"Younger","RelatedLures",4,"1228.2","Include",147
"SSW2015_e3","SSW2015_e3_25",0,"Younger","RelatedLures",3,"1345.8","Include",148
"SSW2015_e3","SSW2015_e3_25",1,"Younger","Studied",2,"1184.7","Include",149
"SSW2015_e3","SSW2015_e3_25",0,"Younger","RelatedLures",4,"841.3","Include",150
"SSW2015_e3","SSW2015_e3_25",0,"Younger","UnrelatedLures",4,"453.8","Include",151
"SSW2015_e3","SSW2015_e3_25",0,"Younger","RelatedLures",4,"461.5","Include",152
"SSW2015_e3","SSW2015_e3_25",0,"Younger","UnrelatedLures",4,"812","Include",153
"SSW2015_e3","SSW2015_e3_25",0,"Younger","UnrelatedLures",4,"813.4","Include",154
"SSW2015_e3","SSW2015_e3_25",1,"Younger","Studied",4,"617.29999999999995","Include",155
"SSW2015_e3","SSW2015_e3_25",0,"Younger","RelatedLures",4,"716.2","Include",156
"SSW2015_e3","SSW2015_e3_25",0,"Younger","RelatedLures",4,"574.1","Include",157
"SSW2015_e3","SSW2015_e3_25",0,"Younger","RelatedLures",2,"1058","Include",158
"SSW2015_e3","SSW2015_e3_25",0,"Younger","UnrelatedLures",2,"1106","Include",159
"SSW2015_e3","SSW2015_e3_25",1,"Younger","Studied",4,"822","Include",160
"SSW2015_e3","SSW2015_e3_25",0,"Younger","UnrelatedLures",4,"635.4","Include",161
"SSW2015_e3","SSW2015_e3_25",1,"Younger","Studied",4,"1391","Include",162
"SSW2015_e3","SSW2015_e3_25",0,"Younger","UnrelatedLures",4,"597","Include",163
"SSW2015_e3","SSW2015_e3_25",0,"Younger","UnrelatedLures",3,"998.8","Include",164
"SSW2015_e3","SSW2015_e3_25",0,"Younger","RelatedLures",4,"527.9","Include",165
"SSW2015_e3","SSW2015_e3_25",0,"Younger","UnrelatedLures",2,"1084.4000000000001","Include",166
"SSW2015_e3","SSW2015_e3_25",0,"Younger","RelatedLures",2,"722.1","Include",167
"SSW2015_e3","SSW2015_e3_25",0,"Younger","RelatedLures",4,"899.6","Include",168
"SSW2015_e3","SSW2015_e3_25",1,"Younger","Studied",4,"551.79999999999995","Include",169
"SSW2015_e3","SSW2015_e3_25",0,"Younger","RelatedLures",4,"513","Include",170
"SSW2015_e3","SSW2015_e3_25",0,"Younger","UnrelatedLures",4,"656.3","Include",171
"SSW2015_e3","SSW2015_e3_25",0,"Younger","UnrelatedLures",2,"960.5","Include",172
"SSW2015_e3","SSW2015_e3_25",1,"Younger","Studied",4,"624.5","Include",173
"SSW2015_e3","SSW2015_e3_25",0,"Younger","RelatedLures",2,"1814.4","Include",174
"SSW2015_e3","SSW2015_e3_25",1,"Younger","Studied",4,"783.5","Include",175
"SSW2015_e3","SSW2015_e3_25",0,"Younger","UnrelatedLures",2,"999.8","Include",176
"SSW2015_e3","SSW2015_e3_25",1,"Younger","Studied",2,"697","Include",177
"SSW2015_e3","SSW2015_e3_25",0,"Younger","UnrelatedLures",4,"520.1","Include",178
"SSW2015_e3","SSW2015_e3_25",0,"Younger","RelatedLures",4,"1176.2","Include",179
"SSW2015_e3","SSW2015_e3_25",1,"Younger","Studied",4,"716.7","Include",180
"SSW2015_e3","SSW2015_e3_25",0,"Younger","RelatedLures",2,"647.5","Include",181
"SSW2015_e3","SSW2015_e3_25",1,"Younger","Studied",2,"1357.4","Include",182
"SSW2015_e3","SSW2015_e3_25",1,"Younger","Studied",2,"627.79999999999995","Include",183
"SSW2015_e3","SSW2015_e3_25",0,"Younger","RelatedLures",3,"1295","Include",184
"SSW2015_e3","SSW2015_e3_25",0,"Younger","UnrelatedLures",3,"1104.5999999999999","Include",185
"SSW2015_e3","SSW2015_e3_25",0,"Younger","UnrelatedLures",3,"909.7","Include",186
"SSW2015_e3","SSW2015_e3_25",0,"Younger","RelatedLures",2,"1829.9","Include",187
"SSW2015_e3","SSW2015_e3_25",0,"Younger","UnrelatedLures",2,"1219.3","Include",188
"SSW2015_e3","SSW2015_e3_25",0,"Younger","UnrelatedLures",4,"1013.5","Include",189
"SSW2015_e3","SSW2015_e3_25",1,"Younger","Studied",4,"1146.0999999999999","Include",190
"SSW2015_e3","SSW2015_e3_25",0,"Younger","UnrelatedLures",4,"956.4","Include",191
"SSW2015_e3","SSW2015_e3_25",0,"Younger","RelatedLures",4,"560.1","Include",192
"SSW2015_e3","SSW2015_e3_26",0,"Younger","UnrelatedLures",1,"1274.0999999999999","Include",1
"SSW2015_e3","SSW2015_e3_26",0,"Younger","RelatedLures",3,"1509.2","Include",2
"SSW2015_e3","SSW2015_e3_26",0,"Younger","RelatedLures",3,"266","Include",3
"SSW2015_e3","SSW2015_e3_26",0,"Younger","RelatedLures",4,"1170.7","Include",4
"SSW2015_e3","SSW2015_e3_26",0,"Younger","RelatedLures",4,"1308","Include",5
"SSW2015_e3","SSW2015_e3_26",1,"Younger","Studied",4,"1053.2","Include",6
"SSW2015_e3","SSW2015_e3_26",0,"Younger","RelatedLures",4,"1121.5999999999999","Include",7
"SSW2015_e3","SSW2015_e3_26",0,"Younger","UnrelatedLures",1,"1257.7","Include",8
"SSW2015_e3","SSW2015_e3_26",0,"Younger","UnrelatedLures",1,"850.7","Include",9
"SSW2015_e3","SSW2015_e3_26",0,"Younger","RelatedLures",2,"1404.6","Include",10
"SSW2015_e3","SSW2015_e3_26",0,"Younger","UnrelatedLures",1,"1068","Include",11
"SSW2015_e3","SSW2015_e3_26",0,"Younger","RelatedLures",1,"1028.2","Include",12
"SSW2015_e3","SSW2015_e3_26",0,"Younger","UnrelatedLures",1,"955.3","Include",13
"SSW2015_e3","SSW2015_e3_26",0,"Younger","UnrelatedLures",1,"772.2","Include",14
"SSW2015_e3","SSW2015_e3_26",0,"Younger","RelatedLures",1,"1549.4","Include",15
"SSW2015_e3","SSW2015_e3_26",0,"Younger","UnrelatedLures",1,"757.2","Include",16
"SSW2015_e3","SSW2015_e3_26",0,"Younger","RelatedLures",3,"1225","Include",17
"SSW2015_e3","SSW2015_e3_26",0,"Younger","RelatedLures",3,"1227","Include",18
"SSW2015_e3","SSW2015_e3_26",0,"Younger","RelatedLures",4,"1070.5","Include",19
"SSW2015_e3","SSW2015_e3_26",1,"Younger","Studied",4,"1019.7","Include",20
"SSW2015_e3","SSW2015_e3_26",1,"Younger","Studied",4,"1129.4000000000001","Include",21
"SSW2015_e3","SSW2015_e3_26",0,"Younger","RelatedLures",1,"1237.2","Include",22
"SSW2015_e3","SSW2015_e3_26",1,"Younger","Studied",3,"1314.7","Include",23
"SSW2015_e3","SSW2015_e3_26",0,"Younger","UnrelatedLures",1,"1034.3","Include",24
"SSW2015_e3","SSW2015_e3_26",0,"Younger","RelatedLures",2,"1202","Include",25
"SSW2015_e3","SSW2015_e3_26",0,"Younger","RelatedLures",1,"1381","Include",26
"SSW2015_e3","SSW2015_e3_26",0,"Younger","UnrelatedLures",1,"1492.3","Include",27
"SSW2015_e3","SSW2015_e3_26",0,"Younger","RelatedLures",3,"1574.5","Include",28
"SSW2015_e3","SSW2015_e3_26",0,"Younger","RelatedLures",4,"1137.5","Include",29
"SSW2015_e3","SSW2015_e3_26",0,"Younger","UnrelatedLures",1,"1210.7","Include",30
"SSW2015_e3","SSW2015_e3_26",1,"Younger","Studied",3,"1416","Include",31
"SSW2015_e3","SSW2015_e3_26",1,"Younger","Studied",3,"1361.4","Include",32
"SSW2015_e3","SSW2015_e3_26",0,"Younger","RelatedLures",3,"1269.8","Include",33
"SSW2015_e3","SSW2015_e3_26",0,"Younger","UnrelatedLures",1,"907.2","Include",34
"SSW2015_e3","SSW2015_e3_26",0,"Younger","RelatedLures",3,"1306.8","Include",35
"SSW2015_e3","SSW2015_e3_26",0,"Younger","UnrelatedLures",1,"1574.5","Include",36
"SSW2015_e3","SSW2015_e3_26",0,"Younger","RelatedLures",3,"1373.3","Include",37
"SSW2015_e3","SSW2015_e3_26",1,"Younger","Studied",4,"988.3","Include",38
"SSW2015_e3","SSW2015_e3_26",0,"Younger","UnrelatedLures",1,"1169.7","Include",39
"SSW2015_e3","SSW2015_e3_26",0,"Younger","RelatedLures",2,"1049.0999999999999","Include",40
"SSW2015_e3","SSW2015_e3_26",0,"Younger","UnrelatedLures",1,"1171.3","Include",41
"SSW2015_e3","SSW2015_e3_26",1,"Younger","Studied",4,"1374.8","Include",42
"SSW2015_e3","SSW2015_e3_26",1,"Younger","Studied",4,"1678.8","Include",43
"SSW2015_e3","SSW2015_e3_26",0,"Younger","UnrelatedLures",1,"743.1","Include",44
"SSW2015_e3","SSW2015_e3_26",0,"Younger","UnrelatedLures",2,"1601.9","Include",45
"SSW2015_e3","SSW2015_e3_26",0,"Younger","UnrelatedLures",1,"936.3","Include",46
"SSW2015_e3","SSW2015_e3_26",1,"Younger","Studied",4,"1191","Include",47
"SSW2015_e3","SSW2015_e3_26",0,"Younger","UnrelatedLures",1,"1028.7","Include",48
"SSW2015_e3","SSW2015_e3_26",1,"Younger","Studied",3,"1145.4000000000001","Include",49
"SSW2015_e3","SSW2015_e3_26",0,"Younger","RelatedLures",4,"1771.1","Include",50
"SSW2015_e3","SSW2015_e3_26",1,"Younger","Studied",4,"1204.5999999999999","Include",51
"SSW2015_e3","SSW2015_e3_26",1,"Younger","Studied",4,"917.6","Include",52
"SSW2015_e3","SSW2015_e3_26",1,"Younger","Studied",3,"1107.4000000000001","Include",53
"SSW2015_e3","SSW2015_e3_26",0,"Younger","UnrelatedLures",1,"821.3","Include",54
"SSW2015_e3","SSW2015_e3_26",1,"Younger","Studied",4,"1182.4000000000001","Include",55
"SSW2015_e3","SSW2015_e3_26",0,"Younger","RelatedLures",3,"1730.2","Include",56
"SSW2015_e3","SSW2015_e3_26",1,"Younger","Studied",4,"1560.2","Include",57
"SSW2015_e3","SSW2015_e3_26",0,"Younger","UnrelatedLures",1,"812.4","Include",58
"SSW2015_e3","SSW2015_e3_26",0,"Younger","UnrelatedLures",1,"1035","Include",59
"SSW2015_e3","SSW2015_e3_26",0,"Younger","RelatedLures",3,"1359.9","Include",60
"SSW2015_e3","SSW2015_e3_26",1,"Younger","Studied",4,"1393.7","Include",61
"SSW2015_e3","SSW2015_e3_26",0,"Younger","RelatedLures",4,"1027.9000000000001","Include",62
"SSW2015_e3","SSW2015_e3_26",0,"Younger","RelatedLures",3,"1259.2","Include",63
"SSW2015_e3","SSW2015_e3_26",0,"Younger","UnrelatedLures",1,"1005.1","Include",64
"SSW2015_e3","SSW2015_e3_26",1,"Younger","Studied",3,"1195.9000000000001","Include",65
"SSW2015_e3","SSW2015_e3_26",1,"Younger","Studied",4,"1079.9000000000001","Include",66
"SSW2015_e3","SSW2015_e3_26",0,"Younger","RelatedLures",3,"1357.7","Include",67
"SSW2015_e3","SSW2015_e3_26",0,"Younger","RelatedLures",4,"890.6","Include",68
"SSW2015_e3","SSW2015_e3_26",0,"Younger","UnrelatedLures",1,"1074.0999999999999","Include",69
"SSW2015_e3","SSW2015_e3_26",1,"Younger","Studied",3,"1329.5","Include",70
"SSW2015_e3","SSW2015_e3_26",0,"Younger","UnrelatedLures",1,"1330","Include",71
"SSW2015_e3","SSW2015_e3_26",1,"Younger","Studied",3,"1541.6","Include",72
"SSW2015_e3","SSW2015_e3_26",0,"Younger","UnrelatedLures",2,"1455.1","Include",73
"SSW2015_e3","SSW2015_e3_26",1,"Younger","Studied",4,"1479.7","Include",74
"SSW2015_e3","SSW2015_e3_26",1,"Younger","Studied",4,"1243.2","Include",75
"SSW2015_e3","SSW2015_e3_26",0,"Younger","UnrelatedLures",1,"1534.7","Include",76
"SSW2015_e3","SSW2015_e3_26",1,"Younger","Studied",4,"1825.3","Include",77
"SSW2015_e3","SSW2015_e3_26",0,"Younger","UnrelatedLures",1,"1299","Include",78
"SSW2015_e3","SSW2015_e3_26",0,"Younger","RelatedLures",1,"1544.7","Include",79
"SSW2015_e3","SSW2015_e3_26",1,"Younger","Studied",4,"1489.1","Include",80
"SSW2015_e3","SSW2015_e3_26",1,"Younger","Studied",4,"1150.4000000000001","Include",81
"SSW2015_e3","SSW2015_e3_26",1,"Younger","Studied",4,"1181.8","Include",82
"SSW2015_e3","SSW2015_e3_26",0,"Younger","UnrelatedLures",1,"1325.3","Include",83
"SSW2015_e3","SSW2015_e3_26",1,"Younger","Studied",4,"1165.4000000000001","Include",84
"SSW2015_e3","SSW2015_e3_26",0,"Younger","UnrelatedLures",1,"1833.4","Include",85
"SSW2015_e3","SSW2015_e3_26",1,"Younger","Studied",4,"1115","Include",86
"SSW2015_e3","SSW2015_e3_26",0,"Younger","UnrelatedLures",1,"884.3","Include",87
"SSW2015_e3","SSW2015_e3_26",0,"Younger","RelatedLures",4,"1339.2","Include",88
"SSW2015_e3","SSW2015_e3_26",0,"Younger","UnrelatedLures",1,"1675.6","Include",89
"SSW2015_e3","SSW2015_e3_26",1,"Younger","Studied",3,"1195.9000000000001","Include",90
"SSW2015_e3","SSW2015_e3_26",1,"Younger","Studied",1,"1007.1","Include",91
"SSW2015_e3","SSW2015_e3_26",0,"Younger","RelatedLures",2,"1959.2","Include",92
"SSW2015_e3","SSW2015_e3_26",0,"Younger","UnrelatedLures",1,"782.4","Include",93
"SSW2015_e3","SSW2015_e3_26",0,"Younger","UnrelatedLures",1,"1238","Include",94
"SSW2015_e3","SSW2015_e3_26",1,"Younger","Studied",3,"1675.2","Include",95
"SSW2015_e3","SSW2015_e3_26",0,"Younger","UnrelatedLures",1,"910.4","Include",96
"SSW2015_e3","SSW2015_e3_26",0,"Younger","UnrelatedLures",2,"1380.2","Include",97
"SSW2015_e3","SSW2015_e3_26",0,"Younger","RelatedLures",4,"980.5","Include",98
"SSW2015_e3","SSW2015_e3_26",1,"Younger","Studied",4,"1425.4","Include",99
"SSW2015_e3","SSW2015_e3_26",0,"Younger","RelatedLures",4,"965.6","Include",100
"SSW2015_e3","SSW2015_e3_26",1,"Younger","Studied",3,"1124.4000000000001","Include",101
"SSW2015_e3","SSW2015_e3_26",0,"Younger","RelatedLures",4,"835.1","Include",102
"SSW2015_e3","SSW2015_e3_26",0,"Younger","RelatedLures",1,"1135.7","Include",103
"SSW2015_e3","SSW2015_e3_26",1,"Younger","Studied",3,"1643.6","Include",104
"SSW2015_e3","SSW2015_e3_26",0,"Younger","UnrelatedLures",1,"1983.2","Include",105
"SSW2015_e3","SSW2015_e3_26",1,"Younger","Studied",4,"1729.7","Include",106
"SSW2015_e3","SSW2015_e3_26",0,"Younger","RelatedLures",3,"1832.1","Include",107
"SSW2015_e3","SSW2015_e3_26",0,"Younger","RelatedLures",4,"1149","Include",108
"SSW2015_e3","SSW2015_e3_26",1,"Younger","Studied",3,"1544.7","Include",109
"SSW2015_e3","SSW2015_e3_26",0,"Younger","RelatedLures",4,"1418.8","Include",110
"SSW2015_e3","SSW2015_e3_26",0,"Younger","RelatedLures",4,"926.4","Include",111
"SSW2015_e3","SSW2015_e3_26",1,"Younger","Studied",4,"860","Include",112
"SSW2015_e3","SSW2015_e3_26",0,"Younger","RelatedLures",3,"1421.7","Include",113
"SSW2015_e3","SSW2015_e3_26",1,"Younger","Studied",4,"848.1","Include",114
"SSW2015_e3","SSW2015_e3_26",0,"Younger","RelatedLures",1,"1140.7","Include",115
"SSW2015_e3","SSW2015_e3_26",0,"Younger","RelatedLures",2,"7.5","Include",116
"SSW2015_e3","SSW2015_e3_26",0,"Younger","RelatedLures",3,"1398.7","Include",117
"SSW2015_e3","SSW2015_e3_26",0,"Younger","RelatedLures",4,"1512.1","Include",118
"SSW2015_e3","SSW2015_e3_26",0,"Younger","RelatedLures",4,"892.3","Include",119
"SSW2015_e3","SSW2015_e3_26",0,"Younger","UnrelatedLures",1,"1129.4000000000001","Include",120
"SSW2015_e3","SSW2015_e3_26",0,"Younger","UnrelatedLures",2,"895.5","Include",121
"SSW2015_e3","SSW2015_e3_26",0,"Younger","UnrelatedLures",1,"1065.3","Include",122
"SSW2015_e3","SSW2015_e3_26",1,"Younger","Studied",3,"1604.3","Include",123
"SSW2015_e3","SSW2015_e3_26",0,"Younger","RelatedLures",4,"1128.2","Include",124
"SSW2015_e3","SSW2015_e3_26",0,"Younger","UnrelatedLures",1,"1181.7","Include",125
"SSW2015_e3","SSW2015_e3_26",0,"Younger","UnrelatedLures",1,"865.3","Include",126
"SSW2015_e3","SSW2015_e3_26",0,"Younger","RelatedLures",3,"1150.9000000000001","Include",127
"SSW2015_e3","SSW2015_e3_26",1,"Younger","Studied",4,"881.8","Include",128
"SSW2015_e3","SSW2015_e3_26",0,"Younger","UnrelatedLures",1,"930.2","Include",129
"SSW2015_e3","SSW2015_e3_26",1,"Younger","Studied",2,"1111.7","Include",130
"SSW2015_e3","SSW2015_e3_26",1,"Younger","Studied",3,"1143","Include",131
"SSW2015_e3","SSW2015_e3_26",0,"Younger","RelatedLures",2,"1752","Include",132
"SSW2015_e3","SSW2015_e3_26",0,"Younger","UnrelatedLures",1,"797.8","Include",133
"SSW2015_e3","SSW2015_e3_26",0,"Younger","UnrelatedLures",1,"1007.2","Include",134
"SSW2015_e3","SSW2015_e3_26",0,"Younger","UnrelatedLures",1,"1009.4","Include",135
"SSW2015_e3","SSW2015_e3_26",1,"Younger","Studied",3,"1251.8","Include",136
"SSW2015_e3","SSW2015_e3_26",0,"Younger","RelatedLures",3,"1424.8","Include",137
"SSW2015_e3","SSW2015_e3_26",1,"Younger","Studied",4,"1935.4","Include",138
"SSW2015_e3","SSW2015_e3_26",0,"Younger","RelatedLures",2,"1267.4000000000001","Include",139
"SSW2015_e3","SSW2015_e3_26",0,"Younger","RelatedLures",4,"1098.5","Include",140
"SSW2015_e3","SSW2015_e3_26",0,"Younger","RelatedLures",4,"958.9","Include",141
"SSW2015_e3","SSW2015_e3_26",1,"Younger","Studied",4,"880.5","Include",142
"SSW2015_e3","SSW2015_e3_26",1,"Younger","Studied",4,"879.2","Include",143
"SSW2015_e3","SSW2015_e3_26",0,"Younger","RelatedLures",3,"1200.5","Include",144
"SSW2015_e3","SSW2015_e3_26",1,"Younger","Studied",4,"883.1","Include",145
"SSW2015_e3","SSW2015_e3_26",0,"Younger","RelatedLures",4,"1144.5999999999999","Include",146
"SSW2015_e3","SSW2015_e3_26",0,"Younger","RelatedLures",2,"1341.3","Include",147
"SSW2015_e3","SSW2015_e3_26",0,"Younger","UnrelatedLures",1,"703.1","Include",148
"SSW2015_e3","SSW2015_e3_26",0,"Younger","RelatedLures",3,"1105.5999999999999","Include",149
"SSW2015_e3","SSW2015_e3_26",0,"Younger","UnrelatedLures",1,"1192.8","Include",150
"SSW2015_e3","SSW2015_e3_26",1,"Younger","Studied",3,"1884.3","Include",151
"SSW2015_e3","SSW2015_e3_26",1,"Younger","Studied",4,"1210.9000000000001","Include",152
"SSW2015_e3","SSW2015_e3_26",0,"Younger","RelatedLures",2,"1472.4","Include",153
"SSW2015_e3","SSW2015_e3_26",0,"Younger","UnrelatedLures",1,"1253.0999999999999","Include",154
"SSW2015_e3","SSW2015_e3_26",1,"Younger","Studied",3,"1425.9","Include",155
"SSW2015_e3","SSW2015_e3_26",0,"Younger","RelatedLures",1,"1961","Include",156
"SSW2015_e3","SSW2015_e3_26",1,"Younger","Studied",4,"1151.0999999999999","Include",157
"SSW2015_e3","SSW2015_e3_26",0,"Younger","UnrelatedLures",1,"1206.0999999999999","Include",158
"SSW2015_e3","SSW2015_e3_26",0,"Younger","UnrelatedLures",1,"771.8","Include",159
"SSW2015_e3","SSW2015_e3_26",1,"Younger","Studied",4,"1639.8","Include",160
"SSW2015_e3","SSW2015_e3_26",0,"Younger","UnrelatedLures",1,"715.6","Include",161
"SSW2015_e3","SSW2015_e3_26",0,"Younger","UnrelatedLures",1,"970.8","Include",162
"SSW2015_e3","SSW2015_e3_26",1,"Younger","Studied",3,"1012.4","Include",163
"SSW2015_e3","SSW2015_e3_26",1,"Younger","Studied",1,"916.6","Include",164
"SSW2015_e3","SSW2015_e3_26",1,"Younger","Studied",4,"1032.7","Include",165
"SSW2015_e3","SSW2015_e3_26",0,"Younger","RelatedLures",1,"1337.5","Include",166
"SSW2015_e3","SSW2015_e3_26",0,"Younger","UnrelatedLures",1,"1262","Include",167
"SSW2015_e3","SSW2015_e3_26",0,"Younger","RelatedLures",4,"939.8","Include",168
"SSW2015_e3","SSW2015_e3_26",0,"Younger","UnrelatedLures",1,"1177.4000000000001","Include",169
"SSW2015_e3","SSW2015_e3_26",0,"Younger","RelatedLures",4,"1015.4","Include",170
"SSW2015_e3","SSW2015_e3_26",0,"Younger","UnrelatedLures",1,"1080.0999999999999","Include",171
"SSW2015_e3","SSW2015_e3_26",0,"Younger","UnrelatedLures",1,"736.4","Include",172
"SSW2015_e3","SSW2015_e3_26",0,"Younger","UnrelatedLures",2,"1294","Include",173
"SSW2015_e3","SSW2015_e3_26",0,"Younger","RelatedLures",2,"1336.6","Include",174
"SSW2015_e3","SSW2015_e3_26",0,"Younger","RelatedLures",1,"1088","Include",175
"SSW2015_e3","SSW2015_e3_26",1,"Younger","Studied",4,"1185","Include",176
"SSW2015_e3","SSW2015_e3_26",0,"Younger","RelatedLures",1,"1064.0999999999999","Include",177
"SSW2015_e3","SSW2015_e3_26",0,"Younger","UnrelatedLures",1,"787.4","Include",178
"SSW2015_e3","SSW2015_e3_26",0,"Younger","UnrelatedLures",1,"580.1","Include",179
"SSW2015_e3","SSW2015_e3_26",0,"Younger","RelatedLures",2,"1185.4000000000001","Include",180
"SSW2015_e3","SSW2015_e3_26",1,"Younger","Studied",4,"1697.9","Include",181
"SSW2015_e3","SSW2015_e3_26",1,"Younger","Studied",4,"1039.5999999999999","Include",182
"SSW2015_e3","SSW2015_e3_26",1,"Younger","Studied",1,"763.8","Include",183
"SSW2015_e3","SSW2015_e3_26",1,"Younger","Studied",3,"1173.3","Include",184
"SSW2015_e3","SSW2015_e3_26",0,"Younger","UnrelatedLures",1,"999.8","Include",185
"SSW2015_e3","SSW2015_e3_26",0,"Younger","UnrelatedLures",1,"879.7","Include",186
"SSW2015_e3","SSW2015_e3_26",0,"Younger","UnrelatedLures",1,"764.5","Include",187
"SSW2015_e3","SSW2015_e3_26",0,"Younger","UnrelatedLures",1,"766.3","Include",188
"SSW2015_e3","SSW2015_e3_26",0,"Younger","UnrelatedLures",2,"1111.7","Include",189
"SSW2015_e3","SSW2015_e3_26",1,"Younger","Studied",4,"1300.0999999999999","Include",190
"SSW2015_e3","SSW2015_e3_26",1,"Younger","Studied",4,"878.4","Include",191
"SSW2015_e3","SSW2015_e3_26",1,"Younger","Studied",3,"1348.3","Include",192
"SSW2015_e3","SSW2015_e3_27",0,"Younger","RelatedLures",4,"1941.1","Include",1
"SSW2015_e3","SSW2015_e3_27",1,"Younger","Studied",4,"1237.3","Include",2
"SSW2015_e3","SSW2015_e3_27",1,"Younger","Studied",4,"1120.5","Include",3
"SSW2015_e3","SSW2015_e3_27",0,"Younger","UnrelatedLures",1,"1350.1","Include",4
"SSW2015_e3","SSW2015_e3_27",0,"Younger","UnrelatedLures",1,"793.2","Include",5
"SSW2015_e3","SSW2015_e3_27",1,"Younger","Studied",4,"1094.9000000000001","Include",6
"SSW2015_e3","SSW2015_e3_27",1,"Younger","Studied",4,"892.7","Include",7
"SSW2015_e3","SSW2015_e3_27",1,"Younger","Studied",4,"1201.9000000000001","Include",8
"SSW2015_e3","SSW2015_e3_27",0,"Younger","UnrelatedLures",1,"1686.4","Include",9
"SSW2015_e3","SSW2015_e3_27",1,"Younger","Studied",4,"1090.3","Include",10
"SSW2015_e3","SSW2015_e3_27",0,"Younger","UnrelatedLures",1,"1926.7","Include",11
"SSW2015_e3","SSW2015_e3_27",0,"Younger","UnrelatedLures",1,"1076.2","Include",12
"SSW2015_e3","SSW2015_e3_27",0,"Younger","UnrelatedLures",1,"750.5","Include",13
"SSW2015_e3","SSW2015_e3_27",1,"Younger","Studied",4,"908.6","Include",14
"SSW2015_e3","SSW2015_e3_27",1,"Younger","Studied",4,"1069.7","Include",15
"SSW2015_e3","SSW2015_e3_27",0,"Younger","UnrelatedLures",1,"782.6","Include",16
"SSW2015_e3","SSW2015_e3_27",0,"Younger","UnrelatedLures",1,"854.1","Include",17
"SSW2015_e3","SSW2015_e3_27",0,"Younger","UnrelatedLures",1,"665.6","Include",18
"SSW2015_e3","SSW2015_e3_27",0,"Younger","RelatedLures",4,"1018.4","Include",19
"SSW2015_e3","SSW2015_e3_27",1,"Younger","Studied",3,"1715.6","Include",20
"SSW2015_e3","SSW2015_e3_27",0,"Younger","RelatedLures",3,"1585.7","Include",21
"SSW2015_e3","SSW2015_e3_27",0,"Younger","RelatedLures",2,"1849.8","Include",22
"SSW2015_e3","SSW2015_e3_27",0,"Younger","UnrelatedLures",1,"1995.1","Include",23
"SSW2015_e3","SSW2015_e3_27",0,"Younger","UnrelatedLures",1,"1244.2","Include",24
"SSW2015_e3","SSW2015_e3_27",1,"Younger","Studied",4,"853","Include",25
"SSW2015_e3","SSW2015_e3_27",0,"Younger","UnrelatedLures",1,"975.6","Include",26
"SSW2015_e3","SSW2015_e3_27",0,"Younger","RelatedLures",3,"1519.8","Include",27
"SSW2015_e3","SSW2015_e3_27",0,"Younger","UnrelatedLures",1,"947.1","Include",28
"SSW2015_e3","SSW2015_e3_27",1,"Younger","Studied",4,"910.6","Include",29
"SSW2015_e3","SSW2015_e3_27",0,"Younger","UnrelatedLures",1,"1270.0999999999999","Include",30
"SSW2015_e3","SSW2015_e3_27",0,"Younger","RelatedLures",1,"1572.5","Include",31
"SSW2015_e3","SSW2015_e3_27",0,"Younger","RelatedLures",1,"851.3","Include",32
"SSW2015_e3","SSW2015_e3_27",0,"Younger","UnrelatedLures",1,"574.70000000000005","Include",33
"SSW2015_e3","SSW2015_e3_27",0,"Younger","RelatedLures",1,"646","Include",34
"SSW2015_e3","SSW2015_e3_27",1,"Younger","Studied",4,"1036.4000000000001","Include",35
"SSW2015_e3","SSW2015_e3_27",1,"Younger","Studied",4,"895","Include",36
"SSW2015_e3","SSW2015_e3_27",0,"Younger","RelatedLures",3,"99.4","Include",37
"SSW2015_e3","SSW2015_e3_27",0,"Younger","RelatedLures",3,"1471.4","Include",38
"SSW2015_e3","SSW2015_e3_27",0,"Younger","RelatedLures",4,"1167.9000000000001","Include",39
"SSW2015_e3","SSW2015_e3_27",0,"Younger","RelatedLures",3,"1384.2","Include",40
"SSW2015_e3","SSW2015_e3_27",1,"Younger","Studied",4,"858.1","Include",41
"SSW2015_e3","SSW2015_e3_27",0,"Younger","RelatedLures",3,"1465.7","Include",42
"SSW2015_e3","SSW2015_e3_27",0,"Younger","RelatedLures",1,"1120","Include",43
"SSW2015_e3","SSW2015_e3_27",1,"Younger","Studied",3,"1233.9000000000001","Include",44
"SSW2015_e3","SSW2015_e3_27",0,"Younger","RelatedLures",1,"1390.1","Include",45
"SSW2015_e3","SSW2015_e3_27",0,"Younger","UnrelatedLures",1,"762.2","Include",46
"SSW2015_e3","SSW2015_e3_27",0,"Younger","RelatedLures",1,"1106.8","Include",47
"SSW2015_e3","SSW2015_e3_27",0,"Younger","UnrelatedLures",1,"1037.7","Include",48
"SSW2015_e3","SSW2015_e3_27",1,"Younger","Studied",4,"601","Include",49
"SSW2015_e3","SSW2015_e3_27",1,"Younger","Studied",4,"791.9","Include",50
"SSW2015_e3","SSW2015_e3_27",1,"Younger","Studied",4,"739.7","Include",51
"SSW2015_e3","SSW2015_e3_27",1,"Younger","Studied",4,"914.2","Include",52
"SSW2015_e3","SSW2015_e3_27",0,"Younger","UnrelatedLures",1,"775.8","Include",53
"SSW2015_e3","SSW2015_e3_27",0,"Younger","UnrelatedLures",4,"574.1","Include",54
"SSW2015_e3","SSW2015_e3_27",0,"Younger","UnrelatedLures",1,"875.4","Include",55
"SSW2015_e3","SSW2015_e3_27",1,"Younger","Studied",4,"870.6","Include",56
"SSW2015_e3","SSW2015_e3_27",0,"Younger","UnrelatedLures",1,"707.3","Include",57
"SSW2015_e3","SSW2015_e3_27",0,"Younger","RelatedLures",4,"849.4","Include",58
"SSW2015_e3","SSW2015_e3_27",1,"Younger","Studied",4,"1310.7","Include",59
"SSW2015_e3","SSW2015_e3_27",1,"Younger","Studied",3,"1563.4","Include",60
"SSW2015_e3","SSW2015_e3_27",1,"Younger","Studied",1,"1754.7","Include",61
"SSW2015_e3","SSW2015_e3_27",0,"Younger","RelatedLures",1,"1536.8","Include",62
"SSW2015_e3","SSW2015_e3_27",0,"Younger","UnrelatedLures",1,"745.7","Include",63
"SSW2015_e3","SSW2015_e3_27",0,"Younger","RelatedLures",1,"1680.3","Include",64
"SSW2015_e3","SSW2015_e3_27",1,"Younger","Studied",4,"1699.6","Include",65
"SSW2015_e3","SSW2015_e3_27",0,"Younger","RelatedLures",1,"1687.4","Include",66
"SSW2015_e3","SSW2015_e3_27",0,"Younger","UnrelatedLures",1,"1183.5999999999999","Include",67
"SSW2015_e3","SSW2015_e3_27",1,"Younger","Studied",3,"1463.4","Include",68
"SSW2015_e3","SSW2015_e3_27",0,"Younger","RelatedLures",3,"1332.4","Include",69
"SSW2015_e3","SSW2015_e3_27",0,"Younger","UnrelatedLures",1,"1019.7","Include",70
"SSW2015_e3","SSW2015_e3_27",1,"Younger","Studied",1,"1023.1","Include",71
"SSW2015_e3","SSW2015_e3_27",0,"Younger","RelatedLures",1,"972.4","Include",72
"SSW2015_e3","SSW2015_e3_27",0,"Younger","RelatedLures",2,"1694.3","Include",73
"SSW2015_e3","SSW2015_e3_27",0,"Younger","UnrelatedLures",1,"1541.6","Include",74
"SSW2015_e3","SSW2015_e3_27",0,"Younger","RelatedLures",3,"1769.7","Include",75
"SSW2015_e3","SSW2015_e3_27",0,"Younger","UnrelatedLures",1,"1097.7","Include",76
"SSW2015_e3","SSW2015_e3_27",0,"Younger","RelatedLures",1,"846.2","Include",77
"SSW2015_e3","SSW2015_e3_27",0,"Younger","RelatedLures",4,"1228.8","Include",78
"SSW2015_e3","SSW2015_e3_27",1,"Younger","Studied",4,"840.5","Include",79
"SSW2015_e3","SSW2015_e3_27",0,"Younger","RelatedLures",4,"601.4","Include",80
"SSW2015_e3","SSW2015_e3_27",0,"Younger","UnrelatedLures",2,"1881.2","Include",81
"SSW2015_e3","SSW2015_e3_27",0,"Younger","RelatedLures",3,"1534.1","Include",82
"SSW2015_e3","SSW2015_e3_27",1,"Younger","Studied",4,"1037.0999999999999","Include",83
"SSW2015_e3","SSW2015_e3_27",0,"Younger","RelatedLures",4,"1108.4000000000001","Include",84
"SSW2015_e3","SSW2015_e3_27",0,"Younger","RelatedLures",3,"1354.2","Include",85
"SSW2015_e3","SSW2015_e3_27",1,"Younger","Studied",4,"803.2","Include",86
"SSW2015_e3","SSW2015_e3_27",1,"Younger","Studied",4,"716.6","Include",87
"SSW2015_e3","SSW2015_e3_27",0,"Younger","UnrelatedLures",2,"1704.4","Include",88
"SSW2015_e3","SSW2015_e3_27",1,"Younger","Studied",4,"1297.4000000000001","Include",89
