"exp","id","block","isold","condition1","condition2","rating","RT","excluding","trial"
"SWR2012_e2","SWR2012_e2_1",1,1,"pure","Strong",1,23,"Exclude",1
"SWR2012_e2","SWR2012_e2_1",1,0,"pure","Strong",1,1738,"Exclude",2
"SWR2012_e2","SWR2012_e2_1",1,0,"pure","Strong",1,2976,"Exclude",3
"SWR2012_e2","SWR2012_e2_1",1,1,"pure","Strong",16,2831,"Exclude",4
"SWR2012_e2","SWR2012_e2_1",1,1,"pure","Strong",19,3261,"Exclude",5
"SWR2012_e2","SWR2012_e2_1",1,1,"pure","Strong",20,1008,"Exclude",6
"SWR2012_e2","SWR2012_e2_1",1,1,"pure","Strong",20,809,"Exclude",7
"SWR2012_e2","SWR2012_e2_1",1,1,"pure","Strong",9,3093,"Exclude",8
"SWR2012_e2","SWR2012_e2_1",1,0,"pure","Strong",4,1861,"Exclude",9
"SWR2012_e2","SWR2012_e2_1",1,1,"pure","Strong",20,1482,"Exclude",10
"SWR2012_e2","SWR2012_e2_1",1,1,"pure","Strong",20,714,"Exclude",11
"SWR2012_e2","SWR2012_e2_1",1,0,"pure","Strong",5,1630,"Exclude",12
"SWR2012_e2","SWR2012_e2_1",1,0,"pure","Strong",4,1503,"Exclude",13
"SWR2012_e2","SWR2012_e2_1",1,1,"pure","Strong",10,2766,"Exclude",14
"SWR2012_e2","SWR2012_e2_1",1,0,"pure","Strong",10,1493,"Exclude",15
"SWR2012_e2","SWR2012_e2_1",1,1,"pure","Strong",18,4482,"Exclude",16
"SWR2012_e2","SWR2012_e2_1",1,0,"pure","Strong",3,2810,"Exclude",17
"SWR2012_e2","SWR2012_e2_1",1,1,"pure","Strong",15,3557,"Exclude",18
"SWR2012_e2","SWR2012_e2_1",1,0,"pure","Strong",2,1694,"Exclude",19
"SWR2012_e2","SWR2012_e2_1",1,0,"pure","Strong",6,1734,"Exclude",20
"SWR2012_e2","SWR2012_e2_1",1,0,"pure","Strong",6,1294,"Exclude",21
"SWR2012_e2","SWR2012_e2_1",1,0,"pure","Strong",1,1652,"Exclude",22
"SWR2012_e2","SWR2012_e2_1",1,1,"pure","Strong",20,1367,"Exclude",23
"SWR2012_e2","SWR2012_e2_1",1,0,"pure","Strong",12,3915,"Exclude",24
"SWR2012_e2","SWR2012_e2_1",2,0,"pure","Weak",17,3411,"Exclude",1
"SWR2012_e2","SWR2012_e2_1",2,1,"pure","Weak",13,3925,"Exclude",2
"SWR2012_e2","SWR2012_e2_1",2,0,"pure","Weak",3,1998,"Exclude",3
"SWR2012_e2","SWR2012_e2_1",2,0,"pure","Weak",2,1597,"Exclude",4
"SWR2012_e2","SWR2012_e2_1",2,0,"pure","Weak",2,2935,"Exclude",5
"SWR2012_e2","SWR2012_e2_1",2,0,"pure","Weak",5,1505,"Exclude",6
"SWR2012_e2","SWR2012_e2_1",2,1,"pure","Weak",17,7862,"Exclude",7
"SWR2012_e2","SWR2012_e2_1",2,1,"pure","Weak",4,1441,"Exclude",8
"SWR2012_e2","SWR2012_e2_1",2,0,"pure","Weak",19,2187,"Exclude",9
"SWR2012_e2","SWR2012_e2_1",2,1,"pure","Weak",14,4295,"Exclude",10
"SWR2012_e2","SWR2012_e2_1",2,0,"pure","Weak",8,2020,"Exclude",11
"SWR2012_e2","SWR2012_e2_1",2,0,"pure","Weak",9,1251,"Exclude",12
"SWR2012_e2","SWR2012_e2_1",2,1,"pure","Weak",12,2304,"Exclude",13
"SWR2012_e2","SWR2012_e2_1",2,0,"pure","Weak",2,1474,"Exclude",14
"SWR2012_e2","SWR2012_e2_1",2,1,"pure","Weak",16,2715,"Exclude",15
"SWR2012_e2","SWR2012_e2_1",2,0,"pure","Weak",20,2471,"Exclude",16
"SWR2012_e2","SWR2012_e2_1",2,1,"pure","Weak",19,2529,"Exclude",17
"SWR2012_e2","SWR2012_e2_1",2,1,"pure","Weak",20,1081,"Exclude",18
"SWR2012_e2","SWR2012_e2_1",2,1,"pure","Weak",20,1126,"Exclude",19
"SWR2012_e2","SWR2012_e2_1",2,1,"pure","Weak",12,2632,"Exclude",20
"SWR2012_e2","SWR2012_e2_1",2,1,"pure","Weak",20,1304,"Exclude",21
"SWR2012_e2","SWR2012_e2_1",2,0,"pure","Weak",2,3020,"Exclude",22
"SWR2012_e2","SWR2012_e2_1",2,0,"pure","Weak",14,10228,"Exclude",23
"SWR2012_e2","SWR2012_e2_1",2,1,"pure","Weak",7,3661,"Exclude",24
"SWR2012_e2","SWR2012_e2_1",3,0,"pure","Strong",2,1701,"Include",1
"SWR2012_e2","SWR2012_e2_1",3,0,"pure","Strong",20,1166,"Include",2
"SWR2012_e2","SWR2012_e2_1",3,1,"pure","Strong",19,1324,"Include",3
"SWR2012_e2","SWR2012_e2_1",3,1,"pure","Strong",6,1652,"Include",4
"SWR2012_e2","SWR2012_e2_1",3,1,"pure","Strong",20,1010,"Include",5
"SWR2012_e2","SWR2012_e2_1",3,0,"pure","Strong",1,1788,"Include",6
"SWR2012_e2","SWR2012_e2_1",3,0,"pure","Strong",6,2241,"Include",7
"SWR2012_e2","SWR2012_e2_1",3,1,"pure","Strong",20,989,"Include",8
"SWR2012_e2","SWR2012_e2_1",3,1,"pure","Strong",16,1830,"Include",9
"SWR2012_e2","SWR2012_e2_1",3,0,"pure","Strong",5,7597,"Exclude",10
"SWR2012_e2","SWR2012_e2_1",3,1,"pure","Strong",19,1767,"Include",11
"SWR2012_e2","SWR2012_e2_1",3,1,"pure","Strong",7,1355,"Include",12
"SWR2012_e2","SWR2012_e2_1",3,0,"pure","Strong",7,1261,"Include",13
"SWR2012_e2","SWR2012_e2_1",3,1,"pure","Strong",16,2640,"Include",14
"SWR2012_e2","SWR2012_e2_1",3,0,"pure","Strong",8,3619,"Include",15
"SWR2012_e2","SWR2012_e2_1",3,0,"pure","Strong",13,3723,"Include",16
"SWR2012_e2","SWR2012_e2_1",3,0,"pure","Strong",10,3252,"Include",17
"SWR2012_e2","SWR2012_e2_1",3,0,"pure","Strong",3,1997,"Include",18
"SWR2012_e2","SWR2012_e2_1",3,0,"pure","Strong",18,1766,"Include",19
"SWR2012_e2","SWR2012_e2_1",3,1,"pure","Strong",20,1158,"Include",20
"SWR2012_e2","SWR2012_e2_1",3,1,"pure","Strong",15,1442,"Include",21
"SWR2012_e2","SWR2012_e2_1",3,0,"pure","Strong",4,1693,"Include",22
"SWR2012_e2","SWR2012_e2_1",3,1,"pure","Strong",20,1136,"Include",23
"SWR2012_e2","SWR2012_e2_1",3,1,"pure","Strong",20,959,"Include",24
"SWR2012_e2","SWR2012_e2_1",4,0,"pure","Weak",4,1704,"Include",1
"SWR2012_e2","SWR2012_e2_1",4,0,"pure","Weak",6,2501,"Include",2
"SWR2012_e2","SWR2012_e2_1",4,1,"pure","Weak",16,1397,"Include",3
"SWR2012_e2","SWR2012_e2_1",4,0,"pure","Weak",8,2335,"Include",4
"SWR2012_e2","SWR2012_e2_1",4,1,"pure","Weak",7,1407,"Include",5
"SWR2012_e2","SWR2012_e2_1",4,0,"pure","Weak",6,2029,"Include",6
"SWR2012_e2","SWR2012_e2_1",4,1,"pure","Weak",5,1555,"Include",7
"SWR2012_e2","SWR2012_e2_1",4,0,"pure","Weak",2,5104,"Include",8
"SWR2012_e2","SWR2012_e2_1",4,1,"pure","Weak",16,3166,"Include",9
"SWR2012_e2","SWR2012_e2_1",4,0,"pure","Weak",8,6987,"Exclude",10
"SWR2012_e2","SWR2012_e2_1",4,1,"pure","Weak",15,3302,"Include",11
"SWR2012_e2","SWR2012_e2_1",4,0,"pure","Weak",12,1506,"Include",12
"SWR2012_e2","SWR2012_e2_1",4,1,"pure","Weak",9,3221,"Include",13
"SWR2012_e2","SWR2012_e2_1",4,0,"pure","Weak",10,2508,"Include",14
"SWR2012_e2","SWR2012_e2_1",4,1,"pure","Weak",17,1495,"Include",15
"SWR2012_e2","SWR2012_e2_1",4,0,"pure","Weak",16,2159,"Include",16
"SWR2012_e2","SWR2012_e2_1",4,1,"pure","Weak",20,1356,"Include",17
"SWR2012_e2","SWR2012_e2_1",4,0,"pure","Weak",6,2884,"Include",18
"SWR2012_e2","SWR2012_e2_1",4,0,"pure","Weak",11,2272,"Include",19
"SWR2012_e2","SWR2012_e2_1",4,1,"pure","Weak",18,1956,"Include",20
"SWR2012_e2","SWR2012_e2_1",4,0,"pure","Weak",6,1902,"Include",21
"SWR2012_e2","SWR2012_e2_1",4,1,"pure","Weak",14,1367,"Include",22
"SWR2012_e2","SWR2012_e2_1",4,1,"pure","Weak",19,2083,"Include",23
"SWR2012_e2","SWR2012_e2_1",4,1,"pure","Weak",3,1303,"Include",24
"SWR2012_e2","SWR2012_e2_1",5,1,"pure","Strong",20,1555,"Include",1
"SWR2012_e2","SWR2012_e2_1",5,1,"pure","Strong",20,2407,"Include",2
"SWR2012_e2","SWR2012_e2_1",5,0,"pure","Strong",2,1578,"Include",3
"SWR2012_e2","SWR2012_e2_1",5,0,"pure","Strong",1,1915,"Include",4
"SWR2012_e2","SWR2012_e2_1",5,1,"pure","Strong",16,2367,"Include",5
"SWR2012_e2","SWR2012_e2_1",5,0,"pure","Strong",2,2103,"Include",6
"SWR2012_e2","SWR2012_e2_1",5,0,"pure","Strong",2,1654,"Include",7
"SWR2012_e2","SWR2012_e2_1",5,1,"pure","Strong",14,2346,"Include",8
"SWR2012_e2","SWR2012_e2_1",5,0,"pure","Strong",2,2051,"Include",9
"SWR2012_e2","SWR2012_e2_1",5,1,"pure","Strong",10,2420,"Include",10
"SWR2012_e2","SWR2012_e2_1",5,0,"pure","Strong",11,1387,"Include",11
"SWR2012_e2","SWR2012_e2_1",5,1,"pure","Strong",20,1831,"Include",12
"SWR2012_e2","SWR2012_e2_1",5,1,"pure","Strong",20,865,"Include",13
"SWR2012_e2","SWR2012_e2_1",5,0,"pure","Strong",3,2645,"Include",14
"SWR2012_e2","SWR2012_e2_1",5,0,"pure","Strong",2,1378,"Include",15
"SWR2012_e2","SWR2012_e2_1",5,1,"pure","Strong",20,1062,"Include",16
"SWR2012_e2","SWR2012_e2_1",5,0,"pure","Strong",2,1642,"Include",17
"SWR2012_e2","SWR2012_e2_1",5,0,"pure","Strong",1,1261,"Include",18
"SWR2012_e2","SWR2012_e2_1",5,1,"pure","Strong",20,1504,"Include",19
"SWR2012_e2","SWR2012_e2_1",5,1,"pure","Strong",14,4875,"Include",20
"SWR2012_e2","SWR2012_e2_1",5,1,"pure","Strong",20,990,"Include",21
"SWR2012_e2","SWR2012_e2_1",5,1,"pure","Strong",20,821,"Include",22
"SWR2012_e2","SWR2012_e2_1",5,0,"pure","Strong",3,2622,"Include",23
"SWR2012_e2","SWR2012_e2_1",5,0,"pure","Strong",2,1116,"Include",24
"SWR2012_e2","SWR2012_e2_1",6,0,"pure","Weak",7,3305,"Include",1
"SWR2012_e2","SWR2012_e2_1",6,1,"pure","Weak",20,1293,"Include",2
"SWR2012_e2","SWR2012_e2_1",6,1,"pure","Weak",6,2800,"Include",3
"SWR2012_e2","SWR2012_e2_1",6,0,"pure","Weak",3,2323,"Include",4
"SWR2012_e2","SWR2012_e2_1",6,0,"pure","Weak",4,1598,"Include",5
"SWR2012_e2","SWR2012_e2_1",6,0,"pure","Weak",3,977,"Include",6
"SWR2012_e2","SWR2012_e2_1",6,0,"pure","Weak",10,2177,"Include",7
"SWR2012_e2","SWR2012_e2_1",6,0,"pure","Weak",6,2610,"Include",8
"SWR2012_e2","SWR2012_e2_1",6,0,"pure","Weak",14,6377,"Exclude",9
"SWR2012_e2","SWR2012_e2_1",6,0,"pure","Weak",4,1377,"Include",10
"SWR2012_e2","SWR2012_e2_1",6,1,"pure","Weak",6,2493,"Include",11
"SWR2012_e2","SWR2012_e2_1",6,1,"pure","Weak",18,1914,"Include",12
"SWR2012_e2","SWR2012_e2_1",6,1,"pure","Weak",20,2220,"Include",13
"SWR2012_e2","SWR2012_e2_1",6,0,"pure","Weak",3,1999,"Include",14
"SWR2012_e2","SWR2012_e2_1",6,1,"pure","Weak",20,1566,"Include",15
"SWR2012_e2","SWR2012_e2_1",6,0,"pure","Weak",7,1997,"Include",16
"SWR2012_e2","SWR2012_e2_1",6,1,"pure","Weak",13,3020,"Include",17
"SWR2012_e2","SWR2012_e2_1",6,1,"pure","Weak",20,1450,"Include",18
"SWR2012_e2","SWR2012_e2_1",6,1,"pure","Weak",4,2681,"Include",19
"SWR2012_e2","SWR2012_e2_1",6,1,"pure","Weak",7,2533,"Include",20
"SWR2012_e2","SWR2012_e2_1",6,1,"pure","Weak",12,1840,"Include",21
"SWR2012_e2","SWR2012_e2_1",6,0,"pure","Weak",6,3651,"Include",22
"SWR2012_e2","SWR2012_e2_1",6,0,"pure","Weak",10,9830,"Exclude",23
"SWR2012_e2","SWR2012_e2_1",6,1,"pure","Weak",10,776,"Include",24
"SWR2012_e2","SWR2012_e2_1",7,1,"pure","Strong",19,2840,"Include",1
"SWR2012_e2","SWR2012_e2_1",7,0,"pure","Strong",1,6946,"Exclude",2
"SWR2012_e2","SWR2012_e2_1",7,1,"pure","Strong",19,2607,"Include",3
"SWR2012_e2","SWR2012_e2_1",7,0,"pure","Strong",2,1323,"Include",4
"SWR2012_e2","SWR2012_e2_1",7,1,"pure","Strong",10,4031,"Include",5
"SWR2012_e2","SWR2012_e2_1",7,0,"pure","Strong",11,1534,"Include",6
"SWR2012_e2","SWR2012_e2_1",7,0,"pure","Strong",3,5684,"Include",7
"SWR2012_e2","SWR2012_e2_1",7,0,"pure","Strong",5,1112,"Include",8
"SWR2012_e2","SWR2012_e2_1",7,1,"pure","Strong",20,2355,"Include",9
"SWR2012_e2","SWR2012_e2_1",7,1,"pure","Strong",8,2628,"Include",10
"SWR2012_e2","SWR2012_e2_1",7,0,"pure","Strong",5,2387,"Include",11
"SWR2012_e2","SWR2012_e2_1",7,0,"pure","Strong",5,1343,"Include",12
"SWR2012_e2","SWR2012_e2_1",7,0,"pure","Strong",4,1039,"Include",13
"SWR2012_e2","SWR2012_e2_1",7,0,"pure","Strong",6,1188,"Include",14
"SWR2012_e2","SWR2012_e2_1",7,1,"pure","Strong",20,1240,"Include",15
"SWR2012_e2","SWR2012_e2_1",7,0,"pure","Strong",3,1681,"Include",16
"SWR2012_e2","SWR2012_e2_1",7,1,"pure","Strong",6,2271,"Include",17
"SWR2012_e2","SWR2012_e2_1",7,1,"pure","Strong",17,4260,"Include",18
"SWR2012_e2","SWR2012_e2_1",7,1,"pure","Strong",20,1323,"Include",19
"SWR2012_e2","SWR2012_e2_1",7,1,"pure","Strong",20,1008,"Include",20
"SWR2012_e2","SWR2012_e2_1",7,0,"pure","Strong",7,1483,"Include",21
"SWR2012_e2","SWR2012_e2_1",7,1,"pure","Strong",20,2892,"Include",22
"SWR2012_e2","SWR2012_e2_1",7,1,"pure","Strong",9,4344,"Include",23
"SWR2012_e2","SWR2012_e2_1",7,0,"pure","Strong",2,1333,"Include",24
"SWR2012_e2","SWR2012_e2_1",8,1,"pure","Weak",19,1661,"Include",1
"SWR2012_e2","SWR2012_e2_1",8,0,"pure","Weak",3,1274,"Include",2
"SWR2012_e2","SWR2012_e2_1",8,0,"pure","Weak",6,1030,"Include",3
"SWR2012_e2","SWR2012_e2_1",8,1,"pure","Weak",11,2872,"Include",4
"SWR2012_e2","SWR2012_e2_1",8,0,"pure","Weak",6,1956,"Include",5
"SWR2012_e2","SWR2012_e2_1",8,1,"pure","Weak",17,2187,"Include",6
"SWR2012_e2","SWR2012_e2_1",8,0,"pure","Weak",7,1230,"Include",7
"SWR2012_e2","SWR2012_e2_1",8,0,"pure","Weak",9,3051,"Include",8
"SWR2012_e2","SWR2012_e2_1",8,1,"pure","Weak",10,1124,"Include",9
"SWR2012_e2","SWR2012_e2_1",8,1,"pure","Weak",20,1483,"Include",10
"SWR2012_e2","SWR2012_e2_1",8,0,"pure","Weak",7,1326,"Include",11
"SWR2012_e2","SWR2012_e2_1",8,1,"pure","Weak",13,2230,"Include",12
"SWR2012_e2","SWR2012_e2_1",8,1,"pure","Weak",4,1608,"Include",13
"SWR2012_e2","SWR2012_e2_1",8,0,"pure","Weak",3,1766,"Include",14
"SWR2012_e2","SWR2012_e2_1",8,1,"pure","Weak",5,998,"Include",15
"SWR2012_e2","SWR2012_e2_1",8,1,"pure","Weak",6,1114,"Include",16
"SWR2012_e2","SWR2012_e2_1",8,0,"pure","Weak",6,2536,"Include",17
"SWR2012_e2","SWR2012_e2_1",8,1,"pure","Weak",6,1765,"Include",18
"SWR2012_e2","SWR2012_e2_1",8,0,"pure","Weak",6,1483,"Include",19
"SWR2012_e2","SWR2012_e2_1",8,0,"pure","Weak",6,1568,"Include",20
"SWR2012_e2","SWR2012_e2_1",8,0,"pure","Weak",9,6337,"Exclude",21
"SWR2012_e2","SWR2012_e2_1",8,0,"pure","Weak",10,2535,"Include",22
"SWR2012_e2","SWR2012_e2_1",8,1,"pure","Weak",11,2135,"Include",23
"SWR2012_e2","SWR2012_e2_1",8,1,"pure","Weak",15,2978,"Include",24
"SWR2012_e2","SWR2012_e2_1",9,1,"pure","Strong",4,1305,"Include",1
"SWR2012_e2","SWR2012_e2_1",9,0,"pure","Strong",5,2178,"Include",2
"SWR2012_e2","SWR2012_e2_1",9,0,"pure","Strong",9,2199,"Include",3
"SWR2012_e2","SWR2012_e2_1",9,0,"pure","Strong",8,2335,"Include",4
"SWR2012_e2","SWR2012_e2_1",9,1,"pure","Strong",19,2040,"Include",5
"SWR2012_e2","SWR2012_e2_1",9,0,"pure","Strong",8,3250,"Include",6
"SWR2012_e2","SWR2012_e2_1",9,0,"pure","Strong",7,2252,"Include",7
"SWR2012_e2","SWR2012_e2_1",9,0,"pure","Strong",9,3294,"Include",8
"SWR2012_e2","SWR2012_e2_1",9,1,"pure","Strong",10,1240,"Include",9
"SWR2012_e2","SWR2012_e2_1",9,1,"pure","Strong",12,1484,"Include",10
"SWR2012_e2","SWR2012_e2_1",9,1,"pure","Strong",15,1737,"Include",11
"SWR2012_e2","SWR2012_e2_1",9,0,"pure","Strong",5,1536,"Include",12
"SWR2012_e2","SWR2012_e2_1",9,0,"pure","Strong",16,2052,"Include",13
"SWR2012_e2","SWR2012_e2_1",9,0,"pure","Strong",3,2241,"Include",14
"SWR2012_e2","SWR2012_e2_1",9,1,"pure","Strong",20,2704,"Include",15
"SWR2012_e2","SWR2012_e2_1",9,1,"pure","Strong",20,1524,"Include",16
"SWR2012_e2","SWR2012_e2_1",9,1,"pure","Strong",20,1533,"Include",17
"SWR2012_e2","SWR2012_e2_1",9,1,"pure","Strong",20,6555,"Exclude",18
"SWR2012_e2","SWR2012_e2_1",9,0,"pure","Strong",6,2473,"Include",19
"SWR2012_e2","SWR2012_e2_1",9,0,"pure","Strong",10,2430,"Include",20
"SWR2012_e2","SWR2012_e2_1",9,1,"pure","Strong",5,3135,"Include",21
"SWR2012_e2","SWR2012_e2_1",9,1,"pure","Strong",7,7250,"Exclude",22
"SWR2012_e2","SWR2012_e2_1",9,0,"pure","Strong",8,1220,"Include",23
"SWR2012_e2","SWR2012_e2_1",9,1,"pure","Strong",20,1482,"Include",24
"SWR2012_e2","SWR2012_e2_1",10,0,"pure","Strong",5,1367,"Include",1
"SWR2012_e2","SWR2012_e2_1",10,1,"pure","Strong",17,1293,"Include",2
"SWR2012_e2","SWR2012_e2_1",10,1,"pure","Strong",20,1545,"Include",3
"SWR2012_e2","SWR2012_e2_1",10,0,"pure","Strong",7,1556,"Include",4
"SWR2012_e2","SWR2012_e2_1",10,1,"pure","Strong",20,1271,"Include",5
"SWR2012_e2","SWR2012_e2_1",10,0,"pure","Strong",9,2451,"Include",6
"SWR2012_e2","SWR2012_e2_1",10,1,"pure","Strong",20,1114,"Include",7
"SWR2012_e2","SWR2012_e2_1",10,0,"pure","Strong",2,4684,"Include",8
"SWR2012_e2","SWR2012_e2_1",10,0,"pure","Strong",2,1473,"Include",9
"SWR2012_e2","SWR2012_e2_1",10,1,"pure","Strong",17,1556,"Include",10
"SWR2012_e2","SWR2012_e2_1",10,1,"pure","Strong",6,1348,"Include",11
"SWR2012_e2","SWR2012_e2_1",10,0,"pure","Strong",4,1537,"Include",12
"SWR2012_e2","SWR2012_e2_1",10,0,"pure","Strong",6,1788,"Include",13
"SWR2012_e2","SWR2012_e2_1",10,0,"pure","Strong",1,1683,"Include",14
"SWR2012_e2","SWR2012_e2_1",10,1,"pure","Strong",9,1999,"Include",15
"SWR2012_e2","SWR2012_e2_1",10,0,"pure","Strong",8,3157,"Include",16
"SWR2012_e2","SWR2012_e2_1",10,0,"pure","Strong",7,1557,"Include",17
"SWR2012_e2","SWR2012_e2_1",10,0,"pure","Strong",10,1316,"Include",18
"SWR2012_e2","SWR2012_e2_1",10,1,"pure","Strong",18,1830,"Include",19
"SWR2012_e2","SWR2012_e2_1",10,1,"pure","Strong",17,2147,"Include",20
"SWR2012_e2","SWR2012_e2_1",10,1,"pure","Strong",20,1621,"Include",21
"SWR2012_e2","SWR2012_e2_1",10,1,"pure","Strong",14,2471,"Include",22
"SWR2012_e2","SWR2012_e2_1",10,0,"pure","Strong",6,1328,"Include",23
"SWR2012_e2","SWR2012_e2_1",10,1,"pure","Strong",20,1422,"Include",24
"SWR2012_e2","SWR2012_e2_1",11,0,"pure","Weak",8,2760,"Include",1
"SWR2012_e2","SWR2012_e2_1",11,0,"pure","Weak",9,1325,"Include",2
"SWR2012_e2","SWR2012_e2_1",11,1,"pure","Weak",13,1559,"Include",3
"SWR2012_e2","SWR2012_e2_1",11,1,"pure","Weak",14,1903,"Include",4
"SWR2012_e2","SWR2012_e2_1",11,0,"pure","Weak",7,1630,"Include",5
"SWR2012_e2","SWR2012_e2_1",11,0,"pure","Weak",8,1914,"Include",6
"SWR2012_e2","SWR2012_e2_1",11,1,"pure","Weak",17,3009,"Include",7
"SWR2012_e2","SWR2012_e2_1",11,1,"pure","Weak",16,1419,"Include",8
"SWR2012_e2","SWR2012_e2_1",11,0,"pure","Weak",5,1364,"Include",9
"SWR2012_e2","SWR2012_e2_1",11,0,"pure","Weak",7,1261,"Include",10
"SWR2012_e2","SWR2012_e2_1",11,1,"pure","Weak",20,1450,"Include",11
"SWR2012_e2","SWR2012_e2_1",11,1,"pure","Weak",20,980,"Include",12
"SWR2012_e2","SWR2012_e2_1",11,0,"pure","Weak",13,1759,"Include",13
"SWR2012_e2","SWR2012_e2_1",11,1,"pure","Weak",8,1136,"Include",14
"SWR2012_e2","SWR2012_e2_1",11,0,"pure","Weak",10,1211,"Include",15
"SWR2012_e2","SWR2012_e2_1",11,0,"pure","Weak",9,3609,"Include",16
"SWR2012_e2","SWR2012_e2_1",11,1,"pure","Weak",11,1526,"Include",17
"SWR2012_e2","SWR2012_e2_1",11,1,"pure","Weak",13,1369,"Include",18
"SWR2012_e2","SWR2012_e2_1",11,0,"pure","Weak",8,977,"Include",19
"SWR2012_e2","SWR2012_e2_1",11,1,"pure","Weak",19,1851,"Include",20
"SWR2012_e2","SWR2012_e2_1",11,0,"pure","Weak",8,957,"Include",21
"SWR2012_e2","SWR2012_e2_1",11,1,"pure","Weak",20,956,"Include",22
"SWR2012_e2","SWR2012_e2_1",11,0,"pure","Weak",9,1001,"Include",23
"SWR2012_e2","SWR2012_e2_1",11,1,"pure","Weak",10,1043,"Include",24
"SWR2012_e2","SWR2012_e2_1",12,0,"pure","Weak",9,1726,"Include",1
"SWR2012_e2","SWR2012_e2_1",12,0,"pure","Weak",12,1788,"Include",2
"SWR2012_e2","SWR2012_e2_1",12,1,"pure","Weak",13,2199,"Include",3
"SWR2012_e2","SWR2012_e2_1",12,1,"pure","Weak",10,1893,"Include",4
"SWR2012_e2","SWR2012_e2_1",12,0,"pure","Weak",8,1032,"Include",5
"SWR2012_e2","SWR2012_e2_1",12,1,"pure","Weak",20,2843,"Include",6
"SWR2012_e2","SWR2012_e2_1",12,0,"pure","Weak",9,1196,"Include",7
"SWR2012_e2","SWR2012_e2_1",12,0,"pure","Weak",10,3725,"Include",8
"SWR2012_e2","SWR2012_e2_1",12,1,"pure","Weak",11,1430,"Include",9
"SWR2012_e2","SWR2012_e2_1",12,1,"pure","Weak",16,2800,"Include",10
"SWR2012_e2","SWR2012_e2_1",12,1,"pure","Weak",8,1714,"Include",11
"SWR2012_e2","SWR2012_e2_1",12,1,"pure","Weak",14,2366,"Include",12
"SWR2012_e2","SWR2012_e2_1",12,1,"pure","Weak",14,3053,"Include",13
"SWR2012_e2","SWR2012_e2_1",12,0,"pure","Weak",9,1296,"Include",14
"SWR2012_e2","SWR2012_e2_1",12,0,"pure","Weak",7,1262,"Include",15
"SWR2012_e2","SWR2012_e2_1",12,1,"pure","Weak",8,1084,"Include",16
"SWR2012_e2","SWR2012_e2_1",12,0,"pure","Weak",8,1136,"Include",17
"SWR2012_e2","SWR2012_e2_1",12,1,"pure","Weak",15,2821,"Include",18
"SWR2012_e2","SWR2012_e2_1",12,0,"pure","Weak",9,1052,"Include",19
"SWR2012_e2","SWR2012_e2_1",12,0,"pure","Weak",10,1915,"Include",20
"SWR2012_e2","SWR2012_e2_1",12,0,"pure","Weak",10,799,"Include",21
"SWR2012_e2","SWR2012_e2_1",12,1,"pure","Weak",10,1989,"Include",22
"SWR2012_e2","SWR2012_e2_1",12,0,"pure","Weak",12,4232,"Include",23
"SWR2012_e2","SWR2012_e2_1",12,1,"pure","Weak",10,1504,"Include",24
"SWR2012_e2","SWR2012_e2_3",1,0,"pure","Weak",5,3540,"Exclude",1
"SWR2012_e2","SWR2012_e2_3",1,0,"pure","Weak",11,3087,"Exclude",2
"SWR2012_e2","SWR2012_e2_3",1,1,"pure","Weak",11,930,"Exclude",3
"SWR2012_e2","SWR2012_e2_3",1,0,"pure","Weak",8,4710,"Exclude",4
"SWR2012_e2","SWR2012_e2_3",1,1,"pure","Weak",18,2289,"Exclude",5
"SWR2012_e2","SWR2012_e2_3",1,0,"pure","Weak",10,2268,"Exclude",6
"SWR2012_e2","SWR2012_e2_3",1,1,"pure","Weak",20,1403,"Exclude",7
"SWR2012_e2","SWR2012_e2_3",1,0,"pure","Weak",12,3297,"Exclude",8
"SWR2012_e2","SWR2012_e2_3",1,1,"pure","Weak",11,3068,"Exclude",9
"SWR2012_e2","SWR2012_e2_3",1,1,"pure","Weak",3,1951,"Exclude",10
"SWR2012_e2","SWR2012_e2_3",1,1,"pure","Weak",18,1682,"Exclude",11
"SWR2012_e2","SWR2012_e2_3",1,0,"pure","Weak",16,1919,"Exclude",12
"SWR2012_e2","SWR2012_e2_3",1,1,"pure","Weak",15,1674,"Exclude",13
"SWR2012_e2","SWR2012_e2_3",1,1,"pure","Weak",2,2573,"Exclude",14
"SWR2012_e2","SWR2012_e2_3",1,0,"pure","Weak",3,1485,"Exclude",15
"SWR2012_e2","SWR2012_e2_3",1,0,"pure","Weak",1,2073,"Exclude",16
"SWR2012_e2","SWR2012_e2_3",1,0,"pure","Weak",4,2509,"Exclude",17
"SWR2012_e2","SWR2012_e2_3",1,0,"pure","Weak",4,2334,"Exclude",18
"SWR2012_e2","SWR2012_e2_3",1,1,"pure","Weak",16,3957,"Exclude",19
"SWR2012_e2","SWR2012_e2_3",1,0,"pure","Weak",5,1967,"Exclude",20
"SWR2012_e2","SWR2012_e2_3",1,1,"pure","Weak",6,1845,"Exclude",21
"SWR2012_e2","SWR2012_e2_3",1,1,"pure","Weak",2,1927,"Exclude",22
"SWR2012_e2","SWR2012_e2_3",1,0,"pure","Weak",1,1340,"Exclude",23
"SWR2012_e2","SWR2012_e2_3",1,1,"pure","Weak",3,1231,"Exclude",24
"SWR2012_e2","SWR2012_e2_3",2,1,"pure","Strong",4,2588,"Exclude",1
"SWR2012_e2","SWR2012_e2_3",2,1,"pure","Strong",4,1065,"Exclude",2
"SWR2012_e2","SWR2012_e2_3",2,1,"pure","Strong",3,1137,"Exclude",3
"SWR2012_e2","SWR2012_e2_3",2,1,"pure","Strong",20,1446,"Exclude",4
"SWR2012_e2","SWR2012_e2_3",2,0,"pure","Strong",4,1235,"Exclude",5
"SWR2012_e2","SWR2012_e2_3",2,1,"pure","Strong",20,793,"Exclude",6
"SWR2012_e2","SWR2012_e2_3",2,1,"pure","Strong",4,877,"Exclude",7
"SWR2012_e2","SWR2012_e2_3",2,0,"pure","Strong",3,1275,"Exclude",8
"SWR2012_e2","SWR2012_e2_3",2,1,"pure","Strong",20,1028,"Exclude",9
"SWR2012_e2","SWR2012_e2_3",2,0,"pure","Strong",2,3026,"Exclude",10
"SWR2012_e2","SWR2012_e2_3",2,0,"pure","Strong",1,1233,"Exclude",11
"SWR2012_e2","SWR2012_e2_3",2,0,"pure","Strong",10,2143,"Exclude",12
"SWR2012_e2","SWR2012_e2_3",2,1,"pure","Strong",15,2483,"Exclude",13
"SWR2012_e2","SWR2012_e2_3",2,0,"pure","Strong",3,1709,"Exclude",14
"SWR2012_e2","SWR2012_e2_3",2,1,"pure","Strong",20,1288,"Exclude",15
"SWR2012_e2","SWR2012_e2_3",2,0,"pure","Strong",6,3834,"Exclude",16
"SWR2012_e2","SWR2012_e2_3",2,0,"pure","Strong",2,2054,"Exclude",17
"SWR2012_e2","SWR2012_e2_3",2,0,"pure","Strong",2,717,"Exclude",18
"SWR2012_e2","SWR2012_e2_3",2,1,"pure","Strong",18,1638,"Exclude",19
"SWR2012_e2","SWR2012_e2_3",2,1,"pure","Strong",8,2296,"Exclude",20
"SWR2012_e2","SWR2012_e2_3",2,0,"pure","Strong",4,1851,"Exclude",21
"SWR2012_e2","SWR2012_e2_3",2,0,"pure","Strong",3,3571,"Exclude",22
"SWR2012_e2","SWR2012_e2_3",2,1,"pure","Strong",4,1277,"Exclude",23
"SWR2012_e2","SWR2012_e2_3",2,0,"pure","Strong",5,977,"Exclude",24
"SWR2012_e2","SWR2012_e2_3",3,0,"pure","Weak",1,1520,"Include",1
"SWR2012_e2","SWR2012_e2_3",3,1,"pure","Weak",16,2995,"Include",2
"SWR2012_e2","SWR2012_e2_3",3,0,"pure","Weak",2,1304,"Include",3
"SWR2012_e2","SWR2012_e2_3",3,1,"pure","Weak",10,1882,"Include",4
"SWR2012_e2","SWR2012_e2_3",3,1,"pure","Weak",4,1900,"Include",5
"SWR2012_e2","SWR2012_e2_3",3,1,"pure","Weak",19,2001,"Include",6
"SWR2012_e2","SWR2012_e2_3",3,0,"pure","Weak",2,1086,"Include",7
"SWR2012_e2","SWR2012_e2_3",3,1,"pure","Weak",10,2768,"Include",8
"SWR2012_e2","SWR2012_e2_3",3,0,"pure","Weak",2,1187,"Include",9
"SWR2012_e2","SWR2012_e2_3",3,1,"pure","Weak",13,3076,"Include",10
"SWR2012_e2","SWR2012_e2_3",3,1,"pure","Weak",16,1770,"Include",11
"SWR2012_e2","SWR2012_e2_3",3,0,"pure","Weak",2,1196,"Include",12
"SWR2012_e2","SWR2012_e2_3",3,0,"pure","Weak",3,2082,"Include",13
"SWR2012_e2","SWR2012_e2_3",3,0,"pure","Weak",2,804,"Include",14
"SWR2012_e2","SWR2012_e2_3",3,1,"pure","Weak",8,1908,"Include",15
"SWR2012_e2","SWR2012_e2_3",3,0,"pure","Weak",2,2320,"Include",16
"SWR2012_e2","SWR2012_e2_3",3,1,"pure","Weak",20,1943,"Include",17
"SWR2012_e2","SWR2012_e2_3",3,0,"pure","Weak",2,2301,"Include",18
"SWR2012_e2","SWR2012_e2_3",3,0,"pure","Weak",3,1797,"Include",19
"SWR2012_e2","SWR2012_e2_3",3,1,"pure","Weak",9,2932,"Include",20
"SWR2012_e2","SWR2012_e2_3",3,1,"pure","Weak",10,1176,"Include",21
"SWR2012_e2","SWR2012_e2_3",3,0,"pure","Weak",3,1551,"Include",22
"SWR2012_e2","SWR2012_e2_3",3,1,"pure","Weak",2,2134,"Include",23
"SWR2012_e2","SWR2012_e2_3",3,0,"pure","Weak",2,1607,"Include",24
"SWR2012_e2","SWR2012_e2_3",4,1,"pure","Strong",9,4299,"Include",1
"SWR2012_e2","SWR2012_e2_3",4,1,"pure","Strong",16,1373,"Include",2
"SWR2012_e2","SWR2012_e2_3",4,1,"pure","Strong",18,1203,"Include",3
"SWR2012_e2","SWR2012_e2_3",4,0,"pure","Strong",3,1304,"Include",4
"SWR2012_e2","SWR2012_e2_3",4,0,"pure","Strong",3,1645,"Include",5
"SWR2012_e2","SWR2012_e2_3",4,1,"pure","Strong",14,2982,"Include",6
"SWR2012_e2","SWR2012_e2_3",4,0,"pure","Strong",4,1171,"Include",7
"SWR2012_e2","SWR2012_e2_3",4,1,"pure","Strong",19,1472,"Include",8
"SWR2012_e2","SWR2012_e2_3",4,1,"pure","Strong",19,778,"Include",9
"SWR2012_e2","SWR2012_e2_3",4,1,"pure","Strong",2,1578,"Include",10
"SWR2012_e2","SWR2012_e2_3",4,0,"pure","Strong",6,1530,"Include",11
"SWR2012_e2","SWR2012_e2_3",4,0,"pure","Strong",2,1307,"Include",12
"SWR2012_e2","SWR2012_e2_3",4,1,"pure","Strong",12,1094,"Include",13
"SWR2012_e2","SWR2012_e2_3",4,0,"pure","Strong",2,1139,"Include",14
"SWR2012_e2","SWR2012_e2_3",4,1,"pure","Strong",12,1118,"Include",15
"SWR2012_e2","SWR2012_e2_3",4,0,"pure","Strong",3,1105,"Include",16
"SWR2012_e2","SWR2012_e2_3",4,1,"pure","Strong",15,1658,"Include",17
"SWR2012_e2","SWR2012_e2_3",4,0,"pure","Strong",3,3352,"Include",18
"SWR2012_e2","SWR2012_e2_3",4,1,"pure","Strong",2,939,"Include",19
"SWR2012_e2","SWR2012_e2_3",4,0,"pure","Strong",2,1291,"Include",20
"SWR2012_e2","SWR2012_e2_3",4,0,"pure","Strong",11,1812,"Include",21
"SWR2012_e2","SWR2012_e2_3",4,1,"pure","Strong",2,943,"Include",22
"SWR2012_e2","SWR2012_e2_3",4,0,"pure","Strong",2,675,"Include",23
"SWR2012_e2","SWR2012_e2_3",4,0,"pure","Strong",3,866,"Include",24
"SWR2012_e2","SWR2012_e2_3",5,0,"pure","Weak",2,4904,"Include",1
"SWR2012_e2","SWR2012_e2_3",5,1,"pure","Weak",3,1172,"Include",2
"SWR2012_e2","SWR2012_e2_3",5,0,"pure","Weak",5,1291,"Include",3
"SWR2012_e2","SWR2012_e2_3",5,1,"pure","Weak",15,1552,"Include",4
"SWR2012_e2","SWR2012_e2_3",5,0,"pure","Weak",17,1456,"Include",5
"SWR2012_e2","SWR2012_e2_3",5,1,"pure","Weak",2,1083,"Include",6
"SWR2012_e2","SWR2012_e2_3",5,1,"pure","Weak",5,1118,"Include",7
"SWR2012_e2","SWR2012_e2_3",5,1,"pure","Weak",15,1339,"Include",8
"SWR2012_e2","SWR2012_e2_3",5,1,"pure","Weak",4,743,"Include",9
"SWR2012_e2","SWR2012_e2_3",5,0,"pure","Weak",2,1299,"Include",10
"SWR2012_e2","SWR2012_e2_3",5,0,"pure","Weak",1,1323,"Include",11
"SWR2012_e2","SWR2012_e2_3",5,0,"pure","Weak",1,1031,"Include",12
"SWR2012_e2","SWR2012_e2_3",5,1,"pure","Weak",13,922,"Include",13
"SWR2012_e2","SWR2012_e2_3",5,0,"pure","Weak",4,1004,"Include",14
"SWR2012_e2","SWR2012_e2_3",5,0,"pure","Weak",3,2006,"Include",15
"SWR2012_e2","SWR2012_e2_3",5,0,"pure","Weak",2,1052,"Include",16
"SWR2012_e2","SWR2012_e2_3",5,0,"pure","Weak",2,1730,"Include",17
"SWR2012_e2","SWR2012_e2_3",5,0,"pure","Weak",5,1220,"Include",18
"SWR2012_e2","SWR2012_e2_3",5,0,"pure","Weak",12,1642,"Include",19
"SWR2012_e2","SWR2012_e2_3",5,1,"pure","Weak",14,1239,"Include",20
"SWR2012_e2","SWR2012_e2_3",5,1,"pure","Weak",17,1507,"Include",21
"SWR2012_e2","SWR2012_e2_3",5,1,"pure","Weak",2,1498,"Include",22
"SWR2012_e2","SWR2012_e2_3",5,1,"pure","Weak",8,1704,"Include",23
"SWR2012_e2","SWR2012_e2_3",5,1,"pure","Weak",2,1025,"Include",24
"SWR2012_e2","SWR2012_e2_3",6,1,"pure","Weak",14,3707,"Include",1
"SWR2012_e2","SWR2012_e2_3",6,0,"pure","Weak",2,1177,"Include",2
"SWR2012_e2","SWR2012_e2_3",6,1,"pure","Weak",17,1735,"Include",3
"SWR2012_e2","SWR2012_e2_3",6,1,"pure","Weak",8,1889,"Include",4
"SWR2012_e2","SWR2012_e2_3",6,0,"pure","Weak",2,1418,"Include",5
"SWR2012_e2","SWR2012_e2_3",6,0,"pure","Weak",3,1079,"Include",6
"SWR2012_e2","SWR2012_e2_3",6,1,"pure","Weak",10,1206,"Include",7
"SWR2012_e2","SWR2012_e2_3",6,0,"pure","Weak",14,1049,"Include",8
"SWR2012_e2","SWR2012_e2_3",6,1,"pure","Weak",16,2206,"Include",9
"SWR2012_e2","SWR2012_e2_3",6,0,"pure","Weak",3,1063,"Include",10
"SWR2012_e2","SWR2012_e2_3",6,1,"pure","Weak",2,1245,"Include",11
"SWR2012_e2","SWR2012_e2_3",6,0,"pure","Weak",7,1451,"Include",12
"SWR2012_e2","SWR2012_e2_3",6,1,"pure","Weak",10,1533,"Include",13
"SWR2012_e2","SWR2012_e2_3",6,0,"pure","Weak",12,926,"Include",14
"SWR2012_e2","SWR2012_e2_3",6,0,"pure","Weak",2,969,"Include",15
"SWR2012_e2","SWR2012_e2_3",6,1,"pure","Weak",19,2685,"Include",16
"SWR2012_e2","SWR2012_e2_3",6,0,"pure","Weak",2,1435,"Include",17
"SWR2012_e2","SWR2012_e2_3",6,0,"pure","Weak",4,1693,"Include",18
"SWR2012_e2","SWR2012_e2_3",6,0,"pure","Weak",2,1174,"Include",19
"SWR2012_e2","SWR2012_e2_3",6,1,"pure","Weak",7,1353,"Include",20
"SWR2012_e2","SWR2012_e2_3",6,1,"pure","Weak",15,2176,"Include",21
"SWR2012_e2","SWR2012_e2_3",6,1,"pure","Weak",2,1182,"Include",22
"SWR2012_e2","SWR2012_e2_3",6,0,"pure","Weak",7,1323,"Include",23
"SWR2012_e2","SWR2012_e2_3",6,1,"pure","Weak",2,1020,"Include",24
"SWR2012_e2","SWR2012_e2_3",7,0,"pure","Strong",2,1316,"Include",1
"SWR2012_e2","SWR2012_e2_3",7,1,"pure","Strong",9,2251,"Include",2
"SWR2012_e2","SWR2012_e2_3",7,0,"pure","Strong",2,1426,"Include",3
"SWR2012_e2","SWR2012_e2_3",7,0,"pure","Strong",1,1802,"Include",4
"SWR2012_e2","SWR2012_e2_3",7,0,"pure","Strong",1,1108,"Include",5
"SWR2012_e2","SWR2012_e2_3",7,0,"pure","Strong",5,1993,"Include",6
"SWR2012_e2","SWR2012_e2_3",7,0,"pure","Strong",8,1331,"Include",7
"SWR2012_e2","SWR2012_e2_3",7,1,"pure","Strong",18,1280,"Include",8
"SWR2012_e2","SWR2012_e2_3",7,0,"pure","Strong",2,977,"Include",9
"SWR2012_e2","SWR2012_e2_3",7,1,"pure","Strong",20,1152,"Include",10
"SWR2012_e2","SWR2012_e2_3",7,0,"pure","Strong",4,1086,"Include",11
"SWR2012_e2","SWR2012_e2_3",7,0,"pure","Strong",3,1278,"Include",12
"SWR2012_e2","SWR2012_e2_3",7,1,"pure","Strong",14,1663,"Include",13
"SWR2012_e2","SWR2012_e2_3",7,0,"pure","Strong",16,1208,"Include",14
"SWR2012_e2","SWR2012_e2_3",7,0,"pure","Strong",1,1304,"Include",15
"SWR2012_e2","SWR2012_e2_3",7,1,"pure","Strong",18,1407,"Include",16
"SWR2012_e2","SWR2012_e2_3",7,1,"pure","Strong",20,993,"Include",17
"SWR2012_e2","SWR2012_e2_3",7,1,"pure","Strong",18,1539,"Include",18
"SWR2012_e2","SWR2012_e2_3",7,1,"pure","Strong",18,1006,"Include",19
"SWR2012_e2","SWR2012_e2_3",7,1,"pure","Strong",17,1336,"Include",20
"SWR2012_e2","SWR2012_e2_3",7,0,"pure","Strong",7,1419,"Include",21
"SWR2012_e2","SWR2012_e2_3",7,1,"pure","Strong",2,940,"Include",22
"SWR2012_e2","SWR2012_e2_3",7,1,"pure","Strong",15,1514,"Include",23
"SWR2012_e2","SWR2012_e2_3",7,1,"pure","Strong",16,1150,"Include",24
"SWR2012_e2","SWR2012_e2_3",8,1,"pure","Weak",5,2100,"Include",1
"SWR2012_e2","SWR2012_e2_3",8,1,"pure","Weak",13,1394,"Include",2
"SWR2012_e2","SWR2012_e2_3",8,0,"pure","Weak",2,1178,"Include",3
"SWR2012_e2","SWR2012_e2_3",8,1,"pure","Weak",12,1078,"Include",4
"SWR2012_e2","SWR2012_e2_3",8,0,"pure","Weak",14,2836,"Include",5
"SWR2012_e2","SWR2012_e2_3",8,1,"pure","Weak",8,1280,"Include",6
"SWR2012_e2","SWR2012_e2_3",8,0,"pure","Weak",3,1285,"Include",7
"SWR2012_e2","SWR2012_e2_3",8,1,"pure","Weak",2,993,"Include",8
"SWR2012_e2","SWR2012_e2_3",8,0,"pure","Weak",5,1147,"Include",9
"SWR2012_e2","SWR2012_e2_3",8,0,"pure","Weak",7,1192,"Include",10
"SWR2012_e2","SWR2012_e2_3",8,1,"pure","Weak",13,536,"Include",11
"SWR2012_e2","SWR2012_e2_3",8,0,"pure","Weak",3,1043,"Include",12
"SWR2012_e2","SWR2012_e2_3",8,1,"pure","Weak",14,1371,"Include",13
"SWR2012_e2","SWR2012_e2_3",8,1,"pure","Weak",17,1243,"Include",14
"SWR2012_e2","SWR2012_e2_3",8,0,"pure","Weak",8,1323,"Include",15
"SWR2012_e2","SWR2012_e2_3",8,1,"pure","Weak",18,1618,"Include",16
"SWR2012_e2","SWR2012_e2_3",8,0,"pure","Weak",3,1346,"Include",17
"SWR2012_e2","SWR2012_e2_3",8,0,"pure","Weak",15,1844,"Include",18
"SWR2012_e2","SWR2012_e2_3",8,1,"pure","Weak",4,950,"Include",19
"SWR2012_e2","SWR2012_e2_3",8,0,"pure","Weak",2,1264,"Include",20
"SWR2012_e2","SWR2012_e2_3",8,1,"pure","Weak",18,1799,"Include",21
"SWR2012_e2","SWR2012_e2_3",8,1,"pure","Weak",19,1179,"Include",22
"SWR2012_e2","SWR2012_e2_3",8,0,"pure","Weak",10,2315,"Include",23
"SWR2012_e2","SWR2012_e2_3",8,0,"pure","Weak",2,1166,"Include",24
"SWR2012_e2","SWR2012_e2_3",9,0,"pure","Strong",2,1276,"Include",1
"SWR2012_e2","SWR2012_e2_3",9,0,"pure","Strong",8,1685,"Include",2
"SWR2012_e2","SWR2012_e2_3",9,1,"pure","Strong",20,1604,"Include",3
"SWR2012_e2","SWR2012_e2_3",9,0,"pure","Strong",18,1192,"Include",4
"SWR2012_e2","SWR2012_e2_3",9,0,"pure","Strong",5,1700,"Include",5
"SWR2012_e2","SWR2012_e2_3",9,1,"pure","Strong",16,2591,"Include",6
"SWR2012_e2","SWR2012_e2_3",9,1,"pure","Strong",18,1169,"Include",7
"SWR2012_e2","SWR2012_e2_3",9,1,"pure","Strong",14,1402,"Include",8
"SWR2012_e2","SWR2012_e2_3",9,1,"pure","Strong",13,1017,"Include",9
"SWR2012_e2","SWR2012_e2_3",9,1,"pure","Strong",16,1998,"Include",10
"SWR2012_e2","SWR2012_e2_3",9,1,"pure","Strong",12,1280,"Include",11
"SWR2012_e2","SWR2012_e2_3",9,0,"pure","Strong",4,1363,"Include",12
"SWR2012_e2","SWR2012_e2_3",9,1,"pure","Strong",13,1291,"Include",13
"SWR2012_e2","SWR2012_e2_3",9,0,"pure","Strong",2,1190,"Include",14
"SWR2012_e2","SWR2012_e2_3",9,1,"pure","Strong",13,1246,"Include",15
"SWR2012_e2","SWR2012_e2_3",9,0,"pure","Strong",16,1456,"Include",16
"SWR2012_e2","SWR2012_e2_3",9,0,"pure","Strong",4,974,"Include",17
"SWR2012_e2","SWR2012_e2_3",9,0,"pure","Strong",3,1017,"Include",18
"SWR2012_e2","SWR2012_e2_3",9,1,"pure","Strong",13,849,"Include",19
"SWR2012_e2","SWR2012_e2_3",9,0,"pure","Strong",5,1091,"Include",20
"SWR2012_e2","SWR2012_e2_3",9,0,"pure","Strong",12,959,"Include",21
"SWR2012_e2","SWR2012_e2_3",9,1,"pure","Strong",15,1594,"Include",22
"SWR2012_e2","SWR2012_e2_3",9,1,"pure","Strong",8,1807,"Include",23
"SWR2012_e2","SWR2012_e2_3",9,0,"pure","Strong",3,1205,"Include",24
"SWR2012_e2","SWR2012_e2_3",10,1,"pure","Weak",13,1704,"Include",1
"SWR2012_e2","SWR2012_e2_3",10,1,"pure","Weak",14,857,"Include",2
"SWR2012_e2","SWR2012_e2_3",10,0,"pure","Weak",15,1673,"Include",3
"SWR2012_e2","SWR2012_e2_3",10,0,"pure","Weak",18,1851,"Include",4
"SWR2012_e2","SWR2012_e2_3",10,1,"pure","Weak",3,1030,"Include",5
"SWR2012_e2","SWR2012_e2_3",10,1,"pure","Weak",16,923,"Include",6
"SWR2012_e2","SWR2012_e2_3",10,0,"pure","Weak",3,843,"Include",7
"SWR2012_e2","SWR2012_e2_3",10,1,"pure","Weak",2,998,"Include",8
"SWR2012_e2","SWR2012_e2_3",10,1,"pure","Weak",2,871,"Include",9
"SWR2012_e2","SWR2012_e2_3",10,0,"pure","Weak",1,1636,"Include",10
"SWR2012_e2","SWR2012_e2_3",10,0,"pure","Weak",1,714,"Include",11
"SWR2012_e2","SWR2012_e2_3",10,1,"pure","Weak",12,1073,"Include",12
"SWR2012_e2","SWR2012_e2_3",10,0,"pure","Weak",3,1948,"Include",13
"SWR2012_e2","SWR2012_e2_3",10,0,"pure","Weak",7,2152,"Include",14
"SWR2012_e2","SWR2012_e2_3",10,0,"pure","Weak",2,1379,"Include",15
"SWR2012_e2","SWR2012_e2_3",10,1,"pure","Weak",4,1139,"Include",16
"SWR2012_e2","SWR2012_e2_3",10,1,"pure","Weak",8,1540,"Include",17
"SWR2012_e2","SWR2012_e2_3",10,1,"pure","Weak",5,1924,"Include",18
"SWR2012_e2","SWR2012_e2_3",10,0,"pure","Weak",2,1224,"Include",19
"SWR2012_e2","SWR2012_e2_3",10,1,"pure","Weak",6,1145,"Include",20
"SWR2012_e2","SWR2012_e2_3",10,0,"pure","Weak",12,1408,"Include",21
"SWR2012_e2","SWR2012_e2_3",10,0,"pure","Weak",3,959,"Include",22
"SWR2012_e2","SWR2012_e2_3",10,1,"pure","Weak",5,1019,"Include",23
"SWR2012_e2","SWR2012_e2_3",10,0,"pure","Weak",2,995,"Include",24
"SWR2012_e2","SWR2012_e2_3",11,1,"pure","Strong",13,1406,"Include",1
"SWR2012_e2","SWR2012_e2_3",11,0,"pure","Strong",16,987,"Include",2
"SWR2012_e2","SWR2012_e2_3",11,0,"pure","Strong",14,1099,"Include",3
"SWR2012_e2","SWR2012_e2_3",11,0,"pure","Strong",3,881,"Include",4
"SWR2012_e2","SWR2012_e2_3",11,1,"pure","Strong",14,1431,"Include",5
"SWR2012_e2","SWR2012_e2_3",11,1,"pure","Strong",16,1599,"Include",6
"SWR2012_e2","SWR2012_e2_3",11,1,"pure","Strong",6,1256,"Include",7
"SWR2012_e2","SWR2012_e2_3",11,0,"pure","Strong",13,799,"Include",8
"SWR2012_e2","SWR2012_e2_3",11,0,"pure","Strong",7,976,"Include",9
"SWR2012_e2","SWR2012_e2_3",11,1,"pure","Strong",12,966,"Include",10
"SWR2012_e2","SWR2012_e2_3",11,0,"pure","Strong",7,977,"Include",11
"SWR2012_e2","SWR2012_e2_3",11,1,"pure","Strong",17,1474,"Include",12
"SWR2012_e2","SWR2012_e2_3",11,1,"pure","Strong",18,1020,"Include",13
"SWR2012_e2","SWR2012_e2_3",11,0,"pure","Strong",12,1506,"Include",14
"SWR2012_e2","SWR2012_e2_3",11,1,"pure","Strong",9,2586,"Include",15
"SWR2012_e2","SWR2012_e2_3",11,0,"pure","Strong",4,1413,"Include",16
"SWR2012_e2","SWR2012_e2_3",11,1,"pure","Strong",13,514,"Include",17
"SWR2012_e2","SWR2012_e2_3",11,0,"pure","Strong",17,3293,"Include",18
"SWR2012_e2","SWR2012_e2_3",11,0,"pure","Strong",2,1212,"Include",19
"SWR2012_e2","SWR2012_e2_3",11,0,"pure","Strong",8,1419,"Include",20
"SWR2012_e2","SWR2012_e2_3",11,1,"pure","Strong",14,1128,"Include",21
"SWR2012_e2","SWR2012_e2_3",11,1,"pure","Strong",3,1190,"Include",22
"SWR2012_e2","SWR2012_e2_3",11,1,"pure","Strong",18,1221,"Include",23
"SWR2012_e2","SWR2012_e2_3",11,0,"pure","Strong",17,1373,"Include",24
"SWR2012_e2","SWR2012_e2_3",12,1,"pure","Strong",10,1728,"Include",1
"SWR2012_e2","SWR2012_e2_3",12,1,"pure","Strong",12,1102,"Include",2
"SWR2012_e2","SWR2012_e2_3",12,1,"pure","Strong",16,1403,"Include",3
"SWR2012_e2","SWR2012_e2_3",12,1,"pure","Strong",19,1373,"Include",4
"SWR2012_e2","SWR2012_e2_3",12,0,"pure","Strong",2,1296,"Include",5
"SWR2012_e2","SWR2012_e2_3",12,0,"pure","Strong",2,581,"Include",6
"SWR2012_e2","SWR2012_e2_3",12,0,"pure","Strong",8,1149,"Include",7
"SWR2012_e2","SWR2012_e2_3",12,0,"pure","Strong",13,1732,"Include",8
"SWR2012_e2","SWR2012_e2_3",12,1,"pure","Strong",15,1514,"Include",9
"SWR2012_e2","SWR2012_e2_3",12,1,"pure","Strong",19,2214,"Include",10
"SWR2012_e2","SWR2012_e2_3",12,0,"pure","Strong",1,974,"Include",11
"SWR2012_e2","SWR2012_e2_3",12,0,"pure","Strong",2,1112,"Include",12
"SWR2012_e2","SWR2012_e2_3",12,0,"pure","Strong",10,1850,"Include",13
"SWR2012_e2","SWR2012_e2_3",12,0,"pure","Strong",12,1131,"Include",14
"SWR2012_e2","SWR2012_e2_3",12,1,"pure","Strong",4,1054,"Include",15
"SWR2012_e2","SWR2012_e2_3",12,1,"pure","Strong",13,1014,"Include",16
"SWR2012_e2","SWR2012_e2_3",12,1,"pure","Strong",3,934,"Include",17
"SWR2012_e2","SWR2012_e2_3",12,1,"pure","Strong",18,1219,"Include",18
"SWR2012_e2","SWR2012_e2_3",12,0,"pure","Strong",4,1110,"Include",19
"SWR2012_e2","SWR2012_e2_3",12,0,"pure","Strong",9,1136,"Include",20
"SWR2012_e2","SWR2012_e2_3",12,1,"pure","Strong",13,2357,"Include",21
"SWR2012_e2","SWR2012_e2_3",12,0,"pure","Strong",3,1359,"Include",22
"SWR2012_e2","SWR2012_e2_3",12,1,"pure","Strong",12,1267,"Include",23
"SWR2012_e2","SWR2012_e2_3",12,0,"pure","Strong",5,1783,"Include",24
"SWR2012_e2","SWR2012_e2_6",1,0,"pure","Weak",14,8811,"Exclude",1
"SWR2012_e2","SWR2012_e2_6",1,1,"pure","Weak",16,2785,"Exclude",2
"SWR2012_e2","SWR2012_e2_6",1,1,"pure","Weak",20,2142,"Exclude",3
"SWR2012_e2","SWR2012_e2_6",1,1,"pure","Weak",12,2977,"Exclude",4
"SWR2012_e2","SWR2012_e2_6",1,0,"pure","Weak",1,1457,"Exclude",5
"SWR2012_e2","SWR2012_e2_6",1,0,"pure","Weak",3,3145,"Exclude",6
"SWR2012_e2","SWR2012_e2_6",1,0,"pure","Weak",2,2525,"Exclude",7
"SWR2012_e2","SWR2012_e2_6",1,0,"pure","Weak",3,3161,"Exclude",8
"SWR2012_e2","SWR2012_e2_6",1,0,"pure","Weak",6,2663,"Exclude",9
"SWR2012_e2","SWR2012_e2_6",1,1,"pure","Weak",20,1740,"Exclude",10
"SWR2012_e2","SWR2012_e2_6",1,1,"pure","Weak",20,1179,"Exclude",11
"SWR2012_e2","SWR2012_e2_6",1,1,"pure","Weak",4,3487,"Exclude",12
"SWR2012_e2","SWR2012_e2_6",1,0,"pure","Weak",3,5453,"Exclude",13
"SWR2012_e2","SWR2012_e2_6",1,0,"pure","Weak",5,2293,"Exclude",14
"SWR2012_e2","SWR2012_e2_6",1,0,"pure","Weak",4,2734,"Exclude",15
"SWR2012_e2","SWR2012_e2_6",1,1,"pure","Weak",16,1977,"Exclude",16
"SWR2012_e2","SWR2012_e2_6",1,1,"pure","Weak",20,2315,"Exclude",17
"SWR2012_e2","SWR2012_e2_6",1,1,"pure","Weak",4,1927,"Exclude",18
"SWR2012_e2","SWR2012_e2_6",1,1,"pure","Weak",11,4346,"Exclude",19
"SWR2012_e2","SWR2012_e2_6",1,1,"pure","Weak",7,2413,"Exclude",20
"SWR2012_e2","SWR2012_e2_6",1,0,"pure","Weak",17,3352,"Exclude",21
"SWR2012_e2","SWR2012_e2_6",1,1,"pure","Weak",6,2810,"Exclude",22
"SWR2012_e2","SWR2012_e2_6",1,0,"pure","Weak",6,1495,"Exclude",23
"SWR2012_e2","SWR2012_e2_6",1,0,"pure","Weak",9,3822,"Exclude",24
"SWR2012_e2","SWR2012_e2_6",2,1,"pure","Strong",20,2584,"Exclude",1
"SWR2012_e2","SWR2012_e2_6",2,1,"pure","Strong",2,2517,"Exclude",2
"SWR2012_e2","SWR2012_e2_6",2,1,"pure","Strong",20,1119,"Exclude",3
"SWR2012_e2","SWR2012_e2_6",2,1,"pure","Strong",20,910,"Exclude",4
"SWR2012_e2","SWR2012_e2_6",2,1,"pure","Strong",20,905,"Exclude",5
"SWR2012_e2","SWR2012_e2_6",2,0,"pure","Strong",2,2585,"Exclude",6
"SWR2012_e2","SWR2012_e2_6",2,1,"pure","Strong",20,687,"Exclude",7
"SWR2012_e2","SWR2012_e2_6",2,0,"pure","Strong",2,2944,"Exclude",8
"SWR2012_e2","SWR2012_e2_6",2,0,"pure","Strong",3,2925,"Exclude",9
"SWR2012_e2","SWR2012_e2_6",2,0,"pure","Strong",1,2530,"Exclude",10
"SWR2012_e2","SWR2012_e2_6",2,0,"pure","Strong",1,2094,"Exclude",11
"SWR2012_e2","SWR2012_e2_6",2,0,"pure","Strong",2,2557,"Exclude",12
"SWR2012_e2","SWR2012_e2_6",2,0,"pure","Strong",2,1802,"Exclude",13
"SWR2012_e2","SWR2012_e2_6",2,0,"pure","Strong",2,1371,"Exclude",14
"SWR2012_e2","SWR2012_e2_6",2,0,"pure","Strong",16,2659,"Exclude",15
"SWR2012_e2","SWR2012_e2_6",2,1,"pure","Strong",16,3056,"Exclude",16
"SWR2012_e2","SWR2012_e2_6",2,0,"pure","Strong",3,2519,"Exclude",17
"SWR2012_e2","SWR2012_e2_6",2,1,"pure","Strong",20,971,"Exclude",18
"SWR2012_e2","SWR2012_e2_6",2,1,"pure","Strong",20,1945,"Exclude",19
"SWR2012_e2","SWR2012_e2_6",2,0,"pure","Strong",3,2288,"Exclude",20
"SWR2012_e2","SWR2012_e2_6",2,1,"pure","Strong",20,802,"Exclude",21
"SWR2012_e2","SWR2012_e2_6",2,1,"pure","Strong",16,3753,"Exclude",22
"SWR2012_e2","SWR2012_e2_6",2,0,"pure","Strong",2,2094,"Exclude",23
"SWR2012_e2","SWR2012_e2_6",2,1,"pure","Strong",20,828,"Exclude",24
"SWR2012_e2","SWR2012_e2_6",3,0,"pure","Strong",3,3576,"Include",1
"SWR2012_e2","SWR2012_e2_6",3,0,"pure","Strong",2,3272,"Include",2
"SWR2012_e2","SWR2012_e2_6",3,0,"pure","Strong",3,2023,"Include",3
"SWR2012_e2","SWR2012_e2_6",3,1,"pure","Strong",5,2366,"Include",4
"SWR2012_e2","SWR2012_e2_6",3,0,"pure","Strong",3,2113,"Include",5
"SWR2012_e2","SWR2012_e2_6",3,0,"pure","Strong",3,1616,"Include",6
"SWR2012_e2","SWR2012_e2_6",3,0,"pure","Strong",4,1645,"Include",7
"SWR2012_e2","SWR2012_e2_6",3,1,"pure","Strong",7,2708,"Include",8
"SWR2012_e2","SWR2012_e2_6",3,1,"pure","Strong",20,1604,"Include",9
"SWR2012_e2","SWR2012_e2_6",3,1,"pure","Strong",20,657,"Include",10
"SWR2012_e2","SWR2012_e2_6",3,1,"pure","Strong",20,1115,"Include",11
"SWR2012_e2","SWR2012_e2_6",3,1,"pure","Strong",20,1266,"Include",12
"SWR2012_e2","SWR2012_e2_6",3,1,"pure","Strong",20,724,"Include",13
"SWR2012_e2","SWR2012_e2_6",3,0,"pure","Strong",5,4346,"Include",14
"SWR2012_e2","SWR2012_e2_6",3,1,"pure","Strong",20,1208,"Include",15
"SWR2012_e2","SWR2012_e2_6",3,1,"pure","Strong",20,1333,"Include",16
"SWR2012_e2","SWR2012_e2_6",3,0,"pure","Strong",6,3261,"Include",17
"SWR2012_e2","SWR2012_e2_6",3,0,"pure","Strong",3,2411,"Include",18
"SWR2012_e2","SWR2012_e2_6",3,1,"pure","Strong",17,3067,"Include",19
"SWR2012_e2","SWR2012_e2_6",3,1,"pure","Strong",18,3772,"Include",20
"SWR2012_e2","SWR2012_e2_6",3,1,"pure","Strong",20,1232,"Include",21
"SWR2012_e2","SWR2012_e2_6",3,0,"pure","Strong",4,2544,"Include",22
"SWR2012_e2","SWR2012_e2_6",3,0,"pure","Strong",2,1958,"Include",23
"SWR2012_e2","SWR2012_e2_6",3,0,"pure","Strong",20,989,"Include",24
"SWR2012_e2","SWR2012_e2_6",4,1,"pure","Strong",17,2416,"Include",1
"SWR2012_e2","SWR2012_e2_6",4,0,"pure","Strong",18,1022,"Include",2
"SWR2012_e2","SWR2012_e2_6",4,1,"pure","Strong",3,2168,"Include",3
"SWR2012_e2","SWR2012_e2_6",4,1,"pure","Strong",10,4490,"Include",4
"SWR2012_e2","SWR2012_e2_6",4,1,"pure","Strong",3,1565,"Include",5
"SWR2012_e2","SWR2012_e2_6",4,0,"pure","Strong",3,1905,"Include",6
"SWR2012_e2","SWR2012_e2_6",4,0,"pure","Strong",2,2402,"Include",7
"SWR2012_e2","SWR2012_e2_6",4,0,"pure","Strong",3,1762,"Include",8
"SWR2012_e2","SWR2012_e2_6",4,0,"pure","Strong",2,1615,"Include",9
"SWR2012_e2","SWR2012_e2_6",4,0,"pure","Strong",4,3320,"Include",10
"SWR2012_e2","SWR2012_e2_6",4,1,"pure","Strong",4,1496,"Include",11
"SWR2012_e2","SWR2012_e2_6",4,0,"pure","Strong",3,1368,"Include",12
"SWR2012_e2","SWR2012_e2_6",4,1,"pure","Strong",20,1770,"Include",13
"SWR2012_e2","SWR2012_e2_6",4,0,"pure","Strong",10,3437,"Include",14
"SWR2012_e2","SWR2012_e2_6",4,1,"pure","Strong",5,4250,"Include",15
"SWR2012_e2","SWR2012_e2_6",4,0,"pure","Strong",4,1713,"Include",16
"SWR2012_e2","SWR2012_e2_6",4,0,"pure","Strong",3,857,"Include",17
"SWR2012_e2","SWR2012_e2_6",4,0,"pure","Strong",3,3343,"Include",18
"SWR2012_e2","SWR2012_e2_6",4,1,"pure","Strong",15,2253,"Include",19
"SWR2012_e2","SWR2012_e2_6",4,1,"pure","Strong",16,1661,"Include",20
"SWR2012_e2","SWR2012_e2_6",4,0,"pure","Strong",16,1775,"Include",21
"SWR2012_e2","SWR2012_e2_6",4,1,"pure","Strong",3,1642,"Include",22
"SWR2012_e2","SWR2012_e2_6",4,1,"pure","Strong",16,4519,"Include",23
"SWR2012_e2","SWR2012_e2_6",4,1,"pure","Strong",20,1689,"Include",24
"SWR2012_e2","SWR2012_e2_6",5,1,"pure","Strong",3,2254,"Include",1
"SWR2012_e2","SWR2012_e2_6",5,1,"pure","Strong",4,1623,"Include",2
"SWR2012_e2","SWR2012_e2_6",5,0,"pure","Strong",3,1150,"Include",3
"SWR2012_e2","SWR2012_e2_6",5,0,"pure","Strong",3,1908,"Include",4
"SWR2012_e2","SWR2012_e2_6",5,1,"pure","Strong",20,1770,"Include",5
"SWR2012_e2","SWR2012_e2_6",5,0,"pure","Strong",17,1950,"Include",6
"SWR2012_e2","SWR2012_e2_6",5,0,"pure","Strong",18,1748,"Include",7
"SWR2012_e2","SWR2012_e2_6",5,1,"pure","Strong",11,3460,"Include",8
"SWR2012_e2","SWR2012_e2_6",5,0,"pure","Strong",4,1788,"Include",9
"SWR2012_e2","SWR2012_e2_6",5,1,"pure","Strong",17,2533,"Include",10
"SWR2012_e2","SWR2012_e2_6",5,0,"pure","Strong",20,1063,"Include",11
"SWR2012_e2","SWR2012_e2_6",5,1,"pure","Strong",20,647,"Include",12
"SWR2012_e2","SWR2012_e2_6",5,1,"pure","Strong",20,655,"Include",13
"SWR2012_e2","SWR2012_e2_6",5,0,"pure","Strong",20,629,"Include",14
"SWR2012_e2","SWR2012_e2_6",5,0,"pure","Strong",3,2594,"Include",15
"SWR2012_e2","SWR2012_e2_6",5,0,"pure","Strong",3,1326,"Include",16
"SWR2012_e2","SWR2012_e2_6",5,0,"pure","Strong",2,1541,"Include",17
"SWR2012_e2","SWR2012_e2_6",5,1,"pure","Strong",20,1655,"Include",18
"SWR2012_e2","SWR2012_e2_6",5,1,"pure","Strong",20,1256,"Include",19
"SWR2012_e2","SWR2012_e2_6",5,0,"pure","Strong",3,1788,"Include",20
"SWR2012_e2","SWR2012_e2_6",5,1,"pure","Strong",20,1027,"Include",21
"SWR2012_e2","SWR2012_e2_6",5,0,"pure","Strong",4,1525,"Include",22
"SWR2012_e2","SWR2012_e2_6",5,1,"pure","Strong",2,1604,"Include",23
"SWR2012_e2","SWR2012_e2_6",5,1,"pure","Strong",20,829,"Include",24
"SWR2012_e2","SWR2012_e2_6",6,0,"pure","Strong",3,2137,"Include",1
"SWR2012_e2","SWR2012_e2_6",6,1,"pure","Strong",18,2166,"Include",2
"SWR2012_e2","SWR2012_e2_6",6,1,"pure","Strong",14,3561,"Include",3
"SWR2012_e2","SWR2012_e2_6",6,1,"pure","Strong",3,2089,"Include",4
"SWR2012_e2","SWR2012_e2_6",6,1,"pure","Strong",3,4389,"Include",5
"SWR2012_e2","SWR2012_e2_6",6,0,"pure","Strong",3,1049,"Include",6
"SWR2012_e2","SWR2012_e2_6",6,1,"pure","Strong",2,1727,"Include",7
"SWR2012_e2","SWR2012_e2_6",6,0,"pure","Strong",2,1368,"Include",8
"SWR2012_e2","SWR2012_e2_6",6,0,"pure","Strong",2,1292,"Include",9
"SWR2012_e2","SWR2012_e2_6",6,1,"pure","Strong",5,1794,"Include",10
"SWR2012_e2","SWR2012_e2_6",6,0,"pure","Strong",2,1557,"Include",11
"SWR2012_e2","SWR2012_e2_6",6,0,"pure","Strong",16,1578,"Include",12
"SWR2012_e2","SWR2012_e2_6",6,1,"pure","Strong",3,1567,"Include",13
"SWR2012_e2","SWR2012_e2_6",6,0,"pure","Strong",3,1538,"Include",14
"SWR2012_e2","SWR2012_e2_6",6,0,"pure","Strong",17,1971,"Include",15
"SWR2012_e2","SWR2012_e2_6",6,1,"pure","Strong",17,822,"Include",16
"SWR2012_e2","SWR2012_e2_6",6,1,"pure","Strong",3,1727,"Include",17
"SWR2012_e2","SWR2012_e2_6",6,0,"pure","Strong",15,3370,"Include",18
"SWR2012_e2","SWR2012_e2_6",6,1,"pure","Strong",3,1501,"Include",19
"SWR2012_e2","SWR2012_e2_6",6,0,"pure","Strong",3,1934,"Include",20
"SWR2012_e2","SWR2012_e2_6",6,0,"pure","Strong",2,1966,"Include",21
"SWR2012_e2","SWR2012_e2_6",6,0,"pure","Strong",2,1113,"Include",22
"SWR2012_e2","SWR2012_e2_6",6,1,"pure","Strong",3,1857,"Include",23
"SWR2012_e2","SWR2012_e2_6",6,1,"pure","Strong",17,1607,"Include",24
"SWR2012_e2","SWR2012_e2_6",7,1,"pure","Weak",3,5211,"Include",1
"SWR2012_e2","SWR2012_e2_6",7,0,"pure","Weak",2,1580,"Include",2
"SWR2012_e2","SWR2012_e2_6",7,1,"pure","Weak",3,1283,"Include",3
"SWR2012_e2","SWR2012_e2_6",7,1,"pure","Weak",2,1121,"Include",4
"SWR2012_e2","SWR2012_e2_6",7,1,"pure","Weak",2,1727,"Include",5
"SWR2012_e2","SWR2012_e2_6",7,0,"pure","Weak",4,2035,"Include",6
"SWR2012_e2","SWR2012_e2_6",7,1,"pure","Weak",20,2844,"Include",7
"SWR2012_e2","SWR2012_e2_6",7,0,"pure","Weak",4,1910,"Include",8
"SWR2012_e2","SWR2012_e2_6",7,1,"pure","Weak",3,2126,"Include",9
"SWR2012_e2","SWR2012_e2_6",7,1,"pure","Weak",2,1740,"Include",10
"SWR2012_e2","SWR2012_e2_6",7,0,"pure","Weak",2,1023,"Include",11
"SWR2012_e2","SWR2012_e2_6",7,1,"pure","Weak",1,1608,"Include",12
"SWR2012_e2","SWR2012_e2_6",7,0,"pure","Weak",1,1480,"Include",13
"SWR2012_e2","SWR2012_e2_6",7,0,"pure","Weak",1,1453,"Include",14
"SWR2012_e2","SWR2012_e2_6",7,1,"pure","Weak",1,2547,"Include",15
"SWR2012_e2","SWR2012_e2_6",7,0,"pure","Weak",1,1517,"Include",16
"SWR2012_e2","SWR2012_e2_6",7,1,"pure","Weak",20,1069,"Include",17
"SWR2012_e2","SWR2012_e2_6",7,0,"pure","Weak",2,1618,"Include",18
"SWR2012_e2","SWR2012_e2_6",7,1,"pure","Weak",2,1254,"Include",19
"SWR2012_e2","SWR2012_e2_6",7,0,"pure","Weak",2,1517,"Include",20
"SWR2012_e2","SWR2012_e2_6",7,1,"pure","Weak",3,1541,"Include",21
"SWR2012_e2","SWR2012_e2_6",7,0,"pure","Weak",3,884,"Include",22
"SWR2012_e2","SWR2012_e2_6",7,0,"pure","Weak",2,1368,"Include",23
"SWR2012_e2","SWR2012_e2_6",7,0,"pure","Weak",20,1185,"Include",24
"SWR2012_e2","SWR2012_e2_6",8,0,"pure","Weak",3,3113,"Include",1
"SWR2012_e2","SWR2012_e2_6",8,1,"pure","Weak",18,2700,"Include",2
"SWR2012_e2","SWR2012_e2_6",8,0,"pure","Weak",2,1540,"Include",3
"SWR2012_e2","SWR2012_e2_6",8,0,"pure","Weak",2,1113,"Include",4
"SWR2012_e2","SWR2012_e2_6",8,0,"pure","Weak",2,1568,"Include",5
"SWR2012_e2","SWR2012_e2_6",8,0,"pure","Weak",2,952,"Include",6
"SWR2012_e2","SWR2012_e2_6",8,0,"pure","Weak",2,1092,"Include",7
"SWR2012_e2","SWR2012_e2_6",8,1,"pure","Weak",3,3039,"Include",8
"SWR2012_e2","SWR2012_e2_6",8,1,"pure","Weak",17,4277,"Include",9
"SWR2012_e2","SWR2012_e2_6",8,1,"pure","Weak",2,1070,"Include",10
"SWR2012_e2","SWR2012_e2_6",8,1,"pure","Weak",2,1156,"Include",11
"SWR2012_e2","SWR2012_e2_6",8,0,"pure","Weak",3,1464,"Include",12
"SWR2012_e2","SWR2012_e2_6",8,0,"pure","Weak",2,1425,"Include",13
"SWR2012_e2","SWR2012_e2_6",8,1,"pure","Weak",20,1265,"Include",14
"SWR2012_e2","SWR2012_e2_6",8,1,"pure","Weak",20,1278,"Include",15
"SWR2012_e2","SWR2012_e2_6",8,0,"pure","Weak",2,1493,"Include",16
"SWR2012_e2","SWR2012_e2_6",8,0,"pure","Weak",2,1167,"Include",17
"SWR2012_e2","SWR2012_e2_6",8,1,"pure","Weak",2,2313,"Include",18
"SWR2012_e2","SWR2012_e2_6",8,0,"pure","Weak",2,1118,"Include",19
"SWR2012_e2","SWR2012_e2_6",8,1,"pure","Weak",20,800,"Include",20
"SWR2012_e2","SWR2012_e2_6",8,1,"pure","Weak",1,2100,"Include",21
"SWR2012_e2","SWR2012_e2_6",8,1,"pure","Weak",20,1837,"Include",22
"SWR2012_e2","SWR2012_e2_6",8,0,"pure","Weak",2,1190,"Include",23
"SWR2012_e2","SWR2012_e2_6",8,1,"pure","Weak",2,2039,"Include",24
"SWR2012_e2","SWR2012_e2_6",9,1,"pure","Weak",3,1844,"Include",1
"SWR2012_e2","SWR2012_e2_6",9,0,"pure","Weak",2,1445,"Include",2
"SWR2012_e2","SWR2012_e2_6",9,1,"pure","Weak",20,1499,"Include",3
"SWR2012_e2","SWR2012_e2_6",9,0,"pure","Weak",3,1673,"Include",4
"SWR2012_e2","SWR2012_e2_6",9,1,"pure","Weak",2,1410,"Include",5
"SWR2012_e2","SWR2012_e2_6",9,1,"pure","Weak",3,1895,"Include",6
"SWR2012_e2","SWR2012_e2_6",9,0,"pure","Weak",2,916,"Include",7
"SWR2012_e2","SWR2012_e2_6",9,1,"pure","Weak",2,1419,"Include",8
"SWR2012_e2","SWR2012_e2_6",9,0,"pure","Weak",2,973,"Include",9
"SWR2012_e2","SWR2012_e2_6",9,0,"pure","Weak",2,794,"Include",10
"SWR2012_e2","SWR2012_e2_6",9,1,"pure","Weak",2,1127,"Include",11
"SWR2012_e2","SWR2012_e2_6",9,1,"pure","Weak",3,1265,"Include",12
"SWR2012_e2","SWR2012_e2_6",9,0,"pure","Weak",3,1113,"Include",13
"SWR2012_e2","SWR2012_e2_6",9,1,"pure","Weak",2,3191,"Include",14
"SWR2012_e2","SWR2012_e2_6",9,0,"pure","Weak",3,1531,"Include",15
"SWR2012_e2","SWR2012_e2_6",9,1,"pure","Weak",2,1126,"Include",16
"SWR2012_e2","SWR2012_e2_6",9,0,"pure","Weak",2,901,"Include",17
"SWR2012_e2","SWR2012_e2_6",9,1,"pure","Weak",2,779,"Include",18
"SWR2012_e2","SWR2012_e2_6",9,1,"pure","Weak",2,895,"Include",19
"SWR2012_e2","SWR2012_e2_6",9,0,"pure","Weak",2,741,"Include",20
"SWR2012_e2","SWR2012_e2_6",9,0,"pure","Weak",2,1230,"Include",21
"SWR2012_e2","SWR2012_e2_6",9,0,"pure","Weak",3,885,"Include",22
"SWR2012_e2","SWR2012_e2_6",9,1,"pure","Weak",16,2041,"Include",23
"SWR2012_e2","SWR2012_e2_6",9,0,"pure","Weak",2,939,"Include",24
"SWR2012_e2","SWR2012_e2_6",10,0,"pure","Strong",2,2116,"Include",1
"SWR2012_e2","SWR2012_e2_6",10,0,"pure","Strong",3,777,"Include",2
"SWR2012_e2","SWR2012_e2_6",10,1,"pure","Strong",2,682,"Include",3
"SWR2012_e2","SWR2012_e2_6",10,0,"pure","Strong",18,1748,"Include",4
"SWR2012_e2","SWR2012_e2_6",10,1,"pure","Strong",17,1006,"Include",5
"SWR2012_e2","SWR2012_e2_6",10,1,"pure","Strong",2,1421,"Include",6
"SWR2012_e2","SWR2012_e2_6",10,1,"pure","Strong",18,988,"Include",7
"SWR2012_e2","SWR2012_e2_6",10,0,"pure","Strong",18,876,"Include",8
"SWR2012_e2","SWR2012_e2_6",10,1,"pure","Strong",19,966,"Include",9
"SWR2012_e2","SWR2012_e2_6",10,0,"pure","Strong",2,932,"Include",10
"SWR2012_e2","SWR2012_e2_6",10,1,"pure","Strong",3,1289,"Include",11
"SWR2012_e2","SWR2012_e2_6",10,0,"pure","Strong",3,1033,"Include",12
"SWR2012_e2","SWR2012_e2_6",10,1,"pure","Strong",2,788,"Include",13
"SWR2012_e2","SWR2012_e2_6",10,0,"pure","Strong",2,1020,"Include",14
"SWR2012_e2","SWR2012_e2_6",10,0,"pure","Strong",3,778,"Include",15
"SWR2012_e2","SWR2012_e2_6",10,0,"pure","Strong",2,1036,"Include",16
"SWR2012_e2","SWR2012_e2_6",10,1,"pure","Strong",2,1230,"Include",17
"SWR2012_e2","SWR2012_e2_6",10,1,"pure","Strong",3,1044,"Include",18
"SWR2012_e2","SWR2012_e2_6",10,1,"pure","Strong",19,1201,"Include",19
"SWR2012_e2","SWR2012_e2_6",10,1,"pure","Strong",20,1379,"Include",20
"SWR2012_e2","SWR2012_e2_6",10,0,"pure","Strong",20,2240,"Include",21
"SWR2012_e2","SWR2012_e2_6",10,1,"pure","Strong",20,839,"Include",22
"SWR2012_e2","SWR2012_e2_6",10,0,"pure","Strong",2,921,"Include",23
"SWR2012_e2","SWR2012_e2_6",10,0,"pure","Strong",3,987,"Include",24
"SWR2012_e2","SWR2012_e2_6",11,1,"pure","Weak",2,2999,"Include",1
"SWR2012_e2","SWR2012_e2_6",11,1,"pure","Weak",3,831,"Include",2
"SWR2012_e2","SWR2012_e2_6",11,0,"pure","Weak",2,1149,"Include",3
"SWR2012_e2","SWR2012_e2_6",11,0,"pure","Weak",3,904,"Include",4
"SWR2012_e2","SWR2012_e2_6",11,0,"pure","Weak",2,761,"Include",5
"SWR2012_e2","SWR2012_e2_6",11,0,"pure","Weak",1,640,"Include",6
"SWR2012_e2","SWR2012_e2_6",11,0,"pure","Weak",1,1281,"Include",7
"SWR2012_e2","SWR2012_e2_6",11,0,"pure","Weak",1,1034,"Include",8
"SWR2012_e2","SWR2012_e2_6",11,1,"pure","Weak",1,788,"Include",9
"SWR2012_e2","SWR2012_e2_6",11,1,"pure","Weak",1,1387,"Include",10
"SWR2012_e2","SWR2012_e2_6",11,0,"pure","Weak",2,1781,"Include",11
"SWR2012_e2","SWR2012_e2_6",11,1,"pure","Weak",3,2924,"Include",12
"SWR2012_e2","SWR2012_e2_6",11,1,"pure","Weak",2,781,"Include",13
"SWR2012_e2","SWR2012_e2_6",11,0,"pure","Weak",2,1219,"Include",14
"SWR2012_e2","SWR2012_e2_6",11,0,"pure","Weak",2,1159,"Include",15
"SWR2012_e2","SWR2012_e2_6",11,1,"pure","Weak",18,1752,"Include",16
"SWR2012_e2","SWR2012_e2_6",11,1,"pure","Weak",2,1564,"Include",17
"SWR2012_e2","SWR2012_e2_6",11,1,"pure","Weak",20,720,"Include",18
"SWR2012_e2","SWR2012_e2_6",11,0,"pure","Weak",17,2959,"Include",19
"SWR2012_e2","SWR2012_e2_6",11,1,"pure","Weak",17,2051,"Include",20
"SWR2012_e2","SWR2012_e2_6",11,1,"pure","Weak",2,1538,"Include",21
"SWR2012_e2","SWR2012_e2_6",11,0,"pure","Weak",2,1140,"Include",22
"SWR2012_e2","SWR2012_e2_6",11,1,"pure","Weak",15,2666,"Include",23
"SWR2012_e2","SWR2012_e2_6",11,0,"pure","Weak",2,2040,"Include",24
"SWR2012_e2","SWR2012_e2_6",12,0,"pure","Weak",2,1356,"Include",1
"SWR2012_e2","SWR2012_e2_6",12,0,"pure","Weak",2,940,"Include",2
"SWR2012_e2","SWR2012_e2_6",12,0,"pure","Weak",3,956,"Include",3
"SWR2012_e2","SWR2012_e2_6",12,1,"pure","Weak",20,1604,"Include",4
"SWR2012_e2","SWR2012_e2_6",12,1,"pure","Weak",3,995,"Include",5
"SWR2012_e2","SWR2012_e2_6",12,1,"pure","Weak",2,908,"Include",6
"SWR2012_e2","SWR2012_e2_6",12,0,"pure","Weak",2,900,"Include",7
"SWR2012_e2","SWR2012_e2_6",12,1,"pure","Weak",3,592,"Include",8
"SWR2012_e2","SWR2012_e2_6",12,1,"pure","Weak",17,1841,"Include",9
"SWR2012_e2","SWR2012_e2_6",12,1,"pure","Weak",3,836,"Include",10
"SWR2012_e2","SWR2012_e2_6",12,1,"pure","Weak",20,1030,"Include",11
"SWR2012_e2","SWR2012_e2_6",12,0,"pure","Weak",2,972,"Include",12
"SWR2012_e2","SWR2012_e2_6",12,0,"pure","Weak",3,919,"Include",13
"SWR2012_e2","SWR2012_e2_6",12,0,"pure","Weak",2,741,"Include",14
"SWR2012_e2","SWR2012_e2_6",12,0,"pure","Weak",2,621,"Include",15
"SWR2012_e2","SWR2012_e2_6",12,0,"pure","Weak",2,573,"Include",16
"SWR2012_e2","SWR2012_e2_6",12,1,"pure","Weak",2,424,"Include",17
"SWR2012_e2","SWR2012_e2_6",12,1,"pure","Weak",2,1147,"Include",18
"SWR2012_e2","SWR2012_e2_6",12,1,"pure","Weak",3,685,"Include",19
"SWR2012_e2","SWR2012_e2_6",12,1,"pure","Weak",3,1157,"Include",20
"SWR2012_e2","SWR2012_e2_6",12,1,"pure","Weak",2,650,"Include",21
"SWR2012_e2","SWR2012_e2_6",12,0,"pure","Weak",2,563,"Include",22
"SWR2012_e2","SWR2012_e2_6",12,0,"pure","Weak",20,1121,"Include",23
"SWR2012_e2","SWR2012_e2_6",12,0,"pure","Weak",3,2373,"Include",24
"SWR2012_e2","SWR2012_e2_8",1,1,"pure","Strong",20,2013,"Exclude",1
"SWR2012_e2","SWR2012_e2_8",1,0,"pure","Strong",18,2762,"Exclude",2
"SWR2012_e2","SWR2012_e2_8",1,0,"pure","Strong",3,2917,"Exclude",3
"SWR2012_e2","SWR2012_e2_8",1,0,"pure","Strong",4,2055,"Exclude",4
"SWR2012_e2","SWR2012_e2_8",1,1,"pure","Strong",20,1257,"Exclude",5
"SWR2012_e2","SWR2012_e2_8",1,1,"pure","Strong",20,649,"Exclude",6
"SWR2012_e2","SWR2012_e2_8",1,1,"pure","Strong",20,684,"Exclude",7
"SWR2012_e2","SWR2012_e2_8",1,0,"pure","Strong",2,2968,"Exclude",8
"SWR2012_e2","SWR2012_e2_8",1,0,"pure","Strong",3,1760,"Exclude",9
"SWR2012_e2","SWR2012_e2_8",1,0,"pure","Strong",3,1266,"Exclude",10
"SWR2012_e2","SWR2012_e2_8",1,0,"pure","Strong",3,1758,"Exclude",11
"SWR2012_e2","SWR2012_e2_8",1,1,"pure","Strong",20,728,"Exclude",12
"SWR2012_e2","SWR2012_e2_8",1,0,"pure","Strong",4,3264,"Exclude",13
"SWR2012_e2","SWR2012_e2_8",1,1,"pure","Strong",20,639,"Exclude",14
"SWR2012_e2","SWR2012_e2_8",1,0,"pure","Strong",5,2646,"Exclude",15
"SWR2012_e2","SWR2012_e2_8",1,0,"pure","Strong",4,1265,"Exclude",16
"SWR2012_e2","SWR2012_e2_8",1,1,"pure","Strong",4,2502,"Exclude",17
"SWR2012_e2","SWR2012_e2_8",1,0,"pure","Strong",20,1158,"Exclude",18
"SWR2012_e2","SWR2012_e2_8",1,1,"pure","Strong",20,2799,"Exclude",19
"SWR2012_e2","SWR2012_e2_8",1,1,"pure","Strong",20,648,"Exclude",20
"SWR2012_e2","SWR2012_e2_8",1,1,"pure","Strong",20,630,"Exclude",21
"SWR2012_e2","SWR2012_e2_8",1,1,"pure","Strong",20,711,"Exclude",22
"SWR2012_e2","SWR2012_e2_8",1,0,"pure","Strong",2,1875,"Exclude",23
"SWR2012_e2","SWR2012_e2_8",1,1,"pure","Strong",20,755,"Exclude",24
"SWR2012_e2","SWR2012_e2_8",2,1,"pure","Weak",20,2416,"Exclude",1
"SWR2012_e2","SWR2012_e2_8",2,0,"pure","Weak",3,1776,"Exclude",2
"SWR2012_e2","SWR2012_e2_8",2,0,"pure","Weak",18,1732,"Exclude",3
"SWR2012_e2","SWR2012_e2_8",2,1,"pure","Weak",19,2001,"Exclude",4
"SWR2012_e2","SWR2012_e2_8",2,1,"pure","Weak",17,2457,"Exclude",5
"SWR2012_e2","SWR2012_e2_8",2,0,"pure","Weak",14,2064,"Exclude",6
"SWR2012_e2","SWR2012_e2_8",2,1,"pure","Weak",13,2503,"Exclude",7
"SWR2012_e2","SWR2012_e2_8",2,1,"pure","Weak",10,3506,"Exclude",8
"SWR2012_e2","SWR2012_e2_8",2,0,"pure","Weak",7,2548,"Exclude",9
"SWR2012_e2","SWR2012_e2_8",2,0,"pure","Weak",6,2681,"Exclude",10
"SWR2012_e2","SWR2012_e2_8",2,0,"pure","Weak",18,2548,"Exclude",11
"SWR2012_e2","SWR2012_e2_8",2,1,"pure","Weak",17,4027,"Exclude",12
"SWR2012_e2","SWR2012_e2_8",2,0,"pure","Weak",13,2636,"Exclude",13
"SWR2012_e2","SWR2012_e2_8",2,0,"pure","Weak",9,3515,"Exclude",14
"SWR2012_e2","SWR2012_e2_8",2,1,"pure","Weak",10,2440,"Exclude",15
"SWR2012_e2","SWR2012_e2_8",2,0,"pure","Weak",18,2889,"Exclude",16
"SWR2012_e2","SWR2012_e2_8",2,0,"pure","Weak",16,1723,"Exclude",17
"SWR2012_e2","SWR2012_e2_8",2,0,"pure","Weak",8,2322,"Exclude",18
"SWR2012_e2","SWR2012_e2_8",2,1,"pure","Weak",2,5011,"Exclude",19
"SWR2012_e2","SWR2012_e2_8",2,1,"pure","Weak",16,2953,"Exclude",20
"SWR2012_e2","SWR2012_e2_8",2,1,"pure","Weak",18,2350,"Exclude",21
"SWR2012_e2","SWR2012_e2_8",2,0,"pure","Weak",17,2574,"Exclude",22
"SWR2012_e2","SWR2012_e2_8",2,1,"pure","Weak",19,1902,"Exclude",23
"SWR2012_e2","SWR2012_e2_8",2,1,"pure","Weak",20,1365,"Exclude",24
"SWR2012_e2","SWR2012_e2_8",3,1,"pure","Strong",20,1710,"Include",1
"SWR2012_e2","SWR2012_e2_8",3,0,"pure","Strong",1,1642,"Include",2
"SWR2012_e2","SWR2012_e2_8",3,0,"pure","Strong",19,1851,"Include",3
"SWR2012_e2","SWR2012_e2_8",3,0,"pure","Strong",18,2180,"Include",4
"SWR2012_e2","SWR2012_e2_8",3,1,"pure","Strong",20,952,"Include",5
"SWR2012_e2","SWR2012_e2_8",3,0,"pure","Strong",3,1766,"Include",6
"SWR2012_e2","SWR2012_e2_8",3,1,"pure","Strong",20,1160,"Include",7
"SWR2012_e2","SWR2012_e2_8",3,1,"pure","Strong",20,1015,"Include",8
"SWR2012_e2","SWR2012_e2_8",3,1,"pure","Strong",20,728,"Include",9
"SWR2012_e2","SWR2012_e2_8",3,1,"pure","Strong",20,1113,"Include",10
"SWR2012_e2","SWR2012_e2_8",3,0,"pure","Strong",4,2771,"Include",11
"SWR2012_e2","SWR2012_e2_8",3,0,"pure","Strong",20,1608,"Include",12
"SWR2012_e2","SWR2012_e2_8",3,1,"pure","Strong",20,933,"Include",13
"SWR2012_e2","SWR2012_e2_8",3,0,"pure","Strong",2,1561,"Include",14
"SWR2012_e2","SWR2012_e2_8",3,0,"pure","Strong",1,1805,"Include",15
"SWR2012_e2","SWR2012_e2_8",3,0,"pure","Strong",4,1545,"Include",16
"SWR2012_e2","SWR2012_e2_8",3,0,"pure","Strong",4,1544,"Include",17
"SWR2012_e2","SWR2012_e2_8",3,1,"pure","Strong",20,1007,"Include",18
"SWR2012_e2","SWR2012_e2_8",3,1,"pure","Strong",20,863,"Include",19
"SWR2012_e2","SWR2012_e2_8",3,0,"pure","Strong",10,6515,"Exclude",20
"SWR2012_e2","SWR2012_e2_8",3,1,"pure","Strong",20,1052,"Include",21
"SWR2012_e2","SWR2012_e2_8",3,0,"pure","Strong",4,2287,"Include",22
"SWR2012_e2","SWR2012_e2_8",3,1,"pure","Strong",20,845,"Include",23
"SWR2012_e2","SWR2012_e2_8",3,1,"pure","Strong",20,800,"Include",24
"SWR2012_e2","SWR2012_e2_8",4,1,"pure","Weak",16,3392,"Include",1
"SWR2012_e2","SWR2012_e2_8",4,1,"pure","Weak",19,1267,"Include",2
"SWR2012_e2","SWR2012_e2_8",4,1,"pure","Weak",20,1374,"Include",3
"SWR2012_e2","SWR2012_e2_8",4,0,"pure","Weak",3,2770,"Include",4
"SWR2012_e2","SWR2012_e2_8",4,0,"pure","Weak",16,2145,"Include",5
"SWR2012_e2","SWR2012_e2_8",4,1,"pure","Weak",9,2323,"Include",6
"SWR2012_e2","SWR2012_e2_8",4,0,"pure","Weak",17,2109,"Include",7
"SWR2012_e2","SWR2012_e2_8",4,1,"pure","Weak",18,1732,"Include",8
"SWR2012_e2","SWR2012_e2_8",4,0,"pure","Weak",3,1696,"Include",9
"SWR2012_e2","SWR2012_e2_8",4,0,"pure","Weak",5,2018,"Include",10
"SWR2012_e2","SWR2012_e2_8",4,0,"pure","Weak",18,3166,"Include",11
"SWR2012_e2","SWR2012_e2_8",4,1,"pure","Weak",17,1544,"Include",12
"SWR2012_e2","SWR2012_e2_8",4,0,"pure","Weak",8,1813,"Include",13
"SWR2012_e2","SWR2012_e2_8",4,0,"pure","Weak",3,1733,"Include",14
"SWR2012_e2","SWR2012_e2_8",4,1,"pure","Weak",10,3005,"Include",15
"SWR2012_e2","SWR2012_e2_8",4,0,"pure","Weak",20,4169,"Include",16
"SWR2012_e2","SWR2012_e2_8",4,0,"pure","Weak",5,1643,"Include",17
"SWR2012_e2","SWR2012_e2_8",4,0,"pure","Weak",4,1796,"Include",18
"SWR2012_e2","SWR2012_e2_8",4,1,"pure","Weak",4,1391,"Include",19
"SWR2012_e2","SWR2012_e2_8",4,1,"pure","Weak",19,1526,"Include",20
"SWR2012_e2","SWR2012_e2_8",4,1,"pure","Weak",20,1958,"Include",21
"SWR2012_e2","SWR2012_e2_8",4,1,"pure","Weak",20,4349,"Include",22
"SWR2012_e2","SWR2012_e2_8",4,0,"pure","Weak",3,2468,"Include",23
"SWR2012_e2","SWR2012_e2_8",4,1,"pure","Weak",20,3031,"Include",24
"SWR2012_e2","SWR2012_e2_8",5,0,"pure","Strong",3,2049,"Include",1
"SWR2012_e2","SWR2012_e2_8",5,1,"pure","Strong",2,1581,"Include",2
"SWR2012_e2","SWR2012_e2_8",5,0,"pure","Strong",4,1213,"Include",3
"SWR2012_e2","SWR2012_e2_8",5,0,"pure","Strong",4,2896,"Include",4
"SWR2012_e2","SWR2012_e2_8",5,0,"pure","Strong",3,2441,"Include",5
"SWR2012_e2","SWR2012_e2_8",5,1,"pure","Strong",20,2100,"Include",6
"SWR2012_e2","SWR2012_e2_8",5,0,"pure","Strong",6,2808,"Include",7
"SWR2012_e2","SWR2012_e2_8",5,0,"pure","Strong",5,1625,"Include",8
"SWR2012_e2","SWR2012_e2_8",5,0,"pure","Strong",20,1212,"Include",9
"SWR2012_e2","SWR2012_e2_8",5,1,"pure","Strong",20,1249,"Include",10
"SWR2012_e2","SWR2012_e2_8",5,1,"pure","Strong",20,908,"Include",11
"SWR2012_e2","SWR2012_e2_8",5,0,"pure","Strong",4,2861,"Include",12
"SWR2012_e2","SWR2012_e2_8",5,0,"pure","Strong",19,1348,"Include",13
"SWR2012_e2","SWR2012_e2_8",5,1,"pure","Strong",19,1562,"Include",14
"SWR2012_e2","SWR2012_e2_8",5,0,"pure","Strong",3,1929,"Include",15
"SWR2012_e2","SWR2012_e2_8",5,1,"pure","Strong",20,1331,"Include",16
"SWR2012_e2","SWR2012_e2_8",5,0,"pure","Strong",20,1016,"Include",17
"SWR2012_e2","SWR2012_e2_8",5,1,"pure","Strong",20,979,"Include",18
"SWR2012_e2","SWR2012_e2_8",5,1,"pure","Strong",20,738,"Include",19
"SWR2012_e2","SWR2012_e2_8",5,1,"pure","Strong",20,630,"Include",20
"SWR2012_e2","SWR2012_e2_8",5,1,"pure","Strong",20,666,"Include",21
"SWR2012_e2","SWR2012_e2_8",5,0,"pure","Strong",17,2359,"Include",22
"SWR2012_e2","SWR2012_e2_8",5,1,"pure","Strong",20,1087,"Include",23
"SWR2012_e2","SWR2012_e2_8",5,1,"pure","Strong",20,764,"Include",24
"SWR2012_e2","SWR2012_e2_8",6,1,"pure","Strong",19,2740,"Include",1
"SWR2012_e2","SWR2012_e2_8",6,0,"pure","Strong",3,1759,"Include",2
"SWR2012_e2","SWR2012_e2_8",6,1,"pure","Strong",19,1679,"Include",3
"SWR2012_e2","SWR2012_e2_8",6,1,"pure","Strong",20,1034,"Include",4
"SWR2012_e2","SWR2012_e2_8",6,1,"pure","Strong",18,2198,"Include",5
"SWR2012_e2","SWR2012_e2_8",6,1,"pure","Strong",19,945,"Include",6
"SWR2012_e2","SWR2012_e2_8",6,0,"pure","Strong",3,1589,"Include",7
"SWR2012_e2","SWR2012_e2_8",6,0,"pure","Strong",19,2648,"Include",8
"SWR2012_e2","SWR2012_e2_8",6,1,"pure","Strong",20,1563,"Include",9
"SWR2012_e2","SWR2012_e2_8",6,0,"pure","Strong",4,2126,"Include",10
"SWR2012_e2","SWR2012_e2_8",6,0,"pure","Strong",4,1625,"Include",11
"SWR2012_e2","SWR2012_e2_8",6,0,"pure","Strong",10,3784,"Include",12
"SWR2012_e2","SWR2012_e2_8",6,0,"pure","Strong",17,1608,"Include",13
"SWR2012_e2","SWR2012_e2_8",6,0,"pure","Strong",18,3041,"Include",14
"SWR2012_e2","SWR2012_e2_8",6,1,"pure","Strong",17,1913,"Include",15
"SWR2012_e2","SWR2012_e2_8",6,0,"pure","Strong",19,2899,"Include",16
"SWR2012_e2","SWR2012_e2_8",6,1,"pure","Strong",20,1492,"Include",17
"SWR2012_e2","SWR2012_e2_8",6,1,"pure","Strong",20,873,"Include",18
"SWR2012_e2","SWR2012_e2_8",6,0,"pure","Strong",18,2493,"Include",19
"SWR2012_e2","SWR2012_e2_8",6,0,"pure","Strong",5,3049,"Include",20
"SWR2012_e2","SWR2012_e2_8",6,1,"pure","Strong",20,1501,"Include",21
"SWR2012_e2","SWR2012_e2_8",6,0,"pure","Strong",3,1931,"Include",22
"SWR2012_e2","SWR2012_e2_8",6,1,"pure","Strong",19,1437,"Include",23
"SWR2012_e2","SWR2012_e2_8",6,1,"pure","Strong",18,5056,"Include",24
"SWR2012_e2","SWR2012_e2_8",7,1,"pure","Weak",18,2309,"Include",1
"SWR2012_e2","SWR2012_e2_8",7,1,"pure","Weak",20,979,"Include",2
"SWR2012_e2","SWR2012_e2_8",7,0,"pure","Weak",3,1509,"Include",3
"SWR2012_e2","SWR2012_e2_8",7,0,"pure","Weak",4,1402,"Include",4
"SWR2012_e2","SWR2012_e2_8",7,1,"pure","Weak",2,2127,"Include",5
"SWR2012_e2","SWR2012_e2_8",7,0,"pure","Weak",3,1082,"Include",6
"SWR2012_e2","SWR2012_e2_8",7,1,"pure","Weak",10,1958,"Include",7
"SWR2012_e2","SWR2012_e2_8",7,0,"pure","Weak",16,2127,"Include",8
"SWR2012_e2","SWR2012_e2_8",7,1,"pure","Weak",18,1769,"Include",9
"SWR2012_e2","SWR2012_e2_8",7,0,"pure","Weak",8,2790,"Include",10
"SWR2012_e2","SWR2012_e2_8",7,0,"pure","Weak",5,1903,"Include",11
"SWR2012_e2","SWR2012_e2_8",7,1,"pure","Weak",19,1455,"Include",12
"SWR2012_e2","SWR2012_e2_8",7,1,"pure","Weak",4,1617,"Include",13
"SWR2012_e2","SWR2012_e2_8",7,0,"pure","Weak",18,2836,"Include",14
"SWR2012_e2","SWR2012_e2_8",7,1,"pure","Weak",20,1537,"Include",15
"SWR2012_e2","SWR2012_e2_8",7,1,"pure","Weak",19,1429,"Include",16
"SWR2012_e2","SWR2012_e2_8",7,0,"pure","Weak",9,1797,"Include",17
"SWR2012_e2","SWR2012_e2_8",7,1,"pure","Weak",4,1366,"Include",18
"SWR2012_e2","SWR2012_e2_8",7,1,"pure","Weak",19,2404,"Include",19
"SWR2012_e2","SWR2012_e2_8",7,0,"pure","Weak",2,1536,"Include",20
"SWR2012_e2","SWR2012_e2_8",7,0,"pure","Weak",14,2379,"Include",21
"SWR2012_e2","SWR2012_e2_8",7,1,"pure","Weak",19,1903,"Include",22
"SWR2012_e2","SWR2012_e2_8",7,0,"pure","Weak",2,1733,"Include",23
"SWR2012_e2","SWR2012_e2_8",7,0,"pure","Weak",19,1968,"Include",24
"SWR2012_e2","SWR2012_e2_8",8,1,"pure","Weak",17,1726,"Include",1
"SWR2012_e2","SWR2012_e2_8",8,1,"pure","Weak",3,1042,"Include",2
"SWR2012_e2","SWR2012_e2_8",8,0,"pure","Weak",2,1733,"Include",3
"SWR2012_e2","SWR2012_e2_8",8,1,"pure","Weak",19,1240,"Include",4
"SWR2012_e2","SWR2012_e2_8",8,1,"pure","Weak",3,1410,"Include",5
"SWR2012_e2","SWR2012_e2_8",8,1,"pure","Weak",9,2170,"Include",6
"SWR2012_e2","SWR2012_e2_8",8,1,"pure","Weak",13,2485,"Include",7
"SWR2012_e2","SWR2012_e2_8",8,1,"pure","Weak",17,2118,"Include",8
"SWR2012_e2","SWR2012_e2_8",8,0,"pure","Weak",18,1348,"Include",9
"SWR2012_e2","SWR2012_e2_8",8,0,"pure","Weak",8,1885,"Include",10
"SWR2012_e2","SWR2012_e2_8",8,0,"pure","Weak",3,1912,"Include",11
"SWR2012_e2","SWR2012_e2_8",8,0,"pure","Weak",4,2002,"Include",12
"SWR2012_e2","SWR2012_e2_8",8,1,"pure","Weak",17,1777,"Include",13
"SWR2012_e2","SWR2012_e2_8",8,1,"pure","Weak",19,1133,"Include",14
"SWR2012_e2","SWR2012_e2_8",8,0,"pure","Weak",20,3821,"Include",15
"SWR2012_e2","SWR2012_e2_8",8,0,"pure","Weak",4,1759,"Include",16
"SWR2012_e2","SWR2012_e2_8",8,0,"pure","Weak",3,1804,"Include",17
"SWR2012_e2","SWR2012_e2_8",8,0,"pure","Weak",4,3040,"Include",18
"SWR2012_e2","SWR2012_e2_8",8,1,"pure","Weak",20,1929,"Include",19
"SWR2012_e2","SWR2012_e2_8",8,0,"pure","Weak",15,2530,"Include",20
"SWR2012_e2","SWR2012_e2_8",8,1,"pure","Weak",4,2619,"Include",21
"SWR2012_e2","SWR2012_e2_8",8,0,"pure","Weak",16,2781,"Include",22
"SWR2012_e2","SWR2012_e2_8",8,0,"pure","Weak",16,1723,"Include",23
"SWR2012_e2","SWR2012_e2_8",8,1,"pure","Weak",19,1725,"Include",24
"SWR2012_e2","SWR2012_e2_8",9,1,"pure","Strong",19,1242,"Include",1
"SWR2012_e2","SWR2012_e2_8",9,1,"pure","Strong",20,1007,"Include",2
"SWR2012_e2","SWR2012_e2_8",9,0,"pure","Strong",17,1401,"Include",3
"SWR2012_e2","SWR2012_e2_8",9,1,"pure","Strong",20,650,"Include",4
"SWR2012_e2","SWR2012_e2_8",9,1,"pure","Strong",20,936,"Include",5
"SWR2012_e2","SWR2012_e2_8",9,0,"pure","Strong",18,2844,"Include",6
"SWR2012_e2","SWR2012_e2_8",9,0,"pure","Strong",3,1582,"Include",7
"SWR2012_e2","SWR2012_e2_8",9,1,"pure","Strong",20,1008,"Include",8
"SWR2012_e2","SWR2012_e2_8",9,0,"pure","Strong",16,1849,"Include",9
"SWR2012_e2","SWR2012_e2_8",9,0,"pure","Strong",3,1776,"Include",10
"SWR2012_e2","SWR2012_e2_8",9,0,"pure","Strong",4,1536,"Include",11
"SWR2012_e2","SWR2012_e2_8",9,1,"pure","Strong",20,1339,"Include",12
"SWR2012_e2","SWR2012_e2_8",9,0,"pure","Strong",3,1679,"Include",13
"SWR2012_e2","SWR2012_e2_8",9,0,"pure","Strong",19,1635,"Include",14
"SWR2012_e2","SWR2012_e2_8",9,1,"pure","Strong",20,1169,"Include",15
"SWR2012_e2","SWR2012_e2_8",9,1,"pure","Strong",20,783,"Include",16
"SWR2012_e2","SWR2012_e2_8",9,0,"pure","Strong",13,2808,"Include",17
"SWR2012_e2","SWR2012_e2_8",9,1,"pure","Strong",20,1600,"Include",18
"SWR2012_e2","SWR2012_e2_8",9,1,"pure","Strong",17,2117,"Include",19
"SWR2012_e2","SWR2012_e2_8",9,1,"pure","Strong",19,1331,"Include",20
"SWR2012_e2","SWR2012_e2_8",9,1,"pure","Strong",19,1177,"Include",21
"SWR2012_e2","SWR2012_e2_8",9,0,"pure","Strong",4,3820,"Include",22
"SWR2012_e2","SWR2012_e2_8",9,0,"pure","Strong",20,927,"Include",23
"SWR2012_e2","SWR2012_e2_8",9,0,"pure","Strong",3,1680,"Include",24
"SWR2012_e2","SWR2012_e2_8",10,0,"pure","Strong",17,5150,"Include",1
"SWR2012_e2","SWR2012_e2_8",10,0,"pure","Strong",18,2316,"Include",2
"SWR2012_e2","SWR2012_e2_8",10,1,"pure","Strong",17,1928,"Include",3
"SWR2012_e2","SWR2012_e2_8",10,0,"pure","Strong",4,1671,"Include",4
"SWR2012_e2","SWR2012_e2_8",10,0,"pure","Strong",19,1609,"Include",5
"SWR2012_e2","SWR2012_e2_8",10,1,"pure","Strong",19,1563,"Include",6
"SWR2012_e2","SWR2012_e2_8",10,0,"pure","Strong",2,1528,"Include",7
"SWR2012_e2","SWR2012_e2_8",10,1,"pure","Strong",3,1699,"Include",8
"SWR2012_e2","SWR2012_e2_8",10,1,"pure","Strong",2,1608,"Include",9
"SWR2012_e2","SWR2012_e2_8",10,0,"pure","Strong",3,1027,"Include",10
"SWR2012_e2","SWR2012_e2_8",10,0,"pure","Strong",2,1976,"Include",11
"SWR2012_e2","SWR2012_e2_8",10,1,"pure","Strong",17,1652,"Include",12
"SWR2012_e2","SWR2012_e2_8",10,1,"pure","Strong",19,1849,"Include",13
"SWR2012_e2","SWR2012_e2_8",10,1,"pure","Strong",18,1618,"Include",14
"SWR2012_e2","SWR2012_e2_8",10,1,"pure","Strong",4,3024,"Include",15
"SWR2012_e2","SWR2012_e2_8",10,0,"pure","Strong",18,2262,"Include",16
"SWR2012_e2","SWR2012_e2_8",10,0,"pure","Strong",19,2386,"Include",17
"SWR2012_e2","SWR2012_e2_8",10,0,"pure","Strong",4,1313,"Include",18
"SWR2012_e2","SWR2012_e2_8",10,1,"pure","Strong",3,998,"Include",19
"SWR2012_e2","SWR2012_e2_8",10,0,"pure","Strong",4,1160,"Include",20
"SWR2012_e2","SWR2012_e2_8",10,0,"pure","Strong",19,1662,"Include",21
"SWR2012_e2","SWR2012_e2_8",10,1,"pure","Strong",20,2550,"Include",22
"SWR2012_e2","SWR2012_e2_8",10,1,"pure","Strong",18,2675,"Include",23
"SWR2012_e2","SWR2012_e2_8",10,1,"pure","Strong",19,962,"Include",24
"SWR2012_e2","SWR2012_e2_8",11,0,"pure","Weak",4,2516,"Include",1
"SWR2012_e2","SWR2012_e2_8",11,1,"pure","Weak",19,1133,"Include",2
"SWR2012_e2","SWR2012_e2_8",11,1,"pure","Weak",16,1904,"Include",3
"SWR2012_e2","SWR2012_e2_8",11,1,"pure","Weak",17,1088,"Include",4
"SWR2012_e2","SWR2012_e2_8",11,0,"pure","Weak",4,1249,"Include",5
"SWR2012_e2","SWR2012_e2_8",11,0,"pure","Weak",8,1591,"Include",6
"SWR2012_e2","SWR2012_e2_8",11,1,"pure","Weak",15,2701,"Include",7
"SWR2012_e2","SWR2012_e2_8",11,1,"pure","Weak",20,2216,"Include",8
"SWR2012_e2","SWR2012_e2_8",11,0,"pure","Weak",2,1625,"Include",9
"SWR2012_e2","SWR2012_e2_8",11,1,"pure","Weak",9,2182,"Include",10
"SWR2012_e2","SWR2012_e2_8",11,1,"pure","Weak",13,2002,"Include",11
"SWR2012_e2","SWR2012_e2_8",11,0,"pure","Weak",16,2746,"Include",12
"SWR2012_e2","SWR2012_e2_8",11,1,"pure","Weak",15,1348,"Include",13
"SWR2012_e2","SWR2012_e2_8",11,0,"pure","Weak",17,1669,"Include",14
"SWR2012_e2","SWR2012_e2_8",11,0,"pure","Weak",12,2701,"Include",15
"SWR2012_e2","SWR2012_e2_8",11,1,"pure","Weak",17,2164,"Include",16
"SWR2012_e2","SWR2012_e2_8",11,1,"pure","Weak",20,1517,"Include",17
"SWR2012_e2","SWR2012_e2_8",11,0,"pure","Weak",4,1832,"Include",18
"SWR2012_e2","SWR2012_e2_8",11,1,"pure","Weak",3,1850,"Include",19
"SWR2012_e2","SWR2012_e2_8",11,0,"pure","Weak",3,1591,"Include",20
"SWR2012_e2","SWR2012_e2_8",11,0,"pure","Weak",4,3992,"Include",21
"SWR2012_e2","SWR2012_e2_8",11,0,"pure","Weak",3,2729,"Include",22
"SWR2012_e2","SWR2012_e2_8",11,0,"pure","Weak",4,919,"Include",23
"SWR2012_e2","SWR2012_e2_8",11,1,"pure","Weak",19,1204,"Include",24
"SWR2012_e2","SWR2012_e2_8",12,1,"pure","Weak",2,1539,"Include",1
"SWR2012_e2","SWR2012_e2_8",12,1,"pure","Weak",18,1206,"Include",2
"SWR2012_e2","SWR2012_e2_8",12,0,"pure","Weak",3,1347,"Include",3
"SWR2012_e2","SWR2012_e2_8",12,0,"pure","Weak",17,1375,"Include",4
"SWR2012_e2","SWR2012_e2_8",12,1,"pure","Weak",2,2538,"Include",5
"SWR2012_e2","SWR2012_e2_8",12,1,"pure","Weak",3,2173,"Include",6
"SWR2012_e2","SWR2012_e2_8",12,1,"pure","Weak",3,1141,"Include",7
"SWR2012_e2","SWR2012_e2_8",12,0,"pure","Weak",17,1330,"Include",8
"SWR2012_e2","SWR2012_e2_8",12,0,"pure","Weak",17,1447,"Include",9
"SWR2012_e2","SWR2012_e2_8",12,1,"pure","Weak",19,1473,"Include",10
"SWR2012_e2","SWR2012_e2_8",12,1,"pure","Weak",14,1715,"Include",11
"SWR2012_e2","SWR2012_e2_8",12,1,"pure","Weak",15,1439,"Include",12
"SWR2012_e2","SWR2012_e2_8",12,1,"pure","Weak",11,2728,"Include",13
"SWR2012_e2","SWR2012_e2_8",12,0,"pure","Weak",1,1857,"Include",14
"SWR2012_e2","SWR2012_e2_8",12,0,"pure","Weak",19,3115,"Include",15
"SWR2012_e2","SWR2012_e2_8",12,0,"pure","Weak",16,1545,"Include",16
"SWR2012_e2","SWR2012_e2_8",12,0,"pure","Weak",3,1779,"Include",17
"SWR2012_e2","SWR2012_e2_8",12,0,"pure","Weak",4,3113,"Include",18
"SWR2012_e2","SWR2012_e2_8",12,1,"pure","Weak",4,1859,"Include",19
"SWR2012_e2","SWR2012_e2_8",12,0,"pure","Weak",2,1463,"Include",20
"SWR2012_e2","SWR2012_e2_8",12,1,"pure","Weak",17,1903,"Include",21
"SWR2012_e2","SWR2012_e2_8",12,1,"pure","Weak",15,1258,"Include",22
"SWR2012_e2","SWR2012_e2_8",12,0,"pure","Weak",14,1859,"Include",23
"SWR2012_e2","SWR2012_e2_8",12,0,"pure","Weak",13,1080,"Include",24
"SWR2012_e2","SWR2012_e2_9",1,1,"pure","Strong",2,6318,"Exclude",1
"SWR2012_e2","SWR2012_e2_9",1,1,"pure","Strong",20,1478,"Exclude",2
"SWR2012_e2","SWR2012_e2_9",1,1,"pure","Strong",20,946,"Exclude",3
"SWR2012_e2","SWR2012_e2_9",1,0,"pure","Strong",1,1309,"Exclude",4
"SWR2012_e2","SWR2012_e2_9",1,1,"pure","Strong",20,1679,"Exclude",5
"SWR2012_e2","SWR2012_e2_9",1,0,"pure","Strong",1,1592,"Exclude",6
"SWR2012_e2","SWR2012_e2_9",1,1,"pure","Strong",1,2004,"Exclude",7
"SWR2012_e2","SWR2012_e2_9",1,1,"pure","Strong",7,3091,"Exclude",8
"SWR2012_e2","SWR2012_e2_9",1,1,"pure","Strong",20,1270,"Exclude",9
"SWR2012_e2","SWR2012_e2_9",1,0,"pure","Strong",1,1385,"Exclude",10
"SWR2012_e2","SWR2012_e2_9",1,0,"pure","Strong",1,781,"Exclude",11
"SWR2012_e2","SWR2012_e2_9",1,1,"pure","Strong",20,754,"Exclude",12
"SWR2012_e2","SWR2012_e2_9",1,0,"pure","Strong",1,1374,"Exclude",13
"SWR2012_e2","SWR2012_e2_9",1,0,"pure","Strong",1,828,"Exclude",14
"SWR2012_e2","SWR2012_e2_9",1,0,"pure","Strong",1,700,"Exclude",15
"SWR2012_e2","SWR2012_e2_9",1,1,"pure","Strong",20,678,"Exclude",16
"SWR2012_e2","SWR2012_e2_9",1,1,"pure","Strong",20,1248,"Exclude",17
"SWR2012_e2","SWR2012_e2_9",1,0,"pure","Strong",1,918,"Exclude",18
"SWR2012_e2","SWR2012_e2_9",1,1,"pure","Strong",20,896,"Exclude",19
"SWR2012_e2","SWR2012_e2_9",1,1,"pure","Strong",1,1027,"Exclude",20
"SWR2012_e2","SWR2012_e2_9",1,0,"pure","Strong",1,1917,"Exclude",21
"SWR2012_e2","SWR2012_e2_9",1,0,"pure","Strong",1,1322,"Exclude",22
"SWR2012_e2","SWR2012_e2_9",1,0,"pure","Strong",1,1646,"Exclude",23
"SWR2012_e2","SWR2012_e2_9",1,0,"pure","Strong",1,1084,"Exclude",24
"SWR2012_e2","SWR2012_e2_9",2,0,"pure","Weak",1,2229,"Exclude",1
"SWR2012_e2","SWR2012_e2_9",2,0,"pure","Weak",1,828,"Exclude",2
"SWR2012_e2","SWR2012_e2_9",2,0,"pure","Weak",13,1856,"Exclude",3
"SWR2012_e2","SWR2012_e2_9",2,0,"pure","Weak",1,1797,"Exclude",4
"SWR2012_e2","SWR2012_e2_9",2,1,"pure","Weak",1,954,"Exclude",5
"SWR2012_e2","SWR2012_e2_9",2,0,"pure","Weak",1,692,"Exclude",6
"SWR2012_e2","SWR2012_e2_9",2,1,"pure","Weak",20,1082,"Exclude",7
"SWR2012_e2","SWR2012_e2_9",2,0,"pure","Weak",1,839,"Exclude",8
"SWR2012_e2","SWR2012_e2_9",2,0,"pure","Weak",1,1057,"Exclude",9
"SWR2012_e2","SWR2012_e2_9",2,1,"pure","Weak",20,1000,"Exclude",10
"SWR2012_e2","SWR2012_e2_9",2,0,"pure","Weak",1,1453,"Exclude",11
"SWR2012_e2","SWR2012_e2_9",2,0,"pure","Weak",4,1417,"Exclude",12
"SWR2012_e2","SWR2012_e2_9",2,1,"pure","Weak",20,1420,"Exclude",13
"SWR2012_e2","SWR2012_e2_9",2,1,"pure","Weak",20,752,"Exclude",14
"SWR2012_e2","SWR2012_e2_9",2,1,"pure","Weak",17,3208,"Exclude",15
"SWR2012_e2","SWR2012_e2_9",2,1,"pure","Weak",14,4234,"Exclude",16
"SWR2012_e2","SWR2012_e2_9",2,1,"pure","Weak",1,1685,"Exclude",17
"SWR2012_e2","SWR2012_e2_9",2,1,"pure","Weak",1,954,"Exclude",18
"SWR2012_e2","SWR2012_e2_9",2,0,"pure","Weak",13,2166,"Exclude",19
"SWR2012_e2","SWR2012_e2_9",2,0,"pure","Weak",4,1968,"Exclude",20
"SWR2012_e2","SWR2012_e2_9",2,1,"pure","Weak",2,3131,"Exclude",21
"SWR2012_e2","SWR2012_e2_9",2,1,"pure","Weak",20,784,"Exclude",22
"SWR2012_e2","SWR2012_e2_9",2,1,"pure","Weak",17,2706,"Exclude",23
"SWR2012_e2","SWR2012_e2_9",2,0,"pure","Weak",4,1573,"Exclude",24
"SWR2012_e2","SWR2012_e2_9",3,1,"pure","Strong",5,6034,"Exclude",1
"SWR2012_e2","SWR2012_e2_9",3,1,"pure","Strong",3,1443,"Include",2
"SWR2012_e2","SWR2012_e2_9",3,0,"pure","Strong",1,1813,"Include",3
"SWR2012_e2","SWR2012_e2_9",3,0,"pure","Strong",1,1019,"Include",4
"SWR2012_e2","SWR2012_e2_9",3,1,"pure","Strong",20,872,"Include",5
"SWR2012_e2","SWR2012_e2_9",3,1,"pure","Strong",20,722,"Include",6
"SWR2012_e2","SWR2012_e2_9",3,1,"pure","Strong",20,1439,"Include",7
"SWR2012_e2","SWR2012_e2_9",3,0,"pure","Strong",1,1520,"Include",8
"SWR2012_e2","SWR2012_e2_9",3,0,"pure","Strong",1,1527,"Include",9
"SWR2012_e2","SWR2012_e2_9",3,0,"pure","Strong",1,1500,"Include",10
"SWR2012_e2","SWR2012_e2_9",3,1,"pure","Strong",20,899,"Include",11
"SWR2012_e2","SWR2012_e2_9",3,0,"pure","Strong",1,872,"Include",12
"SWR2012_e2","SWR2012_e2_9",3,0,"pure","Strong",1,755,"Include",13
"SWR2012_e2","SWR2012_e2_9",3,0,"pure","Strong",1,657,"Include",14
"SWR2012_e2","SWR2012_e2_9",3,0,"pure","Strong",1,670,"Include",15
"SWR2012_e2","SWR2012_e2_9",3,1,"pure","Strong",20,1118,"Include",16
"SWR2012_e2","SWR2012_e2_9",3,0,"pure","Strong",1,678,"Include",17
"SWR2012_e2","SWR2012_e2_9",3,1,"pure","Strong",20,755,"Include",18
"SWR2012_e2","SWR2012_e2_9",3,0,"pure","Strong",1,760,"Include",19
"SWR2012_e2","SWR2012_e2_9",3,1,"pure","Strong",20,678,"Include",20
"SWR2012_e2","SWR2012_e2_9",3,1,"pure","Strong",5,1985,"Include",21
"SWR2012_e2","SWR2012_e2_9",3,1,"pure","Strong",20,1003,"Include",22
"SWR2012_e2","SWR2012_e2_9",3,1,"pure","Strong",20,853,"Include",23
"SWR2012_e2","SWR2012_e2_9",3,0,"pure","Strong",1,1415,"Include",24
"SWR2012_e2","SWR2012_e2_9",4,0,"pure","Weak",3,3755,"Include",1
"SWR2012_e2","SWR2012_e2_9",4,0,"pure","Weak",1,1316,"Include",2
"SWR2012_e2","SWR2012_e2_9",4,1,"pure","Weak",15,1904,"Include",3
"SWR2012_e2","SWR2012_e2_9",4,0,"pure","Weak",5,1676,"Include",4
"SWR2012_e2","SWR2012_e2_9",4,1,"pure","Weak",18,1494,"Include",5
"SWR2012_e2","SWR2012_e2_9",4,0,"pure","Weak",2,2099,"Include",6
"SWR2012_e2","SWR2012_e2_9",4,0,"pure","Weak",1,1300,"Include",7
"SWR2012_e2","SWR2012_e2_9",4,0,"pure","Weak",1,962,"Include",8
"SWR2012_e2","SWR2012_e2_9",4,1,"pure","Weak",1,1233,"Include",9
"SWR2012_e2","SWR2012_e2_9",4,0,"pure","Weak",1,1014,"Include",10
"SWR2012_e2","SWR2012_e2_9",4,1,"pure","Weak",20,869,"Include",11
"SWR2012_e2","SWR2012_e2_9",4,1,"pure","Weak",20,1057,"Include",12
"SWR2012_e2","SWR2012_e2_9",4,0,"pure","Weak",1,1041,"Include",13
"SWR2012_e2","SWR2012_e2_9",4,0,"pure","Weak",1,936,"Include",14
"SWR2012_e2","SWR2012_e2_9",4,0,"pure","Weak",1,1107,"Include",15
"SWR2012_e2","SWR2012_e2_9",4,1,"pure","Weak",16,1391,"Include",16
"SWR2012_e2","SWR2012_e2_9",4,1,"pure","Weak",20,1107,"Include",17
"SWR2012_e2","SWR2012_e2_9",4,0,"pure","Weak",1,1598,"Include",18
"SWR2012_e2","SWR2012_e2_9",4,1,"pure","Weak",14,1882,"Include",19
"SWR2012_e2","SWR2012_e2_9",4,1,"pure","Weak",2,3184,"Include",20
"SWR2012_e2","SWR2012_e2_9",4,0,"pure","Weak",3,1229,"Include",21
"SWR2012_e2","SWR2012_e2_9",4,1,"pure","Weak",13,2021,"Include",22
"SWR2012_e2","SWR2012_e2_9",4,1,"pure","Weak",9,1874,"Include",23
"SWR2012_e2","SWR2012_e2_9",4,1,"pure","Weak",7,2651,"Include",24
"SWR2012_e2","SWR2012_e2_9",5,1,"pure","Weak",16,2775,"Include",1
"SWR2012_e2","SWR2012_e2_9",5,0,"pure","Weak",1,1726,"Include",2
"SWR2012_e2","SWR2012_e2_9",5,1,"pure","Weak",18,1590,"Include",3
"SWR2012_e2","SWR2012_e2_9",5,1,"pure","Weak",4,789,"Include",4
"SWR2012_e2","SWR2012_e2_9",5,1,"pure","Weak",20,959,"Include",5
"SWR2012_e2","SWR2012_e2_9",5,1,"pure","Weak",15,2065,"Include",6
"SWR2012_e2","SWR2012_e2_9",5,0,"pure","Weak",5,1417,"Include",7
"SWR2012_e2","SWR2012_e2_9",5,1,"pure","Weak",18,1322,"Include",8
"SWR2012_e2","SWR2012_e2_9",5,1,"pure","Weak",20,882,"Include",9
"SWR2012_e2","SWR2012_e2_9",5,0,"pure","Weak",1,1664,"Include",10
"SWR2012_e2","SWR2012_e2_9",5,1,"pure","Weak",20,853,"Include",11
"SWR2012_e2","SWR2012_e2_9",5,0,"pure","Weak",3,1578,"Include",12
"SWR2012_e2","SWR2012_e2_9",5,0,"pure","Weak",2,932,"Include",13
"SWR2012_e2","SWR2012_e2_9",5,1,"pure","Weak",18,1224,"Include",14
"SWR2012_e2","SWR2012_e2_9",5,1,"pure","Weak",20,1262,"Include",15
"SWR2012_e2","SWR2012_e2_9",5,0,"pure","Weak",19,1115,"Include",16
"SWR2012_e2","SWR2012_e2_9",5,0,"pure","Weak",3,1472,"Include",17
"SWR2012_e2","SWR2012_e2_9",5,1,"pure","Weak",20,1202,"Include",18
"SWR2012_e2","SWR2012_e2_9",5,0,"pure","Weak",1,1393,"Include",19
"SWR2012_e2","SWR2012_e2_9",5,0,"pure","Weak",2,875,"Include",20
"SWR2012_e2","SWR2012_e2_9",5,0,"pure","Weak",1,1432,"Include",21
"SWR2012_e2","SWR2012_e2_9",5,1,"pure","Weak",20,859,"Include",22
"SWR2012_e2","SWR2012_e2_9",5,0,"pure","Weak",4,1800,"Include",23
"SWR2012_e2","SWR2012_e2_9",5,0,"pure","Weak",3,1709,"Include",24
"SWR2012_e2","SWR2012_e2_9",6,0,"pure","Strong",2,1825,"Include",1
"SWR2012_e2","SWR2012_e2_9",6,0,"pure","Strong",3,1298,"Include",2
"SWR2012_e2","SWR2012_e2_9",6,1,"pure","Strong",1,1232,"Include",3
"SWR2012_e2","SWR2012_e2_9",6,0,"pure","Strong",6,1710,"Include",4
"SWR2012_e2","SWR2012_e2_9",6,1,"pure","Strong",19,2433,"Include",5
"SWR2012_e2","SWR2012_e2_9",6,1,"pure","Strong",13,1974,"Include",6
"SWR2012_e2","SWR2012_e2_9",6,0,"pure","Strong",5,1047,"Include",7
"SWR2012_e2","SWR2012_e2_9",6,1,"pure","Strong",3,1022,"Include",8
"SWR2012_e2","SWR2012_e2_9",6,0,"pure","Strong",1,927,"Include",9
"SWR2012_e2","SWR2012_e2_9",6,0,"pure","Strong",13,2286,"Include",10
"SWR2012_e2","SWR2012_e2_9",6,0,"pure","Strong",4,2141,"Include",11
"SWR2012_e2","SWR2012_e2_9",6,0,"pure","Strong",15,1166,"Include",12
"SWR2012_e2","SWR2012_e2_9",6,0,"pure","Strong",3,848,"Include",13
"SWR2012_e2","SWR2012_e2_9",6,1,"pure","Strong",11,1762,"Include",14
"SWR2012_e2","SWR2012_e2_9",6,1,"pure","Strong",3,1334,"Include",15
"SWR2012_e2","SWR2012_e2_9",6,0,"pure","Strong",5,1532,"Include",16
"SWR2012_e2","SWR2012_e2_9",6,0,"pure","Strong",8,1470,"Include",17
"SWR2012_e2","SWR2012_e2_9",6,1,"pure","Strong",20,3020,"Include",18
"SWR2012_e2","SWR2012_e2_9",6,1,"pure","Strong",20,722,"Include",19
"SWR2012_e2","SWR2012_e2_9",6,0,"pure","Strong",9,1615,"Include",20
"SWR2012_e2","SWR2012_e2_9",6,1,"pure","Strong",19,1330,"Include",21
"SWR2012_e2","SWR2012_e2_9",6,1,"pure","Strong",2,1429,"Include",22
"SWR2012_e2","SWR2012_e2_9",6,1,"pure","Strong",5,1765,"Include",23
"SWR2012_e2","SWR2012_e2_9",6,1,"pure","Strong",20,1341,"Include",24
"SWR2012_e2","SWR2012_e2_9",7,1,"pure","Weak",14,2423,"Include",1
"SWR2012_e2","SWR2012_e2_9",7,0,"pure","Weak",17,1611,"Include",2
"SWR2012_e2","SWR2012_e2_9",7,1,"pure","Weak",3,986,"Include",3
"SWR2012_e2","SWR2012_e2_9",7,1,"pure","Weak",8,738,"Include",4
"SWR2012_e2","SWR2012_e2_9",7,1,"pure","Weak",2,697,"Include",5
"SWR2012_e2","SWR2012_e2_9",7,0,"pure","Weak",2,634,"Include",6
"SWR2012_e2","SWR2012_e2_9",7,0,"pure","Weak",1,1063,"Include",7
"SWR2012_e2","SWR2012_e2_9",7,1,"pure","Weak",20,930,"Include",8
"SWR2012_e2","SWR2012_e2_9",7,1,"pure","Weak",20,1967,"Include",9
"SWR2012_e2","SWR2012_e2_9",7,0,"pure","Weak",4,2649,"Include",10
"SWR2012_e2","SWR2012_e2_9",7,1,"pure","Weak",11,1827,"Include",11
"SWR2012_e2","SWR2012_e2_9",7,1,"pure","Weak",3,997,"Include",12
"SWR2012_e2","SWR2012_e2_9",7,1,"pure","Weak",10,1208,"Include",13
"SWR2012_e2","SWR2012_e2_9",7,0,"pure","Weak",11,1219,"Include",14
"SWR2012_e2","SWR2012_e2_9",7,0,"pure","Weak",13,908,"Include",15
"SWR2012_e2","SWR2012_e2_9",7,1,"pure","Weak",18,1819,"Include",16
"SWR2012_e2","SWR2012_e2_9",7,0,"pure","Weak",3,1980,"Include",17
"SWR2012_e2","SWR2012_e2_9",7,1,"pure","Weak",19,1183,"Include",18
"SWR2012_e2","SWR2012_e2_9",7,0,"pure","Weak",3,826,"Include",19
"SWR2012_e2","SWR2012_e2_9",7,1,"pure","Weak",10,3022,"Include",20
"SWR2012_e2","SWR2012_e2_9",7,0,"pure","Weak",11,902,"Include",21
"SWR2012_e2","SWR2012_e2_9",7,0,"pure","Weak",8,1115,"Include",22
"SWR2012_e2","SWR2012_e2_9",7,0,"pure","Weak",14,2305,"Include",23
"SWR2012_e2","SWR2012_e2_9",7,0,"pure","Weak",5,1822,"Include",24
"SWR2012_e2","SWR2012_e2_9",8,0,"pure","Weak",1,2448,"Include",1
"SWR2012_e2","SWR2012_e2_9",8,1,"pure","Weak",19,1246,"Include",2
"SWR2012_e2","SWR2012_e2_9",8,1,"pure","Weak",2,986,"Include",3
"SWR2012_e2","SWR2012_e2_9",8,1,"pure","Weak",4,992,"Include",4
"SWR2012_e2","SWR2012_e2_9",8,0,"pure","Weak",8,744,"Include",5
"SWR2012_e2","SWR2012_e2_9",8,1,"pure","Weak",10,700,"Include",6
"SWR2012_e2","SWR2012_e2_9",8,0,"pure","Weak",8,1227,"Include",7
"SWR2012_e2","SWR2012_e2_9",8,0,"pure","Weak",13,869,"Include",8
"SWR2012_e2","SWR2012_e2_9",8,0,"pure","Weak",10,1041,"Include",9
"SWR2012_e2","SWR2012_e2_9",8,1,"pure","Weak",17,1208,"Include",10
"SWR2012_e2","SWR2012_e2_9",8,0,"pure","Weak",3,937,"Include",11
"SWR2012_e2","SWR2012_e2_9",8,0,"pure","Weak",2,744,"Include",12
"SWR2012_e2","SWR2012_e2_9",8,1,"pure","Weak",1,687,"Include",13
"SWR2012_e2","SWR2012_e2_9",8,0,"pure","Weak",1,780,"Include",14
"SWR2012_e2","SWR2012_e2_9",8,1,"pure","Weak",8,1967,"Include",15
"SWR2012_e2","SWR2012_e2_9",8,1,"pure","Weak",12,1213,"Include",16
"SWR2012_e2","SWR2012_e2_9",8,0,"pure","Weak",8,913,"Include",17
"SWR2012_e2","SWR2012_e2_9",8,0,"pure","Weak",7,850,"Include",18
"SWR2012_e2","SWR2012_e2_9",8,0,"pure","Weak",16,1218,"Include",19
"SWR2012_e2","SWR2012_e2_9",8,1,"pure","Weak",7,787,"Include",20
"SWR2012_e2","SWR2012_e2_9",8,1,"pure","Weak",17,959,"Include",21
"SWR2012_e2","SWR2012_e2_9",8,1,"pure","Weak",3,604,"Include",22
"SWR2012_e2","SWR2012_e2_9",8,1,"pure","Weak",2,900,"Include",23
"SWR2012_e2","SWR2012_e2_9",8,0,"pure","Weak",7,5277,"Include",24
"SWR2012_e2","SWR2012_e2_9",9,1,"pure","Weak",13,2112,"Include",1
"SWR2012_e2","SWR2012_e2_9",9,0,"pure","Weak",3,1442,"Include",2
"SWR2012_e2","SWR2012_e2_9",9,1,"pure","Weak",2,607,"Include",3
"SWR2012_e2","SWR2012_e2_9",9,0,"pure","Weak",3,1085,"Include",4
"SWR2012_e2","SWR2012_e2_9",9,0,"pure","Weak",1,1795,"Include",5
"SWR2012_e2","SWR2012_e2_9",9,0,"pure","Weak",9,2251,"Include",6
"SWR2012_e2","SWR2012_e2_9",9,0,"pure","Weak",17,1271,"Include",7
"SWR2012_e2","SWR2012_e2_9",9,0,"pure","Weak",2,929,"Include",8
"SWR2012_e2","SWR2012_e2_9",9,1,"pure","Weak",17,960,"Include",9
"SWR2012_e2","SWR2012_e2_9",9,1,"pure","Weak",7,744,"Include",10
"SWR2012_e2","SWR2012_e2_9",9,0,"pure","Weak",9,482,"Include",11
"SWR2012_e2","SWR2012_e2_9",9,1,"pure","Weak",11,640,"Include",12
"SWR2012_e2","SWR2012_e2_9",9,0,"pure","Weak",8,695,"Include",13
"SWR2012_e2","SWR2012_e2_9",9,1,"pure","Weak",3,975,"Include",14
"SWR2012_e2","SWR2012_e2_9",9,0,"pure","Weak",2,597,"Include",15
"SWR2012_e2","SWR2012_e2_9",9,1,"pure","Weak",2,845,"Include",16
"SWR2012_e2","SWR2012_e2_9",9,1,"pure","Weak",1,606,"Include",17
"SWR2012_e2","SWR2012_e2_9",9,0,"pure","Weak",1,1157,"Include",18
"SWR2012_e2","SWR2012_e2_9",9,0,"pure","Weak",1,665,"Include",19
"SWR2012_e2","SWR2012_e2_9",9,1,"pure","Weak",1,531,"Include",20
"SWR2012_e2","SWR2012_e2_9",9,1,"pure","Weak",19,1203,"Include",21
"SWR2012_e2","SWR2012_e2_9",9,1,"pure","Weak",17,1320,"Include",22
"SWR2012_e2","SWR2012_e2_9",9,1,"pure","Weak",13,689,"Include",23
"SWR2012_e2","SWR2012_e2_9",9,0,"pure","Weak",8,686,"Include",24
"SWR2012_e2","SWR2012_e2_9",10,1,"pure","Strong",18,2076,"Include",1
"SWR2012_e2","SWR2012_e2_9",10,0,"pure","Strong",3,1006,"Include",2
"SWR2012_e2","SWR2012_e2_9",10,0,"pure","Strong",2,548,"Include",3
"SWR2012_e2","SWR2012_e2_9",10,1,"pure","Strong",1,641,"Include",4
"SWR2012_e2","SWR2012_e2_9",10,1,"pure","Strong",1,733,"Include",5
"SWR2012_e2","SWR2012_e2_9",10,0,"pure","Strong",1,1058,"Include",6
"SWR2012_e2","SWR2012_e2_9",10,1,"pure","Strong",3,849,"Include",7
"SWR2012_e2","SWR2012_e2_9",10,1,"pure","Strong",2,810,"Include",8
"SWR2012_e2","SWR2012_e2_9",10,1,"pure","Strong",1,1069,"Include",9
"SWR2012_e2","SWR2012_e2_9",10,1,"pure","Strong",19,1225,"Include",10
"SWR2012_e2","SWR2012_e2_9",10,0,"pure","Strong",13,2777,"Include",11
"SWR2012_e2","SWR2012_e2_9",10,1,"pure","Strong",4,746,"Include",12
"SWR2012_e2","SWR2012_e2_9",10,0,"pure","Strong",3,648,"Include",13
"SWR2012_e2","SWR2012_e2_9",10,0,"pure","Strong",5,791,"Include",14
"SWR2012_e2","SWR2012_e2_9",10,0,"pure","Strong",3,782,"Include",15
"SWR2012_e2","SWR2012_e2_9",10,0,"pure","Strong",4,444,"Include",16
"SWR2012_e2","SWR2012_e2_9",10,0,"pure","Strong",6,1265,"Include",17
"SWR2012_e2","SWR2012_e2_9",10,0,"pure","Strong",3,583,"Include",18
"SWR2012_e2","SWR2012_e2_9",10,1,"pure","Strong",2,504,"Include",19
"SWR2012_e2","SWR2012_e2_9",10,1,"pure","Strong",2,990,"Include",20
"SWR2012_e2","SWR2012_e2_9",10,1,"pure","Strong",20,1509,"Include",21
"SWR2012_e2","SWR2012_e2_9",10,0,"pure","Strong",1,976,"Include",22
"SWR2012_e2","SWR2012_e2_9",10,1,"pure","Strong",5,1058,"Include",23
"SWR2012_e2","SWR2012_e2_9",10,0,"pure","Strong",3,894,"Include",24
"SWR2012_e2","SWR2012_e2_9",11,0,"pure","Strong",3,2050,"Include",1
"SWR2012_e2","SWR2012_e2_9",11,1,"pure","Strong",20,1153,"Include",2
"SWR2012_e2","SWR2012_e2_9",11,1,"pure","Strong",5,2138,"Include",3
"SWR2012_e2","SWR2012_e2_9",11,0,"pure","Strong",3,574,"Include",4
"SWR2012_e2","SWR2012_e2_9",11,0,"pure","Strong",2,872,"Include",5
"SWR2012_e2","SWR2012_e2_9",11,0,"pure","Strong",1,624,"Include",6
"SWR2012_e2","SWR2012_e2_9",11,1,"pure","Strong",1,1118,"Include",7
"SWR2012_e2","SWR2012_e2_9",11,0,"pure","Strong",2,591,"Include",8
"SWR2012_e2","SWR2012_e2_9",11,1,"pure","Strong",5,604,"Include",9
"SWR2012_e2","SWR2012_e2_9",11,1,"pure","Strong",14,2318,"Include",10
"SWR2012_e2","SWR2012_e2_9",11,0,"pure","Strong",4,1525,"Include",11
"SWR2012_e2","SWR2012_e2_9",11,0,"pure","Strong",5,618,"Include",12
"SWR2012_e2","SWR2012_e2_9",11,0,"pure","Strong",3,689,"Include",13
"SWR2012_e2","SWR2012_e2_9",11,1,"pure","Strong",4,529,"Include",14
"SWR2012_e2","SWR2012_e2_9",11,0,"pure","Strong",6,872,"Include",15
"SWR2012_e2","SWR2012_e2_9",11,1,"pure","Strong",20,884,"Include",16
"SWR2012_e2","SWR2012_e2_9",11,0,"pure","Strong",7,689,"Include",17
"SWR2012_e2","SWR2012_e2_9",11,0,"pure","Strong",4,509,"Include",18
"SWR2012_e2","SWR2012_e2_9",11,1,"pure","Strong",14,1823,"Include",19
"SWR2012_e2","SWR2012_e2_9",11,0,"pure","Strong",3,572,"Include",20
"SWR2012_e2","SWR2012_e2_9",11,1,"pure","Strong",2,1904,"Include",21
"SWR2012_e2","SWR2012_e2_9",11,1,"pure","Strong",20,2297,"Include",22
"SWR2012_e2","SWR2012_e2_9",11,1,"pure","Strong",5,896,"Include",23
"SWR2012_e2","SWR2012_e2_9",11,1,"pure","Strong",20,825,"Include",24
"SWR2012_e2","SWR2012_e2_9",12,1,"pure","Strong",4,1656,"Include",1
"SWR2012_e2","SWR2012_e2_9",12,0,"pure","Strong",3,905,"Include",2
"SWR2012_e2","SWR2012_e2_9",12,0,"pure","Strong",5,1873,"Include",3
"SWR2012_e2","SWR2012_e2_9",12,1,"pure","Strong",19,1295,"Include",4
"SWR2012_e2","SWR2012_e2_9",12,1,"pure","Strong",4,1513,"Include",5
"SWR2012_e2","SWR2012_e2_9",12,0,"pure","Strong",8,2010,"Include",6
"SWR2012_e2","SWR2012_e2_9",12,0,"pure","Strong",9,1049,"Include",7
"SWR2012_e2","SWR2012_e2_9",12,1,"pure","Strong",12,795,"Include",8
"SWR2012_e2","SWR2012_e2_9",12,1,"pure","Strong",14,1866,"Include",9
"SWR2012_e2","SWR2012_e2_9",12,1,"pure","Strong",19,1104,"Include",10
"SWR2012_e2","SWR2012_e2_9",12,0,"pure","Strong",3,1038,"Include",11
"SWR2012_e2","SWR2012_e2_9",12,1,"pure","Strong",20,1470,"Include",12
"SWR2012_e2","SWR2012_e2_9",12,1,"pure","Strong",12,3107,"Include",13
"SWR2012_e2","SWR2012_e2_9",12,1,"pure","Strong",10,940,"Include",14
"SWR2012_e2","SWR2012_e2_9",12,1,"pure","Strong",5,881,"Include",15
"SWR2012_e2","SWR2012_e2_9",12,0,"pure","Strong",3,1734,"Include",16
"SWR2012_e2","SWR2012_e2_9",12,0,"pure","Strong",8,746,"Include",17
"SWR2012_e2","SWR2012_e2_9",12,0,"pure","Strong",5,983,"Include",18
"SWR2012_e2","SWR2012_e2_9",12,0,"pure","Strong",9,1221,"Include",19
"SWR2012_e2","SWR2012_e2_9",12,0,"pure","Strong",10,845,"Include",20
"SWR2012_e2","SWR2012_e2_9",12,1,"pure","Strong",13,814,"Include",21
"SWR2012_e2","SWR2012_e2_9",12,0,"pure","Strong",8,1147,"Include",22
"SWR2012_e2","SWR2012_e2_9",12,0,"pure","Strong",13,894,"Include",23
"SWR2012_e2","SWR2012_e2_9",12,1,"pure","Strong",17,1654,"Include",24
"SWR2012_e2","SWR2012_e2_11",1,1,"pure","Strong",6,3444,"Exclude",1
"SWR2012_e2","SWR2012_e2_11",1,0,"pure","Strong",1,1696,"Exclude",2
"SWR2012_e2","SWR2012_e2_11",1,0,"pure","Strong",5,2175,"Exclude",3
"SWR2012_e2","SWR2012_e2_11",1,1,"pure","Strong",4,2090,"Exclude",4
"SWR2012_e2","SWR2012_e2_11",1,1,"pure","Strong",16,2599,"Exclude",5
"SWR2012_e2","SWR2012_e2_11",1,0,"pure","Strong",10,2994,"Exclude",6
"SWR2012_e2","SWR2012_e2_11",1,0,"pure","Strong",1,1668,"Exclude",7
"SWR2012_e2","SWR2012_e2_11",1,1,"pure","Strong",20,1958,"Exclude",8
"SWR2012_e2","SWR2012_e2_11",1,1,"pure","Strong",8,2082,"Exclude",9
"SWR2012_e2","SWR2012_e2_11",1,0,"pure","Strong",3,2010,"Exclude",10
"SWR2012_e2","SWR2012_e2_11",1,1,"pure","Strong",20,1522,"Exclude",11
"SWR2012_e2","SWR2012_e2_11",1,0,"pure","Strong",1,1250,"Exclude",12
"SWR2012_e2","SWR2012_e2_11",1,1,"pure","Strong",20,743,"Exclude",13
"SWR2012_e2","SWR2012_e2_11",1,1,"pure","Strong",13,1906,"Exclude",14
"SWR2012_e2","SWR2012_e2_11",1,0,"pure","Strong",4,1791,"Exclude",15
"SWR2012_e2","SWR2012_e2_11",1,0,"pure","Strong",4,2092,"Exclude",16
"SWR2012_e2","SWR2012_e2_11",1,1,"pure","Strong",20,1087,"Exclude",17
"SWR2012_e2","SWR2012_e2_11",1,1,"pure","Strong",20,765,"Exclude",18
"SWR2012_e2","SWR2012_e2_11",1,1,"pure","Strong",20,724,"Exclude",19
"SWR2012_e2","SWR2012_e2_11",1,0,"pure","Strong",5,2165,"Exclude",20
"SWR2012_e2","SWR2012_e2_11",1,0,"pure","Strong",6,1635,"Exclude",21
"SWR2012_e2","SWR2012_e2_11",1,0,"pure","Strong",7,1106,"Exclude",22
"SWR2012_e2","SWR2012_e2_11",1,1,"pure","Strong",20,761,"Exclude",23
"SWR2012_e2","SWR2012_e2_11",1,0,"pure","Strong",10,2549,"Exclude",24
"SWR2012_e2","SWR2012_e2_11",2,0,"pure","Weak",1,1421,"Exclude",1
"SWR2012_e2","SWR2012_e2_11",2,1,"pure","Weak",8,1457,"Exclude",2
"SWR2012_e2","SWR2012_e2_11",2,1,"pure","Weak",2,1873,"Exclude",3
"SWR2012_e2","SWR2012_e2_11",2,1,"pure","Weak",20,1479,"Exclude",4
"SWR2012_e2","SWR2012_e2_11",2,0,"pure","Weak",3,1468,"Exclude",5
"SWR2012_e2","SWR2012_e2_11",2,0,"pure","Weak",1,1270,"Exclude",6
"SWR2012_e2","SWR2012_e2_11",2,1,"pure","Weak",19,1897,"Exclude",7
"SWR2012_e2","SWR2012_e2_11",2,0,"pure","Weak",1,1324,"Exclude",8
"SWR2012_e2","SWR2012_e2_11",2,1,"pure","Weak",13,1896,"Exclude",9
"SWR2012_e2","SWR2012_e2_11",2,0,"pure","Weak",1,1282,"Exclude",10
"SWR2012_e2","SWR2012_e2_11",2,0,"pure","Weak",10,3035,"Exclude",11
"SWR2012_e2","SWR2012_e2_11",2,0,"pure","Weak",11,1833,"Exclude",12
"SWR2012_e2","SWR2012_e2_11",2,1,"pure","Weak",20,1655,"Exclude",13
"SWR2012_e2","SWR2012_e2_11",2,1,"pure","Weak",13,1364,"Exclude",14
"SWR2012_e2","SWR2012_e2_11",2,1,"pure","Weak",4,2590,"Exclude",15
"SWR2012_e2","SWR2012_e2_11",2,0,"pure","Weak",2,1499,"Exclude",16
"SWR2012_e2","SWR2012_e2_11",2,0,"pure","Weak",5,1884,"Exclude",17
"SWR2012_e2","SWR2012_e2_11",2,0,"pure","Weak",1,1436,"Exclude",18
"SWR2012_e2","SWR2012_e2_11",2,1,"pure","Weak",15,2299,"Exclude",19
"SWR2012_e2","SWR2012_e2_11",2,1,"pure","Weak",4,1906,"Exclude",20
"SWR2012_e2","SWR2012_e2_11",2,1,"pure","Weak",10,1968,"Exclude",21
"SWR2012_e2","SWR2012_e2_11",2,0,"pure","Weak",14,2281,"Exclude",22
"SWR2012_e2","SWR2012_e2_11",2,1,"pure","Weak",20,1761,"Exclude",23
