"exp","id","block","isold","condition1","condition2","rating","RT","excluding","trial"
"SWR2012_e1","SWR2012_e1_1",1,1,"pure","Strong",20,4875,"Exclude",1
"SWR2012_e1","SWR2012_e1_1",1,0,"pure","Strong",1,1092,"Exclude",2
"SWR2012_e1","SWR2012_e1_1",1,0,"pure","Strong",1,734,"Exclude",3
"SWR2012_e1","SWR2012_e1_1",1,1,"pure","Strong",20,1201,"Exclude",4
"SWR2012_e1","SWR2012_e1_1",1,1,"pure","Strong",20,642,"Exclude",5
"SWR2012_e1","SWR2012_e1_1",1,1,"pure","Strong",20,932,"Exclude",6
"SWR2012_e1","SWR2012_e1_1",1,1,"pure","Strong",20,767,"Exclude",7
"SWR2012_e1","SWR2012_e1_1",1,1,"pure","Strong",20,573,"Exclude",8
"SWR2012_e1","SWR2012_e1_1",1,0,"pure","Strong",1,700,"Exclude",9
"SWR2012_e1","SWR2012_e1_1",1,1,"pure","Strong",20,861,"Exclude",10
"SWR2012_e1","SWR2012_e1_1",1,1,"pure","Strong",17,2897,"Exclude",11
"SWR2012_e1","SWR2012_e1_1",1,0,"pure","Strong",1,1126,"Exclude",12
"SWR2012_e1","SWR2012_e1_1",1,0,"pure","Strong",1,1882,"Exclude",13
"SWR2012_e1","SWR2012_e1_1",1,1,"pure","Strong",20,1135,"Exclude",14
"SWR2012_e1","SWR2012_e1_1",1,0,"pure","Strong",6,2583,"Exclude",15
"SWR2012_e1","SWR2012_e1_1",1,1,"pure","Strong",17,2972,"Exclude",16
"SWR2012_e1","SWR2012_e1_1",1,0,"pure","Strong",3,2916,"Exclude",17
"SWR2012_e1","SWR2012_e1_1",1,1,"pure","Strong",20,772,"Exclude",18
"SWR2012_e1","SWR2012_e1_1",1,0,"pure","Strong",1,1223,"Exclude",19
"SWR2012_e1","SWR2012_e1_1",1,0,"pure","Strong",1,1940,"Exclude",20
"SWR2012_e1","SWR2012_e1_1",1,0,"pure","Strong",1,946,"Exclude",21
"SWR2012_e1","SWR2012_e1_1",1,0,"pure","Strong",1,699,"Exclude",22
"SWR2012_e1","SWR2012_e1_1",1,1,"pure","Strong",8,1531,"Exclude",23
"SWR2012_e1","SWR2012_e1_1",1,0,"pure","Strong",1,1105,"Exclude",24
"SWR2012_e1","SWR2012_e1_1",2,0,"pure","Weak",1,3587,"Exclude",1
"SWR2012_e1","SWR2012_e1_1",2,1,"pure","Weak",15,1653,"Exclude",2
"SWR2012_e1","SWR2012_e1_1",2,0,"pure","Weak",14,1576,"Exclude",3
"SWR2012_e1","SWR2012_e1_1",2,0,"pure","Weak",1,1193,"Exclude",4
"SWR2012_e1","SWR2012_e1_1",2,0,"pure","Weak",1,885,"Exclude",5
"SWR2012_e1","SWR2012_e1_1",2,0,"pure","Weak",1,601,"Exclude",6
"SWR2012_e1","SWR2012_e1_1",2,1,"pure","Weak",1,672,"Exclude",7
"SWR2012_e1","SWR2012_e1_1",2,1,"pure","Weak",13,1962,"Exclude",8
"SWR2012_e1","SWR2012_e1_1",2,0,"pure","Weak",1,661,"Exclude",9
"SWR2012_e1","SWR2012_e1_1",2,1,"pure","Weak",14,1262,"Exclude",10
"SWR2012_e1","SWR2012_e1_1",2,0,"pure","Weak",1,1100,"Exclude",11
"SWR2012_e1","SWR2012_e1_1",2,0,"pure","Weak",1,1175,"Exclude",12
"SWR2012_e1","SWR2012_e1_1",2,1,"pure","Weak",7,1231,"Exclude",13
"SWR2012_e1","SWR2012_e1_1",2,0,"pure","Weak",1,1207,"Exclude",14
"SWR2012_e1","SWR2012_e1_1",2,1,"pure","Weak",3,2507,"Exclude",15
"SWR2012_e1","SWR2012_e1_1",2,0,"pure","Weak",1,898,"Exclude",16
"SWR2012_e1","SWR2012_e1_1",2,1,"pure","Weak",13,1355,"Exclude",17
"SWR2012_e1","SWR2012_e1_1",2,1,"pure","Weak",1,1121,"Exclude",18
"SWR2012_e1","SWR2012_e1_1",2,1,"pure","Weak",17,991,"Exclude",19
"SWR2012_e1","SWR2012_e1_1",2,1,"pure","Weak",19,1073,"Exclude",20
"SWR2012_e1","SWR2012_e1_1",2,1,"pure","Weak",20,1315,"Exclude",21
"SWR2012_e1","SWR2012_e1_1",2,0,"pure","Weak",1,741,"Exclude",22
"SWR2012_e1","SWR2012_e1_1",2,0,"pure","Weak",13,1190,"Exclude",23
"SWR2012_e1","SWR2012_e1_1",2,1,"pure","Weak",1,1698,"Exclude",24
"SWR2012_e1","SWR2012_e1_1",3,0,"pure","Strong",1,1247,"Include",1
"SWR2012_e1","SWR2012_e1_1",3,0,"pure","Strong",14,2520,"Include",2
"SWR2012_e1","SWR2012_e1_1",3,1,"pure","Strong",18,953,"Include",3
"SWR2012_e1","SWR2012_e1_1",3,1,"pure","Strong",18,1249,"Include",4
"SWR2012_e1","SWR2012_e1_1",3,1,"pure","Strong",20,929,"Include",5
"SWR2012_e1","SWR2012_e1_1",3,0,"pure","Strong",3,2571,"Include",6
"SWR2012_e1","SWR2012_e1_1",3,0,"pure","Strong",20,703,"Include",7
"SWR2012_e1","SWR2012_e1_1",3,1,"pure","Strong",20,573,"Include",8
"SWR2012_e1","SWR2012_e1_1",3,1,"pure","Strong",20,478,"Include",9
"SWR2012_e1","SWR2012_e1_1",3,0,"pure","Strong",5,1823,"Include",10
"SWR2012_e1","SWR2012_e1_1",3,1,"pure","Strong",NA,2392,"Exclude",11
"SWR2012_e1","SWR2012_e1_1",3,1,"pure","Strong",20,1384,"Include",12
"SWR2012_e1","SWR2012_e1_1",3,0,"pure","Strong",3,2919,"Include",13
"SWR2012_e1","SWR2012_e1_1",3,1,"pure","Strong",17,1246,"Include",14
"SWR2012_e1","SWR2012_e1_1",3,0,"pure","Strong",4,1557,"Include",15
"SWR2012_e1","SWR2012_e1_1",3,0,"pure","Strong",18,1543,"Include",16
"SWR2012_e1","SWR2012_e1_1",3,0,"pure","Strong",1,1281,"Include",17
"SWR2012_e1","SWR2012_e1_1",3,0,"pure","Strong",1,858,"Include",18
"SWR2012_e1","SWR2012_e1_1",3,0,"pure","Strong",1,795,"Include",19
"SWR2012_e1","SWR2012_e1_1",3,1,"pure","Strong",20,715,"Include",20
"SWR2012_e1","SWR2012_e1_1",3,1,"pure","Strong",20,882,"Include",21
"SWR2012_e1","SWR2012_e1_1",3,0,"pure","Strong",3,1957,"Include",22
"SWR2012_e1","SWR2012_e1_1",3,1,"pure","Strong",4,1299,"Include",23
"SWR2012_e1","SWR2012_e1_1",3,1,"pure","Strong",17,1703,"Include",24
"SWR2012_e1","SWR2012_e1_1",4,0,"pure","Weak",1,1502,"Include",1
"SWR2012_e1","SWR2012_e1_1",4,0,"pure","Weak",4,1643,"Include",2
"SWR2012_e1","SWR2012_e1_1",4,1,"pure","Weak",4,2913,"Include",3
"SWR2012_e1","SWR2012_e1_1",4,0,"pure","Weak",4,898,"Include",4
"SWR2012_e1","SWR2012_e1_1",4,1,"pure","Weak",1,1009,"Include",5
"SWR2012_e1","SWR2012_e1_1",4,0,"pure","Weak",1,824,"Include",6
"SWR2012_e1","SWR2012_e1_1",4,1,"pure","Weak",2,1786,"Include",7
"SWR2012_e1","SWR2012_e1_1",4,0,"pure","Weak",4,1744,"Include",8
"SWR2012_e1","SWR2012_e1_1",4,1,"pure","Weak",1,1887,"Include",9
"SWR2012_e1","SWR2012_e1_1",4,0,"pure","Weak",20,1398,"Include",10
"SWR2012_e1","SWR2012_e1_1",4,1,"pure","Weak",17,1294,"Include",11
"SWR2012_e1","SWR2012_e1_1",4,0,"pure","Weak",4,1315,"Include",12
"SWR2012_e1","SWR2012_e1_1",4,1,"pure","Weak",1,2794,"Include",13
"SWR2012_e1","SWR2012_e1_1",4,0,"pure","Weak",1,911,"Include",14
"SWR2012_e1","SWR2012_e1_1",4,1,"pure","Weak",13,1284,"Include",15
"SWR2012_e1","SWR2012_e1_1",4,0,"pure","Weak",1,1679,"Include",16
"SWR2012_e1","SWR2012_e1_1",4,1,"pure","Weak",16,1169,"Include",17
"SWR2012_e1","SWR2012_e1_1",4,0,"pure","Weak",1,807,"Include",18
"SWR2012_e1","SWR2012_e1_1",4,0,"pure","Weak",1,1001,"Include",19
"SWR2012_e1","SWR2012_e1_1",4,1,"pure","Weak",20,1111,"Include",20
"SWR2012_e1","SWR2012_e1_1",4,0,"pure","Weak",1,752,"Include",21
"SWR2012_e1","SWR2012_e1_1",4,1,"pure","Weak",4,2105,"Include",22
"SWR2012_e1","SWR2012_e1_1",4,1,"pure","Weak",1,1575,"Include",23
"SWR2012_e1","SWR2012_e1_1",4,1,"pure","Weak",4,1794,"Include",24
"SWR2012_e1","SWR2012_e1_1",5,1,"pure","Strong",4,2430,"Include",1
"SWR2012_e1","SWR2012_e1_1",5,1,"pure","Strong",18,1724,"Include",2
"SWR2012_e1","SWR2012_e1_1",5,0,"pure","Strong",5,1696,"Include",3
"SWR2012_e1","SWR2012_e1_1",5,0,"pure","Strong",1,1331,"Include",4
"SWR2012_e1","SWR2012_e1_1",5,1,"pure","Strong",13,1786,"Include",5
"SWR2012_e1","SWR2012_e1_1",5,0,"pure","Strong",1,1097,"Include",6
"SWR2012_e1","SWR2012_e1_1",5,0,"pure","Strong",1,824,"Include",7
"SWR2012_e1","SWR2012_e1_1",5,1,"pure","Strong",5,1997,"Include",8
"SWR2012_e1","SWR2012_e1_1",5,0,"pure","Strong",1,978,"Include",9
"SWR2012_e1","SWR2012_e1_1",5,1,"pure","Strong",15,1741,"Include",10
"SWR2012_e1","SWR2012_e1_1",5,0,"pure","Strong",1,1642,"Include",11
"SWR2012_e1","SWR2012_e1_1",5,1,"pure","Strong",17,1552,"Include",12
"SWR2012_e1","SWR2012_e1_1",5,1,"pure","Strong",20,738,"Include",13
"SWR2012_e1","SWR2012_e1_1",5,0,"pure","Strong",1,1164,"Include",14
"SWR2012_e1","SWR2012_e1_1",5,0,"pure","Strong",4,1305,"Include",15
"SWR2012_e1","SWR2012_e1_1",5,1,"pure","Strong",20,1262,"Include",16
"SWR2012_e1","SWR2012_e1_1",5,0,"pure","Strong",13,1420,"Include",17
"SWR2012_e1","SWR2012_e1_1",5,0,"pure","Strong",13,901,"Include",18
"SWR2012_e1","SWR2012_e1_1",5,1,"pure","Strong",17,2466,"Include",19
"SWR2012_e1","SWR2012_e1_1",5,1,"pure","Strong",18,1201,"Include",20
"SWR2012_e1","SWR2012_e1_1",5,1,"pure","Strong",14,1770,"Include",21
"SWR2012_e1","SWR2012_e1_1",5,1,"pure","Strong",1,1145,"Include",22
"SWR2012_e1","SWR2012_e1_1",5,0,"pure","Strong",1,718,"Include",23
"SWR2012_e1","SWR2012_e1_1",5,0,"pure","Strong",1,808,"Include",24
"SWR2012_e1","SWR2012_e1_1",6,0,"pure","Weak",1,3005,"Include",1
"SWR2012_e1","SWR2012_e1_1",6,1,"pure","Weak",2,972,"Include",2
"SWR2012_e1","SWR2012_e1_1",6,1,"pure","Weak",16,2698,"Include",3
"SWR2012_e1","SWR2012_e1_1",6,0,"pure","Weak",1,988,"Include",4
"SWR2012_e1","SWR2012_e1_1",6,0,"pure","Weak",1,615,"Include",5
"SWR2012_e1","SWR2012_e1_1",6,0,"pure","Weak",1,564,"Include",6
"SWR2012_e1","SWR2012_e1_1",6,0,"pure","Weak",5,2441,"Include",7
"SWR2012_e1","SWR2012_e1_1",6,0,"pure","Weak",1,1525,"Include",8
"SWR2012_e1","SWR2012_e1_1",6,0,"pure","Weak",1,843,"Include",9
"SWR2012_e1","SWR2012_e1_1",6,0,"pure","Weak",1,784,"Include",10
"SWR2012_e1","SWR2012_e1_1",6,1,"pure","Weak",1,630,"Include",11
"SWR2012_e1","SWR2012_e1_1",6,1,"pure","Weak",14,3622,"Include",12
"SWR2012_e1","SWR2012_e1_1",6,1,"pure","Weak",13,1440,"Include",13
"SWR2012_e1","SWR2012_e1_1",6,0,"pure","Weak",3,1294,"Include",14
"SWR2012_e1","SWR2012_e1_1",6,1,"pure","Weak",3,832,"Include",15
"SWR2012_e1","SWR2012_e1_1",6,0,"pure","Weak",1,1539,"Include",16
"SWR2012_e1","SWR2012_e1_1",6,1,"pure","Weak",7,2381,"Include",17
"SWR2012_e1","SWR2012_e1_1",6,1,"pure","Weak",16,1690,"Include",18
"SWR2012_e1","SWR2012_e1_1",6,1,"pure","Weak",17,1513,"Include",19
"SWR2012_e1","SWR2012_e1_1",6,1,"pure","Weak",20,1063,"Include",20
"SWR2012_e1","SWR2012_e1_1",6,1,"pure","Weak",11,2069,"Include",21
"SWR2012_e1","SWR2012_e1_1",6,0,"pure","Weak",1,1295,"Include",22
"SWR2012_e1","SWR2012_e1_1",6,0,"pure","Weak",4,1852,"Include",23
"SWR2012_e1","SWR2012_e1_1",6,1,"pure","Weak",2,1225,"Include",24
"SWR2012_e1","SWR2012_e1_1",7,1,"pure","Strong",17,2371,"Include",1
"SWR2012_e1","SWR2012_e1_1",7,0,"pure","Strong",1,1038,"Include",2
"SWR2012_e1","SWR2012_e1_1",7,1,"pure","Strong",17,1114,"Include",3
"SWR2012_e1","SWR2012_e1_1",7,0,"pure","Strong",1,735,"Include",4
"SWR2012_e1","SWR2012_e1_1",7,1,"pure","Strong",5,1609,"Include",5
"SWR2012_e1","SWR2012_e1_1",7,0,"pure","Strong",5,1383,"Include",6
"SWR2012_e1","SWR2012_e1_1",7,0,"pure","Strong",1,1302,"Include",7
"SWR2012_e1","SWR2012_e1_1",7,0,"pure","Strong",1,1159,"Include",8
"SWR2012_e1","SWR2012_e1_1",7,1,"pure","Strong",20,1305,"Include",9
"SWR2012_e1","SWR2012_e1_1",7,1,"pure","Strong",14,1071,"Include",10
"SWR2012_e1","SWR2012_e1_1",7,0,"pure","Strong",1,1248,"Include",11
"SWR2012_e1","SWR2012_e1_1",7,0,"pure","Strong",8,2447,"Include",12
"SWR2012_e1","SWR2012_e1_1",7,0,"pure","Strong",8,1770,"Include",13
"SWR2012_e1","SWR2012_e1_1",7,0,"pure","Strong",1,1196,"Include",14
"SWR2012_e1","SWR2012_e1_1",7,1,"pure","Strong",11,1907,"Include",15
"SWR2012_e1","SWR2012_e1_1",7,0,"pure","Strong",1,910,"Include",16
"SWR2012_e1","SWR2012_e1_1",7,1,"pure","Strong",14,888,"Include",17
"SWR2012_e1","SWR2012_e1_1",7,1,"pure","Strong",1,829,"Include",18
"SWR2012_e1","SWR2012_e1_1",7,1,"pure","Strong",20,986,"Include",19
"SWR2012_e1","SWR2012_e1_1",7,1,"pure","Strong",13,1558,"Include",20
"SWR2012_e1","SWR2012_e1_1",7,0,"pure","Strong",1,850,"Include",21
"SWR2012_e1","SWR2012_e1_1",7,1,"pure","Strong",1,1148,"Include",22
"SWR2012_e1","SWR2012_e1_1",7,1,"pure","Strong",1,2467,"Include",23
"SWR2012_e1","SWR2012_e1_1",7,0,"pure","Strong",3,1119,"Include",24
"SWR2012_e1","SWR2012_e1_1",8,1,"pure","Weak",9,1843,"Include",1
"SWR2012_e1","SWR2012_e1_1",8,0,"pure","Weak",1,1842,"Include",2
"SWR2012_e1","SWR2012_e1_1",8,0,"pure","Weak",15,1771,"Include",3
"SWR2012_e1","SWR2012_e1_1",8,1,"pure","Weak",16,1916,"Include",4
"SWR2012_e1","SWR2012_e1_1",8,0,"pure","Weak",1,1491,"Include",5
"SWR2012_e1","SWR2012_e1_1",8,1,"pure","Weak",1,4701,"Include",6
"SWR2012_e1","SWR2012_e1_1",8,0,"pure","Weak",6,1560,"Include",7
"SWR2012_e1","SWR2012_e1_1",8,0,"pure","Weak",6,1411,"Include",8
"SWR2012_e1","SWR2012_e1_1",8,1,"pure","Weak",18,1224,"Include",9
"SWR2012_e1","SWR2012_e1_1",8,1,"pure","Weak",1,1767,"Include",10
"SWR2012_e1","SWR2012_e1_1",8,0,"pure","Weak",1,832,"Include",11
"SWR2012_e1","SWR2012_e1_1",8,1,"pure","Weak",13,905,"Include",12
"SWR2012_e1","SWR2012_e1_1",8,1,"pure","Weak",1,3076,"Include",13
"SWR2012_e1","SWR2012_e1_1",8,0,"pure","Weak",3,3194,"Include",14
"SWR2012_e1","SWR2012_e1_1",8,1,"pure","Weak",1,1518,"Include",15
"SWR2012_e1","SWR2012_e1_1",8,1,"pure","Weak",15,793,"Include",16
"SWR2012_e1","SWR2012_e1_1",8,0,"pure","Weak",1,699,"Include",17
"SWR2012_e1","SWR2012_e1_1",8,1,"pure","Weak",1,960,"Include",18
"SWR2012_e1","SWR2012_e1_1",8,0,"pure","Weak",20,4871,"Include",19
"SWR2012_e1","SWR2012_e1_1",8,0,"pure","Weak",1,680,"Include",20
"SWR2012_e1","SWR2012_e1_1",8,0,"pure","Weak",13,3902,"Include",21
"SWR2012_e1","SWR2012_e1_1",8,0,"pure","Weak",1,5076,"Include",22
"SWR2012_e1","SWR2012_e1_1",8,1,"pure","Weak",15,2024,"Include",23
"SWR2012_e1","SWR2012_e1_1",8,1,"pure","Weak",15,2254,"Include",24
"SWR2012_e1","SWR2012_e1_1",9,1,"pure","Strong",1,1744,"Include",1
"SWR2012_e1","SWR2012_e1_1",9,0,"pure","Strong",1,856,"Include",2
"SWR2012_e1","SWR2012_e1_1",9,0,"pure","Strong",16,1356,"Include",3
"SWR2012_e1","SWR2012_e1_1",9,0,"pure","Strong",1,972,"Include",4
"SWR2012_e1","SWR2012_e1_1",9,1,"pure","Strong",3,1462,"Include",5
"SWR2012_e1","SWR2012_e1_1",9,0,"pure","Strong",1,624,"Include",6
"SWR2012_e1","SWR2012_e1_1",9,0,"pure","Strong",7,2282,"Include",7
"SWR2012_e1","SWR2012_e1_1",9,0,"pure","Strong",1,927,"Include",8
"SWR2012_e1","SWR2012_e1_1",9,1,"pure","Strong",10,2106,"Include",9
"SWR2012_e1","SWR2012_e1_1",9,1,"pure","Strong",1,703,"Include",10
"SWR2012_e1","SWR2012_e1_1",9,1,"pure","Strong",1,902,"Include",11
"SWR2012_e1","SWR2012_e1_1",9,0,"pure","Strong",1,886,"Include",12
"SWR2012_e1","SWR2012_e1_1",9,0,"pure","Strong",14,1067,"Include",13
"SWR2012_e1","SWR2012_e1_1",9,0,"pure","Strong",16,1353,"Include",14
"SWR2012_e1","SWR2012_e1_1",9,1,"pure","Strong",16,1203,"Include",15
"SWR2012_e1","SWR2012_e1_1",9,1,"pure","Strong",16,996,"Include",16
"SWR2012_e1","SWR2012_e1_1",9,1,"pure","Strong",20,1887,"Include",17
"SWR2012_e1","SWR2012_e1_1",9,1,"pure","Strong",20,638,"Include",18
"SWR2012_e1","SWR2012_e1_1",9,0,"pure","Strong",1,661,"Include",19
"SWR2012_e1","SWR2012_e1_1",9,0,"pure","Strong",3,2167,"Include",20
"SWR2012_e1","SWR2012_e1_1",9,1,"pure","Strong",20,864,"Include",21
"SWR2012_e1","SWR2012_e1_1",9,1,"pure","Strong",11,2928,"Include",22
"SWR2012_e1","SWR2012_e1_1",9,0,"pure","Strong",1,1462,"Include",23
"SWR2012_e1","SWR2012_e1_1",9,1,"pure","Strong",17,1965,"Include",24
"SWR2012_e1","SWR2012_e1_1",10,0,"pure","Strong",1,1149,"Include",1
"SWR2012_e1","SWR2012_e1_1",10,1,"pure","Strong",4,2018,"Include",2
"SWR2012_e1","SWR2012_e1_1",10,1,"pure","Strong",1,1086,"Include",3
"SWR2012_e1","SWR2012_e1_1",10,0,"pure","Strong",4,659,"Include",4
"SWR2012_e1","SWR2012_e1_1",10,1,"pure","Strong",2,2233,"Include",5
"SWR2012_e1","SWR2012_e1_1",10,0,"pure","Strong",2,1048,"Include",6
"SWR2012_e1","SWR2012_e1_1",10,1,"pure","Strong",20,1047,"Include",7
"SWR2012_e1","SWR2012_e1_1",10,0,"pure","Strong",17,1090,"Include",8
"SWR2012_e1","SWR2012_e1_1",10,0,"pure","Strong",20,1180,"Include",9
"SWR2012_e1","SWR2012_e1_1",10,1,"pure","Strong",1,3053,"Include",10
"SWR2012_e1","SWR2012_e1_1",10,1,"pure","Strong",14,1197,"Include",11
"SWR2012_e1","SWR2012_e1_1",10,0,"pure","Strong",1,1171,"Include",12
"SWR2012_e1","SWR2012_e1_1",10,0,"pure","Strong",1,608,"Include",13
"SWR2012_e1","SWR2012_e1_1",10,0,"pure","Strong",1,665,"Include",14
"SWR2012_e1","SWR2012_e1_1",10,1,"pure","Strong",4,1151,"Include",15
"SWR2012_e1","SWR2012_e1_1",10,0,"pure","Strong",11,1581,"Include",16
"SWR2012_e1","SWR2012_e1_1",10,0,"pure","Strong",3,1079,"Include",17
"SWR2012_e1","SWR2012_e1_1",10,0,"pure","Strong",1,1185,"Include",18
"SWR2012_e1","SWR2012_e1_1",10,1,"pure","Strong",1,1203,"Include",19
"SWR2012_e1","SWR2012_e1_1",10,1,"pure","Strong",1,1848,"Include",20
"SWR2012_e1","SWR2012_e1_1",10,1,"pure","Strong",1,638,"Include",21
"SWR2012_e1","SWR2012_e1_1",10,1,"pure","Strong",1,739,"Include",22
"SWR2012_e1","SWR2012_e1_1",10,0,"pure","Strong",1,830,"Include",23
"SWR2012_e1","SWR2012_e1_1",10,1,"pure","Strong",1,638,"Include",24
"SWR2012_e1","SWR2012_e1_1",11,0,"pure","Weak",1,4507,"Include",1
"SWR2012_e1","SWR2012_e1_1",11,0,"pure","Weak",1,698,"Include",2
"SWR2012_e1","SWR2012_e1_1",11,1,"pure","Weak",14,1980,"Include",3
"SWR2012_e1","SWR2012_e1_1",11,1,"pure","Weak",16,1121,"Include",4
"SWR2012_e1","SWR2012_e1_1",11,0,"pure","Weak",17,1493,"Include",5
"SWR2012_e1","SWR2012_e1_1",11,0,"pure","Weak",1,1533,"Include",6
"SWR2012_e1","SWR2012_e1_1",11,1,"pure","Weak",19,1154,"Include",7
"SWR2012_e1","SWR2012_e1_1",11,1,"pure","Weak",1,1047,"Include",8
"SWR2012_e1","SWR2012_e1_1",11,0,"pure","Weak",1,1837,"Include",9
"SWR2012_e1","SWR2012_e1_1",11,0,"pure","Weak",4,1018,"Include",10
"SWR2012_e1","SWR2012_e1_1",11,1,"pure","Weak",3,932,"Include",11
"SWR2012_e1","SWR2012_e1_1",11,1,"pure","Weak",2,1052,"Include",12
"SWR2012_e1","SWR2012_e1_1",11,0,"pure","Weak",1,762,"Include",13
"SWR2012_e1","SWR2012_e1_1",11,1,"pure","Weak",15,1438,"Include",14
"SWR2012_e1","SWR2012_e1_1",11,0,"pure","Weak",15,616,"Include",15
"SWR2012_e1","SWR2012_e1_1",11,0,"pure","Weak",1,504,"Include",16
"SWR2012_e1","SWR2012_e1_1",11,1,"pure","Weak",16,1135,"Include",17
"SWR2012_e1","SWR2012_e1_1",11,1,"pure","Weak",1,680,"Include",18
"SWR2012_e1","SWR2012_e1_1",11,0,"pure","Weak",15,2007,"Include",19
"SWR2012_e1","SWR2012_e1_1",11,1,"pure","Weak",1,818,"Include",20
"SWR2012_e1","SWR2012_e1_1",11,0,"pure","Weak",15,1630,"Include",21
"SWR2012_e1","SWR2012_e1_1",11,1,"pure","Weak",1,640,"Include",22
"SWR2012_e1","SWR2012_e1_1",11,0,"pure","Weak",1,636,"Include",23
"SWR2012_e1","SWR2012_e1_1",11,1,"pure","Weak",13,968,"Include",24
"SWR2012_e1","SWR2012_e1_1",12,0,"pure","Weak",1,1797,"Include",1
"SWR2012_e1","SWR2012_e1_1",12,0,"pure","Weak",4,1235,"Include",2
"SWR2012_e1","SWR2012_e1_1",12,1,"pure","Weak",1,788,"Include",3
"SWR2012_e1","SWR2012_e1_1",12,1,"pure","Weak",3,1108,"Include",4
"SWR2012_e1","SWR2012_e1_1",12,0,"pure","Weak",3,635,"Include",5
"SWR2012_e1","SWR2012_e1_1",12,1,"pure","Weak",20,1408,"Include",6
"SWR2012_e1","SWR2012_e1_1",12,0,"pure","Weak",1,882,"Include",7
"SWR2012_e1","SWR2012_e1_1",12,0,"pure","Weak",1,901,"Include",8
"SWR2012_e1","SWR2012_e1_1",12,1,"pure","Weak",13,1598,"Include",9
"SWR2012_e1","SWR2012_e1_1",12,1,"pure","Weak",1,1121,"Include",10
"SWR2012_e1","SWR2012_e1_1",12,1,"pure","Weak",1,805,"Include",11
"SWR2012_e1","SWR2012_e1_1",12,1,"pure","Weak",1,670,"Include",12
"SWR2012_e1","SWR2012_e1_1",12,1,"pure","Weak",16,1345,"Include",13
"SWR2012_e1","SWR2012_e1_1",12,0,"pure","Weak",7,2687,"Include",14
"SWR2012_e1","SWR2012_e1_1",12,0,"pure","Weak",1,685,"Include",15
"SWR2012_e1","SWR2012_e1_1",12,1,"pure","Weak",7,1430,"Include",16
"SWR2012_e1","SWR2012_e1_1",12,0,"pure","Weak",1,550,"Include",17
"SWR2012_e1","SWR2012_e1_1",12,1,"pure","Weak",1,544,"Include",18
"SWR2012_e1","SWR2012_e1_1",12,0,"pure","Weak",1,598,"Include",19
"SWR2012_e1","SWR2012_e1_1",12,0,"pure","Weak",1,1058,"Include",20
"SWR2012_e1","SWR2012_e1_1",12,0,"pure","Weak",3,832,"Include",21
"SWR2012_e1","SWR2012_e1_1",12,1,"pure","Weak",17,1461,"Include",22
"SWR2012_e1","SWR2012_e1_1",12,0,"pure","Weak",1,1236,"Include",23
"SWR2012_e1","SWR2012_e1_1",12,1,"pure","Weak",1,2826,"Include",24
"SWR2012_e1","SWR2012_e1_3",1,0,"pure","Weak",3,3050,"Exclude",1
"SWR2012_e1","SWR2012_e1_3",1,0,"pure","Weak",3,2813,"Exclude",2
"SWR2012_e1","SWR2012_e1_3",1,1,"pure","Weak",20,1501,"Exclude",3
"SWR2012_e1","SWR2012_e1_3",1,0,"pure","Weak",2,3213,"Exclude",4
"SWR2012_e1","SWR2012_e1_3",1,1,"pure","Weak",6,2031,"Exclude",5
"SWR2012_e1","SWR2012_e1_3",1,0,"pure","Weak",4,3309,"Exclude",6
"SWR2012_e1","SWR2012_e1_3",1,1,"pure","Weak",18,3083,"Exclude",7
"SWR2012_e1","SWR2012_e1_3",1,0,"pure","Weak",5,1770,"Exclude",8
"SWR2012_e1","SWR2012_e1_3",1,1,"pure","Weak",17,2283,"Exclude",9
"SWR2012_e1","SWR2012_e1_3",1,1,"pure","Weak",5,3499,"Exclude",10
"SWR2012_e1","SWR2012_e1_3",1,1,"pure","Weak",20,1266,"Exclude",11
"SWR2012_e1","SWR2012_e1_3",1,0,"pure","Weak",3,1848,"Exclude",12
"SWR2012_e1","SWR2012_e1_3",1,1,"pure","Weak",8,2734,"Exclude",13
"SWR2012_e1","SWR2012_e1_3",1,1,"pure","Weak",20,1119,"Exclude",14
"SWR2012_e1","SWR2012_e1_3",1,0,"pure","Weak",5,2110,"Exclude",15
"SWR2012_e1","SWR2012_e1_3",1,0,"pure","Weak",5,2205,"Exclude",16
"SWR2012_e1","SWR2012_e1_3",1,0,"pure","Weak",5,1570,"Exclude",17
"SWR2012_e1","SWR2012_e1_3",1,0,"pure","Weak",5,2613,"Exclude",18
"SWR2012_e1","SWR2012_e1_3",1,1,"pure","Weak",20,1249,"Exclude",19
"SWR2012_e1","SWR2012_e1_3",1,0,"pure","Weak",6,4195,"Exclude",20
"SWR2012_e1","SWR2012_e1_3",1,1,"pure","Weak",19,2744,"Exclude",21
"SWR2012_e1","SWR2012_e1_3",1,1,"pure","Weak",12,3431,"Exclude",22
"SWR2012_e1","SWR2012_e1_3",1,0,"pure","Weak",6,3344,"Exclude",23
"SWR2012_e1","SWR2012_e1_3",1,1,"pure","Weak",5,2388,"Exclude",24
"SWR2012_e1","SWR2012_e1_3",2,1,"pure","Strong",5,3058,"Exclude",1
"SWR2012_e1","SWR2012_e1_3",2,1,"pure","Strong",18,2172,"Exclude",2
"SWR2012_e1","SWR2012_e1_3",2,1,"pure","Strong",13,2439,"Exclude",3
"SWR2012_e1","SWR2012_e1_3",2,1,"pure","Strong",18,4821,"Exclude",4
"SWR2012_e1","SWR2012_e1_3",2,0,"pure","Strong",2,2370,"Exclude",5
"SWR2012_e1","SWR2012_e1_3",2,1,"pure","Strong",19,1449,"Exclude",6
"SWR2012_e1","SWR2012_e1_3",2,1,"pure","Strong",1,3117,"Exclude",7
"SWR2012_e1","SWR2012_e1_3",2,0,"pure","Strong",2,2936,"Exclude",8
"SWR2012_e1","SWR2012_e1_3",2,1,"pure","Strong",16,3917,"Exclude",9
"SWR2012_e1","SWR2012_e1_3",2,0,"pure","Strong",3,3239,"Exclude",10
"SWR2012_e1","SWR2012_e1_3",2,0,"pure","Strong",3,1197,"Exclude",11
"SWR2012_e1","SWR2012_e1_3",2,0,"pure","Strong",3,2214,"Exclude",12
"SWR2012_e1","SWR2012_e1_3",2,1,"pure","Strong",20,2752,"Exclude",13
"SWR2012_e1","SWR2012_e1_3",2,0,"pure","Strong",1,3005,"Exclude",14
"SWR2012_e1","SWR2012_e1_3",2,1,"pure","Strong",18,2414,"Exclude",15
"SWR2012_e1","SWR2012_e1_3",2,0,"pure","Strong",2,1971,"Exclude",16
"SWR2012_e1","SWR2012_e1_3",2,0,"pure","Strong",1,2345,"Exclude",17
"SWR2012_e1","SWR2012_e1_3",2,0,"pure","Strong",1,1163,"Exclude",18
"SWR2012_e1","SWR2012_e1_3",2,1,"pure","Strong",19,2979,"Exclude",19
"SWR2012_e1","SWR2012_e1_3",2,1,"pure","Strong",10,6280,"Exclude",20
"SWR2012_e1","SWR2012_e1_3",2,0,"pure","Strong",4,3448,"Exclude",21
"SWR2012_e1","SWR2012_e1_3",2,0,"pure","Strong",3,2276,"Exclude",22
"SWR2012_e1","SWR2012_e1_3",2,1,"pure","Strong",16,4134,"Exclude",23
"SWR2012_e1","SWR2012_e1_3",2,0,"pure","Strong",9,5803,"Exclude",24
"SWR2012_e1","SWR2012_e1_3",3,0,"pure","Weak",2,3910,"Include",1
"SWR2012_e1","SWR2012_e1_3",3,1,"pure","Weak",2,1206,"Include",2
"SWR2012_e1","SWR2012_e1_3",3,0,"pure","Weak",17,2283,"Include",3
"SWR2012_e1","SWR2012_e1_3",3,1,"pure","Weak",20,2578,"Include",4
"SWR2012_e1","SWR2012_e1_3",3,1,"pure","Weak",19,3569,"Include",5
"SWR2012_e1","SWR2012_e1_3",3,1,"pure","Weak",6,2396,"Include",6
"SWR2012_e1","SWR2012_e1_3",3,0,"pure","Weak",3,1511,"Include",7
"SWR2012_e1","SWR2012_e1_3",3,1,"pure","Weak",20,1857,"Include",8
"SWR2012_e1","SWR2012_e1_3",3,0,"pure","Weak",5,2030,"Include",9
"SWR2012_e1","SWR2012_e1_3",3,1,"pure","Weak",20,1648,"Include",10
"SWR2012_e1","SWR2012_e1_3",3,1,"pure","Weak",20,2492,"Include",11
"SWR2012_e1","SWR2012_e1_3",3,0,"pure","Weak",4,1632,"Include",12
"SWR2012_e1","SWR2012_e1_3",3,0,"pure","Weak",2,1528,"Include",13
"SWR2012_e1","SWR2012_e1_3",3,0,"pure","Weak",10,4638,"Include",14
"SWR2012_e1","SWR2012_e1_3",3,1,"pure","Weak",10,1910,"Include",15
"SWR2012_e1","SWR2012_e1_3",3,0,"pure","Weak",13,2832,"Include",16
"SWR2012_e1","SWR2012_e1_3",3,1,"pure","Weak",14,2797,"Include",17
"SWR2012_e1","SWR2012_e1_3",3,0,"pure","Weak",4,1537,"Include",18
"SWR2012_e1","SWR2012_e1_3",3,0,"pure","Weak",16,2387,"Include",19
"SWR2012_e1","SWR2012_e1_3",3,1,"pure","Weak",8,4135,"Include",20
"SWR2012_e1","SWR2012_e1_3",3,1,"pure","Weak",17,2814,"Include",21
"SWR2012_e1","SWR2012_e1_3",3,0,"pure","Weak",18,3126,"Include",22
"SWR2012_e1","SWR2012_e1_3",3,1,"pure","Weak",12,2623,"Include",23
"SWR2012_e1","SWR2012_e1_3",3,0,"pure","Weak",3,5151,"Include",24
"SWR2012_e1","SWR2012_e1_3",4,1,"pure","Strong",20,2083,"Include",1
"SWR2012_e1","SWR2012_e1_3",4,1,"pure","Strong",16,2161,"Include",2
"SWR2012_e1","SWR2012_e1_3",4,1,"pure","Strong",20,2388,"Include",3
"SWR2012_e1","SWR2012_e1_3",4,0,"pure","Strong",4,4342,"Include",4
"SWR2012_e1","SWR2012_e1_3",4,0,"pure","Strong",2,1840,"Include",5
"SWR2012_e1","SWR2012_e1_3",4,1,"pure","Strong",20,2647,"Include",6
"SWR2012_e1","SWR2012_e1_3",4,0,"pure","Strong",2,1929,"Include",7
"SWR2012_e1","SWR2012_e1_3",4,1,"pure","Strong",20,971,"Include",8
"SWR2012_e1","SWR2012_e1_3",4,1,"pure","Strong",19,3439,"Include",9
"SWR2012_e1","SWR2012_e1_3",4,1,"pure","Strong",2,2996,"Include",10
"SWR2012_e1","SWR2012_e1_3",4,0,"pure","Strong",1,1650,"Include",11
"SWR2012_e1","SWR2012_e1_3",4,0,"pure","Strong",1,1397,"Include",12
"SWR2012_e1","SWR2012_e1_3",4,1,"pure","Strong",20,2841,"Include",13
"SWR2012_e1","SWR2012_e1_3",4,0,"pure","Strong",2,2180,"Include",14
"SWR2012_e1","SWR2012_e1_3",4,1,"pure","Strong",17,3117,"Include",15
"SWR2012_e1","SWR2012_e1_3",4,0,"pure","Strong",2,1902,"Include",16
"SWR2012_e1","SWR2012_e1_3",4,1,"pure","Strong",20,1683,"Include",17
"SWR2012_e1","SWR2012_e1_3",4,0,"pure","Strong",3,3013,"Include",18
"SWR2012_e1","SWR2012_e1_3",4,1,"pure","Strong",2,3039,"Include",19
"SWR2012_e1","SWR2012_e1_3",4,0,"pure","Strong",1,1406,"Include",20
"SWR2012_e1","SWR2012_e1_3",4,0,"pure","Strong",7,3119,"Include",21
"SWR2012_e1","SWR2012_e1_3",4,1,"pure","Strong",19,2927,"Include",22
"SWR2012_e1","SWR2012_e1_3",4,0,"pure","Strong",2,1779,"Include",23
"SWR2012_e1","SWR2012_e1_3",4,0,"pure","Strong",1,1058,"Include",24
"SWR2012_e1","SWR2012_e1_3",5,0,"pure","Weak",8,2511,"Include",1
"SWR2012_e1","SWR2012_e1_3",5,1,"pure","Weak",3,3352,"Include",2
"SWR2012_e1","SWR2012_e1_3",5,0,"pure","Weak",1,1345,"Include",3
"SWR2012_e1","SWR2012_e1_3",5,1,"pure","Weak",8,3656,"Include",4
"SWR2012_e1","SWR2012_e1_3",5,0,"pure","Weak",7,8222,"Exclude",5
"SWR2012_e1","SWR2012_e1_3",5,1,"pure","Weak",19,1683,"Include",6
"SWR2012_e1","SWR2012_e1_3",5,1,"pure","Weak",4,2135,"Include",7
"SWR2012_e1","SWR2012_e1_3",5,1,"pure","Weak",6,2804,"Include",8
"SWR2012_e1","SWR2012_e1_3",5,1,"pure","Weak",12,2004,"Include",9
"SWR2012_e1","SWR2012_e1_3",5,0,"pure","Weak",19,3812,"Include",10
"SWR2012_e1","SWR2012_e1_3",5,0,"pure","Weak",2,1726,"Include",11
"SWR2012_e1","SWR2012_e1_3",5,0,"pure","Weak",4,4837,"Include",12
"SWR2012_e1","SWR2012_e1_3",5,1,"pure","Weak",19,1674,"Include",13
"SWR2012_e1","SWR2012_e1_3",5,0,"pure","Weak",3,1448,"Include",14
"SWR2012_e1","SWR2012_e1_3",5,0,"pure","Weak",2,1439,"Include",15
"SWR2012_e1","SWR2012_e1_3",5,0,"pure","Weak",5,2248,"Include",16
"SWR2012_e1","SWR2012_e1_3",5,0,"pure","Weak",4,2049,"Include",17
"SWR2012_e1","SWR2012_e1_3",5,0,"pure","Weak",3,1910,"Include",18
"SWR2012_e1","SWR2012_e1_3",5,0,"pure","Weak",3,2336,"Include",19
"SWR2012_e1","SWR2012_e1_3",5,1,"pure","Weak",16,2848,"Include",20
"SWR2012_e1","SWR2012_e1_3",5,1,"pure","Weak",20,1744,"Include",21
"SWR2012_e1","SWR2012_e1_3",5,1,"pure","Weak",20,1197,"Include",22
"SWR2012_e1","SWR2012_e1_3",5,1,"pure","Weak",20,1066,"Include",23
"SWR2012_e1","SWR2012_e1_3",5,1,"pure","Weak",13,2543,"Include",24
"SWR2012_e1","SWR2012_e1_3",6,1,"pure","Weak",2,2066,"Include",1
"SWR2012_e1","SWR2012_e1_3",6,0,"pure","Weak",2,1240,"Include",2
"SWR2012_e1","SWR2012_e1_3",6,1,"pure","Weak",6,3022,"Include",3
"SWR2012_e1","SWR2012_e1_3",6,1,"pure","Weak",6,1927,"Include",4
"SWR2012_e1","SWR2012_e1_3",6,0,"pure","Weak",3,1988,"Include",5
"SWR2012_e1","SWR2012_e1_3",6,0,"pure","Weak",2,1361,"Include",6
"SWR2012_e1","SWR2012_e1_3",6,1,"pure","Weak",7,5219,"Include",7
"SWR2012_e1","SWR2012_e1_3",6,0,"pure","Weak",4,6515,"Exclude",8
"SWR2012_e1","SWR2012_e1_3",6,1,"pure","Weak",2,1634,"Include",9
"SWR2012_e1","SWR2012_e1_3",6,0,"pure","Weak",3,2508,"Include",10
"SWR2012_e1","SWR2012_e1_3",6,1,"pure","Weak",17,1840,"Include",11
"SWR2012_e1","SWR2012_e1_3",6,0,"pure","Weak",8,3187,"Include",12
"SWR2012_e1","SWR2012_e1_3",6,1,"pure","Weak",14,3638,"Include",13
"SWR2012_e1","SWR2012_e1_3",6,0,"pure","Weak",18,2838,"Include",14
"SWR2012_e1","SWR2012_e1_3",6,0,"pure","Weak",6,2466,"Include",15
"SWR2012_e1","SWR2012_e1_3",6,1,"pure","Weak",20,1806,"Include",16
"SWR2012_e1","SWR2012_e1_3",6,0,"pure","Weak",2,2032,"Include",17
"SWR2012_e1","SWR2012_e1_3",6,0,"pure","Weak",2,1527,"Include",18
"SWR2012_e1","SWR2012_e1_3",6,0,"pure","Weak",18,3952,"Include",19
"SWR2012_e1","SWR2012_e1_3",6,1,"pure","Weak",18,1695,"Include",20
"SWR2012_e1","SWR2012_e1_3",6,1,"pure","Weak",14,3093,"Include",21
"SWR2012_e1","SWR2012_e1_3",6,1,"pure","Weak",11,3196,"Include",22
"SWR2012_e1","SWR2012_e1_3",6,0,"pure","Weak",3,3004,"Include",23
"SWR2012_e1","SWR2012_e1_3",6,1,"pure","Weak",2,1701,"Include",24
"SWR2012_e1","SWR2012_e1_3",7,0,"pure","Strong",1,1432,"Include",1
"SWR2012_e1","SWR2012_e1_3",7,1,"pure","Strong",18,2352,"Include",2
"SWR2012_e1","SWR2012_e1_3",7,0,"pure","Strong",1,1517,"Include",3
"SWR2012_e1","SWR2012_e1_3",7,0,"pure","Strong",1,2178,"Include",4
"SWR2012_e1","SWR2012_e1_3",7,0,"pure","Strong",1,1449,"Include",5
"SWR2012_e1","SWR2012_e1_3",7,0,"pure","Strong",1,2293,"Include",6
"SWR2012_e1","SWR2012_e1_3",7,0,"pure","Strong",2,5212,"Include",7
"SWR2012_e1","SWR2012_e1_3",7,1,"pure","Strong",20,2291,"Include",8
"SWR2012_e1","SWR2012_e1_3",7,0,"pure","Strong",4,2414,"Include",9
"SWR2012_e1","SWR2012_e1_3",7,1,"pure","Strong",20,1336,"Include",10
"SWR2012_e1","SWR2012_e1_3",7,0,"pure","Strong",6,2310,"Include",11
"SWR2012_e1","SWR2012_e1_3",7,0,"pure","Strong",2,2560,"Include",12
"SWR2012_e1","SWR2012_e1_3",7,1,"pure","Strong",17,2988,"Include",13
"SWR2012_e1","SWR2012_e1_3",7,0,"pure","Strong",8,4290,"Include",14
"SWR2012_e1","SWR2012_e1_3",7,0,"pure","Strong",1,1641,"Include",15
"SWR2012_e1","SWR2012_e1_3",7,1,"pure","Strong",20,1276,"Include",16
"SWR2012_e1","SWR2012_e1_3",7,1,"pure","Strong",20,684,"Include",17
"SWR2012_e1","SWR2012_e1_3",7,1,"pure","Strong",20,545,"Include",18
"SWR2012_e1","SWR2012_e1_3",7,1,"pure","Strong",20,545,"Include",19
"SWR2012_e1","SWR2012_e1_3",7,1,"pure","Strong",20,1180,"Include",20
"SWR2012_e1","SWR2012_e1_3",7,0,"pure","Strong",1,1997,"Include",21
"SWR2012_e1","SWR2012_e1_3",7,1,"pure","Strong",20,4709,"Include",22
"SWR2012_e1","SWR2012_e1_3",7,1,"pure","Strong",19,3099,"Include",23
"SWR2012_e1","SWR2012_e1_3",7,1,"pure","Strong",20,1779,"Include",24
"SWR2012_e1","SWR2012_e1_3",8,1,"pure","Weak",8,5141,"Include",1
"SWR2012_e1","SWR2012_e1_3",8,1,"pure","Weak",4,3441,"Include",2
"SWR2012_e1","SWR2012_e1_3",8,0,"pure","Weak",2,1640,"Include",3
"SWR2012_e1","SWR2012_e1_3",8,1,"pure","Weak",2,1249,"Include",4
"SWR2012_e1","SWR2012_e1_3",8,0,"pure","Weak",3,1657,"Include",5
"SWR2012_e1","SWR2012_e1_3",8,1,"pure","Weak",20,1875,"Include",6
"SWR2012_e1","SWR2012_e1_3",8,0,"pure","Weak",4,3421,"Include",7
"SWR2012_e1","SWR2012_e1_3",8,1,"pure","Weak",14,2502,"Include",8
"SWR2012_e1","SWR2012_e1_3",8,0,"pure","Weak",2,2005,"Include",9
"SWR2012_e1","SWR2012_e1_3",8,0,"pure","Weak",5,3013,"Include",10
"SWR2012_e1","SWR2012_e1_3",8,1,"pure","Weak",20,1379,"Include",11
"SWR2012_e1","SWR2012_e1_3",8,0,"pure","Weak",12,2848,"Include",12
"SWR2012_e1","SWR2012_e1_3",8,1,"pure","Weak",9,3100,"Include",13
"SWR2012_e1","SWR2012_e1_3",8,1,"pure","Weak",18,2755,"Include",14
"SWR2012_e1","SWR2012_e1_3",8,0,"pure","Weak",15,4943,"Include",15
"SWR2012_e1","SWR2012_e1_3",8,1,"pure","Weak",19,1926,"Include",16
"SWR2012_e1","SWR2012_e1_3",8,0,"pure","Weak",9,3082,"Include",17
"SWR2012_e1","SWR2012_e1_3",8,0,"pure","Weak",11,2936,"Include",18
"SWR2012_e1","SWR2012_e1_3",8,1,"pure","Weak",18,2838,"Include",19
"SWR2012_e1","SWR2012_e1_3",8,0,"pure","Weak",2,2770,"Include",20
"SWR2012_e1","SWR2012_e1_3",8,1,"pure","Weak",17,1806,"Include",21
"SWR2012_e1","SWR2012_e1_3",8,1,"pure","Weak",20,2492,"Include",22
"SWR2012_e1","SWR2012_e1_3",8,0,"pure","Weak",2,2850,"Include",23
"SWR2012_e1","SWR2012_e1_3",8,0,"pure","Weak",3,1848,"Include",24
"SWR2012_e1","SWR2012_e1_3",9,0,"pure","Strong",1,1336,"Include",1
"SWR2012_e1","SWR2012_e1_3",9,0,"pure","Strong",1,1666,"Include",2
"SWR2012_e1","SWR2012_e1_3",9,1,"pure","Strong",20,1648,"Include",3
"SWR2012_e1","SWR2012_e1_3",9,0,"pure","Strong",2,2405,"Include",4
"SWR2012_e1","SWR2012_e1_3",9,0,"pure","Strong",2,1241,"Include",5
"SWR2012_e1","SWR2012_e1_3",9,1,"pure","Strong",20,1319,"Include",6
"SWR2012_e1","SWR2012_e1_3",9,1,"pure","Strong",5,1961,"Include",7
"SWR2012_e1","SWR2012_e1_3",9,1,"pure","Strong",4,3685,"Include",8
"SWR2012_e1","SWR2012_e1_3",9,1,"pure","Strong",19,2050,"Include",9
"SWR2012_e1","SWR2012_e1_3",9,1,"pure","Strong",20,1022,"Include",10
"SWR2012_e1","SWR2012_e1_3",9,1,"pure","Strong",12,2884,"Include",11
"SWR2012_e1","SWR2012_e1_3",9,0,"pure","Strong",8,4047,"Include",12
"SWR2012_e1","SWR2012_e1_3",9,1,"pure","Strong",6,2400,"Include",13
"SWR2012_e1","SWR2012_e1_3",9,0,"pure","Strong",4,1631,"Include",14
"SWR2012_e1","SWR2012_e1_3",9,1,"pure","Strong",20,1937,"Include",15
"SWR2012_e1","SWR2012_e1_3",9,0,"pure","Strong",3,1780,"Include",16
"SWR2012_e1","SWR2012_e1_3",9,0,"pure","Strong",1,1275,"Include",17
"SWR2012_e1","SWR2012_e1_3",9,0,"pure","Strong",1,2127,"Include",18
"SWR2012_e1","SWR2012_e1_3",9,1,"pure","Strong",20,2597,"Include",19
"SWR2012_e1","SWR2012_e1_3",9,0,"pure","Strong",18,3936,"Include",20
"SWR2012_e1","SWR2012_e1_3",9,0,"pure","Strong",2,4108,"Include",21
"SWR2012_e1","SWR2012_e1_3",9,1,"pure","Strong",19,3699,"Include",22
"SWR2012_e1","SWR2012_e1_3",9,1,"pure","Strong",4,3517,"Include",23
"SWR2012_e1","SWR2012_e1_3",9,0,"pure","Strong",3,1474,"Include",24
"SWR2012_e1","SWR2012_e1_3",10,1,"pure","Weak",12,4658,"Include",1
"SWR2012_e1","SWR2012_e1_3",10,1,"pure","Weak",2,1953,"Include",2
"SWR2012_e1","SWR2012_e1_3",10,0,"pure","Weak",2,1067,"Include",3
"SWR2012_e1","SWR2012_e1_3",10,0,"pure","Weak",9,2466,"Include",4
"SWR2012_e1","SWR2012_e1_3",10,1,"pure","Weak",11,3187,"Include",5
"SWR2012_e1","SWR2012_e1_3",10,1,"pure","Weak",18,2092,"Include",6
"SWR2012_e1","SWR2012_e1_3",10,0,"pure","Weak",4,2049,"Include",7
"SWR2012_e1","SWR2012_e1_3",10,1,"pure","Weak",16,1657,"Include",8
"SWR2012_e1","SWR2012_e1_3",10,1,"pure","Weak",4,1640,"Include",9
"SWR2012_e1","SWR2012_e1_3",10,0,"pure","Weak",2,2423,"Include",10
"SWR2012_e1","SWR2012_e1_3",10,0,"pure","Weak",2,1310,"Include",11
"SWR2012_e1","SWR2012_e1_3",10,1,"pure","Weak",16,1649,"Include",12
"SWR2012_e1","SWR2012_e1_3",10,0,"pure","Weak",5,3082,"Include",13
"SWR2012_e1","SWR2012_e1_3",10,0,"pure","Weak",2,1658,"Include",14
"SWR2012_e1","SWR2012_e1_3",10,0,"pure","Weak",1,1213,"Include",15
"SWR2012_e1","SWR2012_e1_3",10,1,"pure","Weak",19,2085,"Include",16
"SWR2012_e1","SWR2012_e1_3",10,1,"pure","Weak",20,1206,"Include",17
"SWR2012_e1","SWR2012_e1_3",10,1,"pure","Weak",14,3118,"Include",18
"SWR2012_e1","SWR2012_e1_3",10,0,"pure","Weak",4,3778,"Include",19
"SWR2012_e1","SWR2012_e1_3",10,1,"pure","Weak",18,3004,"Include",20
"SWR2012_e1","SWR2012_e1_3",10,0,"pure","Weak",4,1954,"Include",21
"SWR2012_e1","SWR2012_e1_3",10,0,"pure","Weak",4,2222,"Include",22
"SWR2012_e1","SWR2012_e1_3",10,1,"pure","Weak",12,2492,"Include",23
"SWR2012_e1","SWR2012_e1_3",10,0,"pure","Weak",2,2301,"Include",24
"SWR2012_e1","SWR2012_e1_3",11,1,"pure","Strong",20,1701,"Include",1
"SWR2012_e1","SWR2012_e1_3",11,0,"pure","Strong",2,1746,"Include",2
"SWR2012_e1","SWR2012_e1_3",11,0,"pure","Strong",1,1441,"Include",3
"SWR2012_e1","SWR2012_e1_3",11,0,"pure","Strong",4,2207,"Include",4
"SWR2012_e1","SWR2012_e1_3",11,1,"pure","Strong",12,4214,"Include",5
"SWR2012_e1","SWR2012_e1_3",11,1,"pure","Strong",20,1077,"Include",6
"SWR2012_e1","SWR2012_e1_3",11,1,"pure","Strong",6,2822,"Include",7
"SWR2012_e1","SWR2012_e1_3",11,0,"pure","Strong",2,1329,"Include",8
"SWR2012_e1","SWR2012_e1_3",11,0,"pure","Strong",1,1564,"Include",9
"SWR2012_e1","SWR2012_e1_3",11,1,"pure","Strong",12,3841,"Include",10
"SWR2012_e1","SWR2012_e1_3",11,0,"pure","Strong",2,1519,"Include",11
"SWR2012_e1","SWR2012_e1_3",11,1,"pure","Strong",10,4969,"Include",12
"SWR2012_e1","SWR2012_e1_3",11,1,"pure","Strong",11,1059,"Include",13
"SWR2012_e1","SWR2012_e1_3",11,0,"pure","Strong",14,6220,"Exclude",14
"SWR2012_e1","SWR2012_e1_3",11,1,"pure","Strong",20,2144,"Include",15
"SWR2012_e1","SWR2012_e1_3",11,0,"pure","Strong",1,1396,"Include",16
"SWR2012_e1","SWR2012_e1_3",11,1,"pure","Strong",15,2536,"Include",17
"SWR2012_e1","SWR2012_e1_3",11,0,"pure","Strong",3,2518,"Include",18
"SWR2012_e1","SWR2012_e1_3",11,0,"pure","Strong",2,1378,"Include",19
"SWR2012_e1","SWR2012_e1_3",11,0,"pure","Strong",4,1822,"Include",20
"SWR2012_e1","SWR2012_e1_3",11,1,"pure","Strong",20,1539,"Include",21
"SWR2012_e1","SWR2012_e1_3",11,1,"pure","Strong",14,2675,"Include",22
"SWR2012_e1","SWR2012_e1_3",11,1,"pure","Strong",20,1397,"Include",23
"SWR2012_e1","SWR2012_e1_3",11,0,"pure","Strong",2,1771,"Include",24
"SWR2012_e1","SWR2012_e1_3",12,1,"pure","Strong",3,4230,"Include",1
"SWR2012_e1","SWR2012_e1_3",12,1,"pure","Strong",18,2275,"Include",2
"SWR2012_e1","SWR2012_e1_3",12,1,"pure","Strong",16,2109,"Include",3
"SWR2012_e1","SWR2012_e1_3",12,1,"pure","Strong",2,1248,"Include",4
"SWR2012_e1","SWR2012_e1_3",12,0,"pure","Strong",1,1092,"Include",5
"SWR2012_e1","SWR2012_e1_3",12,0,"pure","Strong",1,1657,"Include",6
"SWR2012_e1","SWR2012_e1_3",12,0,"pure","Strong",2,1665,"Include",7
"SWR2012_e1","SWR2012_e1_3",12,0,"pure","Strong",3,2821,"Include",8
"SWR2012_e1","SWR2012_e1_3",12,1,"pure","Strong",13,2007,"Include",9
"SWR2012_e1","SWR2012_e1_3",12,1,"pure","Strong",12,3943,"Include",10
"SWR2012_e1","SWR2012_e1_3",12,0,"pure","Strong",4,1675,"Include",11
"SWR2012_e1","SWR2012_e1_3",12,0,"pure","Strong",6,3092,"Include",12
"SWR2012_e1","SWR2012_e1_3",12,0,"pure","Strong",2,2474,"Include",13
"SWR2012_e1","SWR2012_e1_3",12,0,"pure","Strong",5,3352,"Include",14
"SWR2012_e1","SWR2012_e1_3",12,1,"pure","Strong",19,1614,"Include",15
"SWR2012_e1","SWR2012_e1_3",12,1,"pure","Strong",19,1449,"Include",16
"SWR2012_e1","SWR2012_e1_3",12,1,"pure","Strong",5,3352,"Include",17
"SWR2012_e1","SWR2012_e1_3",12,1,"pure","Strong",17,2692,"Include",18
"SWR2012_e1","SWR2012_e1_3",12,0,"pure","Strong",4,2343,"Include",19
"SWR2012_e1","SWR2012_e1_3",12,0,"pure","Strong",4,7177,"Exclude",20
"SWR2012_e1","SWR2012_e1_3",12,1,"pure","Strong",3,1728,"Include",21
"SWR2012_e1","SWR2012_e1_3",12,0,"pure","Strong",3,2518,"Include",22
"SWR2012_e1","SWR2012_e1_3",12,1,"pure","Strong",18,3319,"Include",23
"SWR2012_e1","SWR2012_e1_3",12,0,"pure","Strong",2,1563,"Include",24
"SWR2012_e1","SWR2012_e1_5",1,1,"pure","Weak",15,5380,"Exclude",1
"SWR2012_e1","SWR2012_e1_5",1,1,"pure","Weak",20,1952,"Exclude",2
"SWR2012_e1","SWR2012_e1_5",1,0,"pure","Weak",1,2878,"Exclude",3
"SWR2012_e1","SWR2012_e1_5",1,1,"pure","Weak",20,1507,"Exclude",4
"SWR2012_e1","SWR2012_e1_5",1,1,"pure","Weak",1,1583,"Exclude",5
"SWR2012_e1","SWR2012_e1_5",1,1,"pure","Weak",20,1276,"Exclude",6
"SWR2012_e1","SWR2012_e1_5",1,1,"pure","Weak",20,845,"Exclude",7
"SWR2012_e1","SWR2012_e1_5",1,1,"pure","Weak",20,634,"Exclude",8
"SWR2012_e1","SWR2012_e1_5",1,0,"pure","Weak",3,3370,"Exclude",9
"SWR2012_e1","SWR2012_e1_5",1,0,"pure","Weak",1,1633,"Exclude",10
"SWR2012_e1","SWR2012_e1_5",1,1,"pure","Weak",15,1760,"Exclude",11
"SWR2012_e1","SWR2012_e1_5",1,0,"pure","Weak",1,1383,"Exclude",12
"SWR2012_e1","SWR2012_e1_5",1,0,"pure","Weak",5,2489,"Exclude",13
"SWR2012_e1","SWR2012_e1_5",1,0,"pure","Weak",1,1306,"Exclude",14
"SWR2012_e1","SWR2012_e1_5",1,1,"pure","Weak",20,1098,"Exclude",15
"SWR2012_e1","SWR2012_e1_5",1,0,"pure","Weak",1,857,"Exclude",16
"SWR2012_e1","SWR2012_e1_5",1,0,"pure","Weak",1,781,"Exclude",17
"SWR2012_e1","SWR2012_e1_5",1,1,"pure","Weak",16,2118,"Exclude",18
"SWR2012_e1","SWR2012_e1_5",1,1,"pure","Weak",1,1088,"Exclude",19
"SWR2012_e1","SWR2012_e1_5",1,0,"pure","Weak",1,1314,"Exclude",20
"SWR2012_e1","SWR2012_e1_5",1,1,"pure","Weak",13,2812,"Exclude",21
"SWR2012_e1","SWR2012_e1_5",1,0,"pure","Weak",3,2013,"Exclude",22
"SWR2012_e1","SWR2012_e1_5",1,0,"pure","Weak",3,1143,"Exclude",23
"SWR2012_e1","SWR2012_e1_5",1,0,"pure","Weak",3,929,"Exclude",24
"SWR2012_e1","SWR2012_e1_5",2,0,"pure","Strong",3,2284,"Exclude",1
"SWR2012_e1","SWR2012_e1_5",2,1,"pure","Strong",20,1222,"Exclude",2
"SWR2012_e1","SWR2012_e1_5",2,0,"pure","Strong",3,1791,"Exclude",3
"SWR2012_e1","SWR2012_e1_5",2,1,"pure","Strong",17,2063,"Exclude",4
"SWR2012_e1","SWR2012_e1_5",2,0,"pure","Strong",1,1097,"Exclude",5
"SWR2012_e1","SWR2012_e1_5",2,1,"pure","Strong",20,1076,"Exclude",6
"SWR2012_e1","SWR2012_e1_5",2,0,"pure","Strong",1,982,"Exclude",7
"SWR2012_e1","SWR2012_e1_5",2,0,"pure","Strong",1,644,"Exclude",8
"SWR2012_e1","SWR2012_e1_5",2,0,"pure","Strong",5,2243,"Exclude",9
"SWR2012_e1","SWR2012_e1_5",2,0,"pure","Strong",3,1455,"Exclude",10
"SWR2012_e1","SWR2012_e1_5",2,0,"pure","Strong",3,749,"Exclude",11
"SWR2012_e1","SWR2012_e1_5",2,1,"pure","Strong",20,958,"Exclude",12
"SWR2012_e1","SWR2012_e1_5",2,0,"pure","Strong",7,2676,"Exclude",13
"SWR2012_e1","SWR2012_e1_5",2,1,"pure","Strong",20,897,"Exclude",14
"SWR2012_e1","SWR2012_e1_5",2,1,"pure","Strong",20,508,"Exclude",15
"SWR2012_e1","SWR2012_e1_5",2,0,"pure","Strong",13,2213,"Exclude",16
"SWR2012_e1","SWR2012_e1_5",2,0,"pure","Strong",1,1205,"Exclude",17
"SWR2012_e1","SWR2012_e1_5",2,1,"pure","Strong",20,959,"Exclude",18
"SWR2012_e1","SWR2012_e1_5",2,1,"pure","Strong",20,498,"Exclude",19
"SWR2012_e1","SWR2012_e1_5",2,0,"pure","Strong",1,1318,"Exclude",20
"SWR2012_e1","SWR2012_e1_5",2,1,"pure","Strong",20,718,"Exclude",21
"SWR2012_e1","SWR2012_e1_5",2,1,"pure","Strong",20,582,"Exclude",22
"SWR2012_e1","SWR2012_e1_5",2,1,"pure","Strong",20,507,"Exclude",23
"SWR2012_e1","SWR2012_e1_5",2,1,"pure","Strong",20,623,"Exclude",24
"SWR2012_e1","SWR2012_e1_5",3,0,"pure","Strong",4,3578,"Include",1
"SWR2012_e1","SWR2012_e1_5",3,1,"pure","Strong",20,718,"Include",2
"SWR2012_e1","SWR2012_e1_5",3,1,"pure","Strong",5,2889,"Include",3
"SWR2012_e1","SWR2012_e1_5",3,0,"pure","Strong",2,1570,"Include",4
"SWR2012_e1","SWR2012_e1_5",3,1,"pure","Strong",20,559,"Include",5
"SWR2012_e1","SWR2012_e1_5",3,0,"pure","Strong",2,835,"Include",6
"SWR2012_e1","SWR2012_e1_5",3,1,"pure","Strong",20,780,"Include",7
"SWR2012_e1","SWR2012_e1_5",3,1,"pure","Strong",20,540,"Include",8
"SWR2012_e1","SWR2012_e1_5",3,1,"pure","Strong",20,551,"Include",9
"SWR2012_e1","SWR2012_e1_5",3,0,"pure","Strong",1,930,"Include",10
"SWR2012_e1","SWR2012_e1_5",3,0,"pure","Strong",1,780,"Include",11
"SWR2012_e1","SWR2012_e1_5",3,0,"pure","Strong",1,643,"Include",12
"SWR2012_e1","SWR2012_e1_5",3,1,"pure","Strong",20,538,"Include",13
"SWR2012_e1","SWR2012_e1_5",3,1,"pure","Strong",20,508,"Include",14
"SWR2012_e1","SWR2012_e1_5",3,1,"pure","Strong",13,2836,"Include",15
"SWR2012_e1","SWR2012_e1_5",3,0,"pure","Strong",4,1850,"Include",16
"SWR2012_e1","SWR2012_e1_5",3,1,"pure","Strong",14,5254,"Include",17
"SWR2012_e1","SWR2012_e1_5",3,0,"pure","Strong",2,1519,"Include",18
"SWR2012_e1","SWR2012_e1_5",3,1,"pure","Strong",20,2476,"Include",19
"SWR2012_e1","SWR2012_e1_5",3,0,"pure","Strong",1,1086,"Include",20
"SWR2012_e1","SWR2012_e1_5",3,0,"pure","Strong",17,2023,"Include",21
"SWR2012_e1","SWR2012_e1_5",3,0,"pure","Strong",3,1582,"Include",22
"SWR2012_e1","SWR2012_e1_5",3,1,"pure","Strong",20,1350,"Include",23
"SWR2012_e1","SWR2012_e1_5",3,0,"pure","Strong",3,2823,"Include",24
"SWR2012_e1","SWR2012_e1_5",4,1,"pure","Strong",20,1526,"Include",1
"SWR2012_e1","SWR2012_e1_5",4,0,"pure","Strong",2,2465,"Include",2
"SWR2012_e1","SWR2012_e1_5",4,0,"pure","Strong",2,919,"Include",3
"SWR2012_e1","SWR2012_e1_5",4,0,"pure","Strong",2,540,"Include",4
"SWR2012_e1","SWR2012_e1_5",4,0,"pure","Strong",1,919,"Include",5
"SWR2012_e1","SWR2012_e1_5",4,1,"pure","Strong",20,993,"Include",6
"SWR2012_e1","SWR2012_e1_5",4,1,"pure","Strong",20,834,"Include",7
"SWR2012_e1","SWR2012_e1_5",4,0,"pure","Strong",1,948,"Include",8
"SWR2012_e1","SWR2012_e1_5",4,0,"pure","Strong",3,2087,"Include",9
"SWR2012_e1","SWR2012_e1_5",4,1,"pure","Strong",16,2360,"Include",10
"SWR2012_e1","SWR2012_e1_5",4,1,"pure","Strong",20,803,"Include",11
"SWR2012_e1","SWR2012_e1_5",4,0,"pure","Strong",13,1950,"Include",12
"SWR2012_e1","SWR2012_e1_5",4,0,"pure","Strong",4,1689,"Include",13
"SWR2012_e1","SWR2012_e1_5",4,0,"pure","Strong",3,1296,"Include",14
"SWR2012_e1","SWR2012_e1_5",4,0,"pure","Strong",3,825,"Include",15
"SWR2012_e1","SWR2012_e1_5",4,1,"pure","Strong",20,802,"Include",16
"SWR2012_e1","SWR2012_e1_5",4,1,"pure","Strong",20,592,"Include",17
"SWR2012_e1","SWR2012_e1_5",4,1,"pure","Strong",20,643,"Include",18
"SWR2012_e1","SWR2012_e1_5",4,1,"pure","Strong",20,559,"Include",19
"SWR2012_e1","SWR2012_e1_5",4,0,"pure","Strong",2,2254,"Include",20
"SWR2012_e1","SWR2012_e1_5",4,1,"pure","Strong",12,2509,"Include",21
"SWR2012_e1","SWR2012_e1_5",4,1,"pure","Strong",20,1802,"Include",22
"SWR2012_e1","SWR2012_e1_5",4,0,"pure","Strong",4,1760,"Include",23
"SWR2012_e1","SWR2012_e1_5",4,1,"pure","Strong",4,1350,"Include",24
"SWR2012_e1","SWR2012_e1_5",5,1,"pure","Weak",2,2967,"Include",1
"SWR2012_e1","SWR2012_e1_5",5,0,"pure","Weak",3,2316,"Include",2
"SWR2012_e1","SWR2012_e1_5",5,1,"pure","Weak",4,2623,"Include",3
"SWR2012_e1","SWR2012_e1_5",5,0,"pure","Weak",4,1448,"Include",4
"SWR2012_e1","SWR2012_e1_5",5,0,"pure","Weak",6,4520,"Include",5
"SWR2012_e1","SWR2012_e1_5",5,1,"pure","Weak",3,1433,"Include",6
"SWR2012_e1","SWR2012_e1_5",5,0,"pure","Weak",3,1164,"Include",7
"SWR2012_e1","SWR2012_e1_5",5,0,"pure","Weak",3,687,"Include",8
"SWR2012_e1","SWR2012_e1_5",5,0,"pure","Weak",3,984,"Include",9
"SWR2012_e1","SWR2012_e1_5",5,1,"pure","Weak",3,3289,"Include",10
"SWR2012_e1","SWR2012_e1_5",5,1,"pure","Weak",4,2781,"Include",11
"SWR2012_e1","SWR2012_e1_5",5,1,"pure","Weak",4,1276,"Include",12
"SWR2012_e1","SWR2012_e1_5",5,0,"pure","Weak",5,1413,"Include",13
"SWR2012_e1","SWR2012_e1_5",5,1,"pure","Weak",3,3265,"Include",14
"SWR2012_e1","SWR2012_e1_5",5,0,"pure","Weak",3,2157,"Include",15
"SWR2012_e1","SWR2012_e1_5",5,0,"pure","Weak",12,2222,"Include",16
"SWR2012_e1","SWR2012_e1_5",5,1,"pure","Weak",20,1131,"Include",17
"SWR2012_e1","SWR2012_e1_5",5,1,"pure","Weak",20,2295,"Include",18
"SWR2012_e1","SWR2012_e1_5",5,0,"pure","Weak",5,3738,"Include",19
"SWR2012_e1","SWR2012_e1_5",5,1,"pure","Weak",4,1136,"Include",20
"SWR2012_e1","SWR2012_e1_5",5,0,"pure","Weak",5,1294,"Include",21
"SWR2012_e1","SWR2012_e1_5",5,0,"pure","Weak",5,1106,"Include",22
"SWR2012_e1","SWR2012_e1_5",5,1,"pure","Weak",20,688,"Include",23
"SWR2012_e1","SWR2012_e1_5",5,1,"pure","Weak",13,3149,"Include",24
"SWR2012_e1","SWR2012_e1_5",6,1,"pure","Weak",3,4029,"Include",1
"SWR2012_e1","SWR2012_e1_5",6,1,"pure","Weak",3,1019,"Include",2
"SWR2012_e1","SWR2012_e1_5",6,0,"pure","Weak",3,742,"Include",3
"SWR2012_e1","SWR2012_e1_5",6,0,"pure","Weak",2,1782,"Include",4
"SWR2012_e1","SWR2012_e1_5",6,1,"pure","Weak",6,2213,"Include",5
"SWR2012_e1","SWR2012_e1_5",6,1,"pure","Weak",3,1612,"Include",6
"SWR2012_e1","SWR2012_e1_5",6,0,"pure","Weak",3,1234,"Include",7
"SWR2012_e1","SWR2012_e1_5",6,1,"pure","Weak",20,1096,"Include",8
"SWR2012_e1","SWR2012_e1_5",6,0,"pure","Weak",3,2025,"Include",9
"SWR2012_e1","SWR2012_e1_5",6,0,"pure","Weak",5,3295,"Include",10
"SWR2012_e1","SWR2012_e1_5",6,0,"pure","Weak",4,1242,"Include",11
"SWR2012_e1","SWR2012_e1_5",6,0,"pure","Weak",4,1054,"Include",12
"SWR2012_e1","SWR2012_e1_5",6,1,"pure","Weak",5,3347,"Include",13
"SWR2012_e1","SWR2012_e1_5",6,0,"pure","Weak",4,1062,"Include",14
"SWR2012_e1","SWR2012_e1_5",6,1,"pure","Weak",20,1024,"Include",15
"SWR2012_e1","SWR2012_e1_5",6,1,"pure","Weak",12,2045,"Include",16
"SWR2012_e1","SWR2012_e1_5",6,1,"pure","Weak",20,708,"Include",17
"SWR2012_e1","SWR2012_e1_5",6,1,"pure","Weak",20,571,"Include",18
"SWR2012_e1","SWR2012_e1_5",6,0,"pure","Weak",4,2295,"Include",19
"SWR2012_e1","SWR2012_e1_5",6,1,"pure","Weak",20,947,"Include",20
"SWR2012_e1","SWR2012_e1_5",6,0,"pure","Weak",14,2212,"Include",21
"SWR2012_e1","SWR2012_e1_5",6,0,"pure","Weak",4,1141,"Include",22
"SWR2012_e1","SWR2012_e1_5",6,1,"pure","Weak",20,696,"Include",23
"SWR2012_e1","SWR2012_e1_5",6,0,"pure","Weak",6,2611,"Include",24
"SWR2012_e1","SWR2012_e1_5",7,0,"pure","Weak",4,2621,"Include",1
"SWR2012_e1","SWR2012_e1_5",7,1,"pure","Weak",4,877,"Include",2
"SWR2012_e1","SWR2012_e1_5",7,0,"pure","Weak",4,2352,"Include",3
"SWR2012_e1","SWR2012_e1_5",7,1,"pure","Weak",4,2887,"Include",4
"SWR2012_e1","SWR2012_e1_5",7,1,"pure","Weak",5,2020,"Include",5
"SWR2012_e1","SWR2012_e1_5",7,1,"pure","Weak",20,1392,"Include",6
"SWR2012_e1","SWR2012_e1_5",7,0,"pure","Weak",4,1424,"Include",7
"SWR2012_e1","SWR2012_e1_5",7,0,"pure","Weak",5,2170,"Include",8
"SWR2012_e1","SWR2012_e1_5",7,1,"pure","Weak",12,2298,"Include",9
"SWR2012_e1","SWR2012_e1_5",7,1,"pure","Weak",8,3333,"Include",10
"SWR2012_e1","SWR2012_e1_5",7,0,"pure","Weak",3,1708,"Include",11
"SWR2012_e1","SWR2012_e1_5",7,1,"pure","Weak",20,762,"Include",12
"SWR2012_e1","SWR2012_e1_5",7,0,"pure","Weak",8,3002,"Include",13
"SWR2012_e1","SWR2012_e1_5",7,1,"pure","Weak",4,3045,"Include",14
"SWR2012_e1","SWR2012_e1_5",7,0,"pure","Weak",4,867,"Include",15
"SWR2012_e1","SWR2012_e1_5",7,0,"pure","Weak",1,2075,"Include",16
"SWR2012_e1","SWR2012_e1_5",7,1,"pure","Weak",7,4257,"Include",17
"SWR2012_e1","SWR2012_e1_5",7,0,"pure","Weak",4,1525,"Include",18
"SWR2012_e1","SWR2012_e1_5",7,1,"pure","Weak",5,2246,"Include",19
"SWR2012_e1","SWR2012_e1_5",7,0,"pure","Weak",5,5591,"Include",20
"SWR2012_e1","SWR2012_e1_5",7,1,"pure","Weak",5,1615,"Include",21
"SWR2012_e1","SWR2012_e1_5",7,1,"pure","Weak",12,1942,"Include",22
"SWR2012_e1","SWR2012_e1_5",7,0,"pure","Weak",3,1793,"Include",23
"SWR2012_e1","SWR2012_e1_5",7,0,"pure","Weak",4,2036,"Include",24
"SWR2012_e1","SWR2012_e1_5",8,0,"pure","Weak",4,2379,"Include",1
"SWR2012_e1","SWR2012_e1_5",8,0,"pure","Weak",4,811,"Include",2
"SWR2012_e1","SWR2012_e1_5",8,0,"pure","Weak",5,3527,"Include",3
"SWR2012_e1","SWR2012_e1_5",8,0,"pure","Weak",2,1635,"Include",4
"SWR2012_e1","SWR2012_e1_5",8,1,"pure","Weak",2,1066,"Include",5
"SWR2012_e1","SWR2012_e1_5",8,1,"pure","Weak",20,1005,"Include",6
"SWR2012_e1","SWR2012_e1_5",8,0,"pure","Weak",3,1161,"Include",7
"SWR2012_e1","SWR2012_e1_5",8,1,"pure","Weak",6,1759,"Include",8
"SWR2012_e1","SWR2012_e1_5",8,1,"pure","Weak",6,2130,"Include",9
"SWR2012_e1","SWR2012_e1_5",8,1,"pure","Weak",17,3004,"Include",10
"SWR2012_e1","SWR2012_e1_5",8,0,"pure","Weak",4,1879,"Include",11
"SWR2012_e1","SWR2012_e1_5",8,1,"pure","Weak",16,1686,"Include",12
"SWR2012_e1","SWR2012_e1_5",8,1,"pure","Weak",20,1049,"Include",13
"SWR2012_e1","SWR2012_e1_5",8,1,"pure","Weak",4,1657,"Include",14
"SWR2012_e1","SWR2012_e1_5",8,1,"pure","Weak",20,793,"Include",15
"SWR2012_e1","SWR2012_e1_5",8,0,"pure","Weak",4,2118,"Include",16
"SWR2012_e1","SWR2012_e1_5",8,0,"pure","Weak",11,2457,"Include",17
"SWR2012_e1","SWR2012_e1_5",8,0,"pure","Weak",6,1971,"Include",18
"SWR2012_e1","SWR2012_e1_5",8,1,"pure","Weak",2,1424,"Include",19
"SWR2012_e1","SWR2012_e1_5",8,0,"pure","Weak",2,2363,"Include",20
"SWR2012_e1","SWR2012_e1_5",8,0,"pure","Weak",2,784,"Include",21
"SWR2012_e1","SWR2012_e1_5",8,1,"pure","Weak",2,1374,"Include",22
"SWR2012_e1","SWR2012_e1_5",8,1,"pure","Weak",3,1742,"Include",23
"SWR2012_e1","SWR2012_e1_5",8,0,"pure","Weak",5,2543,"Include",24
"SWR2012_e1","SWR2012_e1_5",9,0,"pure","Strong",3,1686,"Include",1
"SWR2012_e1","SWR2012_e1_5",9,0,"pure","Strong",3,979,"Include",2
"SWR2012_e1","SWR2012_e1_5",9,0,"pure","Strong",3,791,"Include",3
"SWR2012_e1","SWR2012_e1_5",9,0,"pure","Strong",3,592,"Include",4
"SWR2012_e1","SWR2012_e1_5",9,1,"pure","Strong",4,1919,"Include",5
"SWR2012_e1","SWR2012_e1_5",9,0,"pure","Strong",3,847,"Include",6
"SWR2012_e1","SWR2012_e1_5",9,1,"pure","Strong",20,871,"Include",7
"SWR2012_e1","SWR2012_e1_5",9,0,"pure","Strong",6,2023,"Include",8
"SWR2012_e1","SWR2012_e1_5",9,1,"pure","Strong",20,736,"Include",9
"SWR2012_e1","SWR2012_e1_5",9,1,"pure","Strong",4,1328,"Include",10
"SWR2012_e1","SWR2012_e1_5",9,1,"pure","Strong",5,2709,"Include",11
"SWR2012_e1","SWR2012_e1_5",9,1,"pure","Strong",5,1950,"Include",12
"SWR2012_e1","SWR2012_e1_5",9,0,"pure","Strong",5,761,"Include",13
"SWR2012_e1","SWR2012_e1_5",9,1,"pure","Strong",5,1192,"Include",14
"SWR2012_e1","SWR2012_e1_5",9,0,"pure","Strong",4,1276,"Include",15
"SWR2012_e1","SWR2012_e1_5",9,1,"pure","Strong",20,898,"Include",16
"SWR2012_e1","SWR2012_e1_5",9,0,"pure","Strong",4,1087,"Include",17
"SWR2012_e1","SWR2012_e1_5",9,1,"pure","Strong",16,3203,"Include",18
"SWR2012_e1","SWR2012_e1_5",9,0,"pure","Strong",4,1477,"Include",19
"SWR2012_e1","SWR2012_e1_5",9,1,"pure","Strong",4,994,"Include",20
"SWR2012_e1","SWR2012_e1_5",9,0,"pure","Strong",4,1677,"Include",21
"SWR2012_e1","SWR2012_e1_5",9,0,"pure","Strong",4,1214,"Include",22
"SWR2012_e1","SWR2012_e1_5",9,1,"pure","Strong",20,751,"Include",23
"SWR2012_e1","SWR2012_e1_5",9,1,"pure","Strong",20,592,"Include",24
"SWR2012_e1","SWR2012_e1_5",10,1,"pure","Strong",20,1295,"Include",1
"SWR2012_e1","SWR2012_e1_5",10,1,"pure","Strong",20,938,"Include",2
"SWR2012_e1","SWR2012_e1_5",10,1,"pure","Strong",14,2234,"Include",3
"SWR2012_e1","SWR2012_e1_5",10,1,"pure","Strong",14,1453,"Include",4
"SWR2012_e1","SWR2012_e1_5",10,0,"pure","Strong",4,1475,"Include",5
"SWR2012_e1","SWR2012_e1_5",10,0,"pure","Strong",4,730,"Include",6
"SWR2012_e1","SWR2012_e1_5",10,0,"pure","Strong",4,625,"Include",7
"SWR2012_e1","SWR2012_e1_5",10,0,"pure","Strong",3,1434,"Include",8
"SWR2012_e1","SWR2012_e1_5",10,0,"pure","Strong",3,782,"Include",9
"SWR2012_e1","SWR2012_e1_5",10,0,"pure","Strong",3,573,"Include",10
"SWR2012_e1","SWR2012_e1_5",10,0,"pure","Strong",3,1005,"Include",11
"SWR2012_e1","SWR2012_e1_5",10,0,"pure","Strong",3,1584,"Include",12
"SWR2012_e1","SWR2012_e1_5",10,0,"pure","Strong",3,895,"Include",13
"SWR2012_e1","SWR2012_e1_5",10,1,"pure","Strong",3,1411,"Include",14
"SWR2012_e1","SWR2012_e1_5",10,0,"pure","Strong",3,677,"Include",15
"SWR2012_e1","SWR2012_e1_5",10,0,"pure","Strong",3,1321,"Include",16
"SWR2012_e1","SWR2012_e1_5",10,1,"pure","Strong",4,1077,"Include",17
"SWR2012_e1","SWR2012_e1_5",10,1,"pure","Strong",4,794,"Include",18
"SWR2012_e1","SWR2012_e1_5",10,1,"pure","Strong",20,895,"Include",19
"SWR2012_e1","SWR2012_e1_5",10,1,"pure","Strong",5,2066,"Include",20
"SWR2012_e1","SWR2012_e1_5",10,1,"pure","Strong",12,3877,"Include",21
"SWR2012_e1","SWR2012_e1_5",10,1,"pure","Strong",20,710,"Include",22
"SWR2012_e1","SWR2012_e1_5",10,1,"pure","Strong",20,541,"Include",23
"SWR2012_e1","SWR2012_e1_5",10,0,"pure","Strong",7,3360,"Include",24
"SWR2012_e1","SWR2012_e1_5",11,0,"pure","Strong",1,2347,"Include",1
"SWR2012_e1","SWR2012_e1_5",11,0,"pure","Strong",2,1748,"Include",2
"SWR2012_e1","SWR2012_e1_5",11,1,"pure","Strong",15,4023,"Include",3
"SWR2012_e1","SWR2012_e1_5",11,1,"pure","Strong",6,2666,"Include",4
"SWR2012_e1","SWR2012_e1_5",11,0,"pure","Strong",4,1655,"Include",5
"SWR2012_e1","SWR2012_e1_5",11,1,"pure","Strong",4,997,"Include",6
"SWR2012_e1","SWR2012_e1_5",11,0,"pure","Strong",4,504,"Include",7
"SWR2012_e1","SWR2012_e1_5",11,0,"pure","Strong",5,1294,"Include",8
"SWR2012_e1","SWR2012_e1_5",11,1,"pure","Strong",5,1218,"Include",9
"SWR2012_e1","SWR2012_e1_5",11,0,"pure","Strong",5,626,"Include",10
"SWR2012_e1","SWR2012_e1_5",11,1,"pure","Strong",6,3446,"Include",11
"SWR2012_e1","SWR2012_e1_5",11,1,"pure","Strong",3,1427,"Include",12
"SWR2012_e1","SWR2012_e1_5",11,0,"pure","Strong",3,965,"Include",13
"SWR2012_e1","SWR2012_e1_5",11,1,"pure","Strong",20,1037,"Include",14
"SWR2012_e1","SWR2012_e1_5",11,1,"pure","Strong",20,626,"Include",15
"SWR2012_e1","SWR2012_e1_5",11,0,"pure","Strong",12,2466,"Include",16
"SWR2012_e1","SWR2012_e1_5",11,0,"pure","Strong",1,1291,"Include",17
"SWR2012_e1","SWR2012_e1_5",11,1,"pure","Strong",11,2768,"Include",18
"SWR2012_e1","SWR2012_e1_5",11,1,"pure","Strong",20,974,"Include",19
"SWR2012_e1","SWR2012_e1_5",11,1,"pure","Strong",6,3001,"Include",20
"SWR2012_e1","SWR2012_e1_5",11,0,"pure","Strong",2,1330,"Include",21
"SWR2012_e1","SWR2012_e1_5",11,1,"pure","Strong",20,796,"Include",22
"SWR2012_e1","SWR2012_e1_5",11,0,"pure","Strong",2,2394,"Include",23
"SWR2012_e1","SWR2012_e1_5",11,0,"pure","Strong",2,964,"Include",24
"SWR2012_e1","SWR2012_e1_5",12,0,"pure","Weak",4,2473,"Include",1
"SWR2012_e1","SWR2012_e1_5",12,1,"pure","Weak",5,1200,"Include",2
"SWR2012_e1","SWR2012_e1_5",12,1,"pure","Weak",4,1819,"Include",3
"SWR2012_e1","SWR2012_e1_5",12,0,"pure","Weak",4,831,"Include",4
"SWR2012_e1","SWR2012_e1_5",12,1,"pure","Weak",20,1178,"Include",5
"SWR2012_e1","SWR2012_e1_5",12,1,"pure","Weak",8,2835,"Include",6
"SWR2012_e1","SWR2012_e1_5",12,1,"pure","Weak",7,1981,"Include",7
"SWR2012_e1","SWR2012_e1_5",12,1,"pure","Weak",7,3969,"Include",8
"SWR2012_e1","SWR2012_e1_5",12,1,"pure","Weak",20,1560,"Include",9
"SWR2012_e1","SWR2012_e1_5",12,0,"pure","Weak",4,2254,"Include",10
"SWR2012_e1","SWR2012_e1_5",12,0,"pure","Weak",2,1699,"Include",11
"SWR2012_e1","SWR2012_e1_5",12,1,"pure","Weak",17,1736,"Include",12
"SWR2012_e1","SWR2012_e1_5",12,1,"pure","Weak",9,2784,"Include",13
"SWR2012_e1","SWR2012_e1_5",12,1,"pure","Weak",20,801,"Include",14
"SWR2012_e1","SWR2012_e1_5",12,0,"pure","Weak",5,3675,"Include",15
"SWR2012_e1","SWR2012_e1_5",12,0,"pure","Weak",4,961,"Include",16
"SWR2012_e1","SWR2012_e1_5",12,0,"pure","Weak",7,2057,"Include",17
"SWR2012_e1","SWR2012_e1_5",12,0,"pure","Weak",3,1265,"Include",18
"SWR2012_e1","SWR2012_e1_5",12,1,"pure","Weak",11,3245,"Include",19
"SWR2012_e1","SWR2012_e1_5",12,0,"pure","Weak",4,2400,"Include",20
"SWR2012_e1","SWR2012_e1_5",12,0,"pure","Weak",4,740,"Include",21
"SWR2012_e1","SWR2012_e1_5",12,1,"pure","Weak",4,698,"Include",22
"SWR2012_e1","SWR2012_e1_5",12,0,"pure","Weak",3,2660,"Include",23
"SWR2012_e1","SWR2012_e1_5",12,0,"pure","Weak",12,1709,"Include",24
"SWR2012_e1","SWR2012_e1_6",1,0,"pure","Weak",3,9217,"Exclude",1
"SWR2012_e1","SWR2012_e1_6",1,1,"pure","Weak",4,2525,"Exclude",2
"SWR2012_e1","SWR2012_e1_6",1,1,"pure","Weak",20,1783,"Exclude",3
"SWR2012_e1","SWR2012_e1_6",1,1,"pure","Weak",17,1796,"Exclude",4
"SWR2012_e1","SWR2012_e1_6",1,0,"pure","Weak",1,1336,"Exclude",5
"SWR2012_e1","SWR2012_e1_6",1,0,"pure","Weak",1,1014,"Exclude",6
"SWR2012_e1","SWR2012_e1_6",1,0,"pure","Weak",8,1741,"Exclude",7
"SWR2012_e1","SWR2012_e1_6",1,0,"pure","Weak",1,2123,"Exclude",8
"SWR2012_e1","SWR2012_e1_6",1,0,"pure","Weak",1,822,"Exclude",9
"SWR2012_e1","SWR2012_e1_6",1,1,"pure","Weak",19,1510,"Exclude",10
"SWR2012_e1","SWR2012_e1_6",1,1,"pure","Weak",19,1636,"Exclude",11
"SWR2012_e1","SWR2012_e1_6",1,1,"pure","Weak",8,1650,"Exclude",12
"SWR2012_e1","SWR2012_e1_6",1,0,"pure","Weak",8,1224,"Exclude",13
"SWR2012_e1","SWR2012_e1_6",1,0,"pure","Weak",8,945,"Exclude",14
"SWR2012_e1","SWR2012_e1_6",1,0,"pure","Weak",8,1642,"Exclude",15
"SWR2012_e1","SWR2012_e1_6",1,1,"pure","Weak",14,3700,"Exclude",16
"SWR2012_e1","SWR2012_e1_6",1,1,"pure","Weak",14,1942,"Exclude",17
"SWR2012_e1","SWR2012_e1_6",1,1,"pure","Weak",19,4277,"Exclude",18
"SWR2012_e1","SWR2012_e1_6",1,1,"pure","Weak",19,700,"Exclude",19
"SWR2012_e1","SWR2012_e1_6",1,1,"pure","Weak",19,2158,"Exclude",20
"SWR2012_e1","SWR2012_e1_6",1,0,"pure","Weak",1,1097,"Exclude",21
"SWR2012_e1","SWR2012_e1_6",1,1,"pure","Weak",8,1271,"Exclude",22
"SWR2012_e1","SWR2012_e1_6",1,0,"pure","Weak",16,1536,"Exclude",23
"SWR2012_e1","SWR2012_e1_6",1,0,"pure","Weak",6,1609,"Exclude",24
"SWR2012_e1","SWR2012_e1_6",2,1,"pure","Strong",19,4070,"Exclude",1
"SWR2012_e1","SWR2012_e1_6",2,1,"pure","Strong",18,1615,"Exclude",2
"SWR2012_e1","SWR2012_e1_6",2,1,"pure","Strong",20,950,"Exclude",3
"SWR2012_e1","SWR2012_e1_6",2,1,"pure","Strong",20,934,"Exclude",4
"SWR2012_e1","SWR2012_e1_6",2,1,"pure","Strong",1,2370,"Exclude",5
"SWR2012_e1","SWR2012_e1_6",2,0,"pure","Strong",1,875,"Exclude",6
"SWR2012_e1","SWR2012_e1_6",2,1,"pure","Strong",20,1254,"Exclude",7
"SWR2012_e1","SWR2012_e1_6",2,0,"pure","Strong",1,1490,"Exclude",8
"SWR2012_e1","SWR2012_e1_6",2,0,"pure","Strong",1,1316,"Exclude",9
"SWR2012_e1","SWR2012_e1_6",2,0,"pure","Strong",10,1938,"Exclude",10
"SWR2012_e1","SWR2012_e1_6",2,0,"pure","Strong",1,1166,"Exclude",11
"SWR2012_e1","SWR2012_e1_6",2,0,"pure","Strong",1,722,"Exclude",12
"SWR2012_e1","SWR2012_e1_6",2,0,"pure","Strong",1,844,"Exclude",13
"SWR2012_e1","SWR2012_e1_6",2,0,"pure","Strong",7,2426,"Exclude",14
"SWR2012_e1","SWR2012_e1_6",2,0,"pure","Strong",1,1243,"Exclude",15
"SWR2012_e1","SWR2012_e1_6",2,1,"pure","Strong",10,1355,"Exclude",16
"SWR2012_e1","SWR2012_e1_6",2,0,"pure","Strong",5,2347,"Exclude",17
"SWR2012_e1","SWR2012_e1_6",2,1,"pure","Strong",20,2586,"Exclude",18
"SWR2012_e1","SWR2012_e1_6",2,1,"pure","Strong",20,1182,"Exclude",19
"SWR2012_e1","SWR2012_e1_6",2,0,"pure","Strong",1,1089,"Exclude",20
"SWR2012_e1","SWR2012_e1_6",2,1,"pure","Strong",20,1211,"Exclude",21
"SWR2012_e1","SWR2012_e1_6",2,1,"pure","Strong",8,3580,"Exclude",22
"SWR2012_e1","SWR2012_e1_6",2,0,"pure","Strong",8,1647,"Exclude",23
"SWR2012_e1","SWR2012_e1_6",2,1,"pure","Strong",4,4033,"Exclude",24
"SWR2012_e1","SWR2012_e1_6",3,0,"pure","Strong",1,2311,"Include",1
"SWR2012_e1","SWR2012_e1_6",3,0,"pure","Strong",1,942,"Include",2
"SWR2012_e1","SWR2012_e1_6",3,0,"pure","Strong",9,1966,"Include",3
"SWR2012_e1","SWR2012_e1_6",3,1,"pure","Strong",20,1038,"Include",4
"SWR2012_e1","SWR2012_e1_6",3,0,"pure","Strong",1,1060,"Include",5
"SWR2012_e1","SWR2012_e1_6",3,0,"pure","Strong",1,844,"Include",6
"SWR2012_e1","SWR2012_e1_6",3,0,"pure","Strong",8,2629,"Include",7
"SWR2012_e1","SWR2012_e1_6",3,1,"pure","Strong",5,1998,"Include",8
"SWR2012_e1","SWR2012_e1_6",3,1,"pure","Strong",16,1697,"Include",9
"SWR2012_e1","SWR2012_e1_6",3,1,"pure","Strong",20,1841,"Include",10
"SWR2012_e1","SWR2012_e1_6",3,1,"pure","Strong",2,1434,"Include",11
"SWR2012_e1","SWR2012_e1_6",3,1,"pure","Strong",20,982,"Include",12
"SWR2012_e1","SWR2012_e1_6",3,1,"pure","Strong",20,785,"Include",13
"SWR2012_e1","SWR2012_e1_6",3,0,"pure","Strong",1,942,"Include",14
"SWR2012_e1","SWR2012_e1_6",3,1,"pure","Strong",16,2357,"Include",15
"SWR2012_e1","SWR2012_e1_6",3,1,"pure","Strong",20,958,"Include",16
"SWR2012_e1","SWR2012_e1_6",3,0,"pure","Strong",2,1860,"Include",17
"SWR2012_e1","SWR2012_e1_6",3,0,"pure","Strong",1,1212,"Include",18
"SWR2012_e1","SWR2012_e1_6",3,1,"pure","Strong",9,1214,"Include",19
"SWR2012_e1","SWR2012_e1_6",3,1,"pure","Strong",20,966,"Include",20
"SWR2012_e1","SWR2012_e1_6",3,1,"pure","Strong",15,2123,"Include",21
"SWR2012_e1","SWR2012_e1_6",3,0,"pure","Strong",8,1679,"Include",22
"SWR2012_e1","SWR2012_e1_6",3,0,"pure","Strong",2,2229,"Include",23
"SWR2012_e1","SWR2012_e1_6",3,0,"pure","Strong",10,1783,"Include",24
"SWR2012_e1","SWR2012_e1_6",4,1,"pure","Strong",12,3376,"Include",1
"SWR2012_e1","SWR2012_e1_6",4,0,"pure","Strong",1,1500,"Include",2
"SWR2012_e1","SWR2012_e1_6",4,1,"pure","Strong",20,1200,"Include",3
"SWR2012_e1","SWR2012_e1_6",4,1,"pure","Strong",20,634,"Include",4
"SWR2012_e1","SWR2012_e1_6",4,1,"pure","Strong",20,1240,"Include",5
"SWR2012_e1","SWR2012_e1_6",4,0,"pure","Strong",1,1134,"Include",6
"SWR2012_e1","SWR2012_e1_6",4,0,"pure","Strong",8,1250,"Include",7
"SWR2012_e1","SWR2012_e1_6",4,0,"pure","Strong",1,1022,"Include",8
"SWR2012_e1","SWR2012_e1_6",4,0,"pure","Strong",1,1358,"Include",9
"SWR2012_e1","SWR2012_e1_6",4,0,"pure","Strong",8,1533,"Include",10
"SWR2012_e1","SWR2012_e1_6",4,1,"pure","Strong",20,998,"Include",11
"SWR2012_e1","SWR2012_e1_6",4,0,"pure","Strong",1,1621,"Include",12
"SWR2012_e1","SWR2012_e1_6",4,1,"pure","Strong",20,935,"Include",13
"SWR2012_e1","SWR2012_e1_6",4,0,"pure","Strong",8,1708,"Include",14
"SWR2012_e1","SWR2012_e1_6",4,1,"pure","Strong",17,5910,"Include",15
"SWR2012_e1","SWR2012_e1_6",4,0,"pure","Strong",4,2120,"Include",16
"SWR2012_e1","SWR2012_e1_6",4,0,"pure","Strong",8,1531,"Include",17
"SWR2012_e1","SWR2012_e1_6",4,0,"pure","Strong",4,1639,"Include",18
"SWR2012_e1","SWR2012_e1_6",4,1,"pure","Strong",20,1184,"Include",19
"SWR2012_e1","SWR2012_e1_6",4,1,"pure","Strong",11,4080,"Include",20
"SWR2012_e1","SWR2012_e1_6",4,0,"pure","Strong",11,972,"Include",21
"SWR2012_e1","SWR2012_e1_6",4,1,"pure","Strong",20,1135,"Include",22
"SWR2012_e1","SWR2012_e1_6",4,1,"pure","Strong",8,1347,"Include",23
"SWR2012_e1","SWR2012_e1_6",4,1,"pure","Strong",9,1137,"Include",24
"SWR2012_e1","SWR2012_e1_6",5,1,"pure","Strong",1,1387,"Include",1
"SWR2012_e1","SWR2012_e1_6",5,1,"pure","Strong",20,917,"Include",2
"SWR2012_e1","SWR2012_e1_6",5,0,"pure","Strong",1,897,"Include",3
"SWR2012_e1","SWR2012_e1_6",5,0,"pure","Strong",1,2413,"Include",4
"SWR2012_e1","SWR2012_e1_6",5,1,"pure","Strong",20,1156,"Include",5
"SWR2012_e1","SWR2012_e1_6",5,0,"pure","Strong",1,1123,"Include",6
"SWR2012_e1","SWR2012_e1_6",5,0,"pure","Strong",2,2491,"Include",7
"SWR2012_e1","SWR2012_e1_6",5,1,"pure","Strong",20,780,"Include",8
"SWR2012_e1","SWR2012_e1_6",5,0,"pure","Strong",1,1272,"Include",9
"SWR2012_e1","SWR2012_e1_6",5,1,"pure","Strong",20,1113,"Include",10
"SWR2012_e1","SWR2012_e1_6",5,0,"pure","Strong",2,1227,"Include",11
"SWR2012_e1","SWR2012_e1_6",5,1,"pure","Strong",3,2158,"Include",12
"SWR2012_e1","SWR2012_e1_6",5,1,"pure","Strong",17,2096,"Include",13
"SWR2012_e1","SWR2012_e1_6",5,0,"pure","Strong",1,770,"Include",14
"SWR2012_e1","SWR2012_e1_6",5,0,"pure","Strong",1,4730,"Include",15
"SWR2012_e1","SWR2012_e1_6",5,0,"pure","Strong",1,786,"Include",16
"SWR2012_e1","SWR2012_e1_6",5,0,"pure","Strong",1,749,"Include",17
"SWR2012_e1","SWR2012_e1_6",5,1,"pure","Strong",20,688,"Include",18
"SWR2012_e1","SWR2012_e1_6",5,1,"pure","Strong",20,948,"Include",19
"SWR2012_e1","SWR2012_e1_6",5,0,"pure","Strong",16,1652,"Include",20
"SWR2012_e1","SWR2012_e1_6",5,1,"pure","Strong",14,1602,"Include",21
"SWR2012_e1","SWR2012_e1_6",5,0,"pure","Strong",1,1629,"Include",22
"SWR2012_e1","SWR2012_e1_6",5,1,"pure","Strong",8,1763,"Include",23
"SWR2012_e1","SWR2012_e1_6",5,1,"pure","Strong",20,990,"Include",24
"SWR2012_e1","SWR2012_e1_6",6,0,"pure","Strong",1,3083,"Include",1
"SWR2012_e1","SWR2012_e1_6",6,1,"pure","Strong",20,786,"Include",2
"SWR2012_e1","SWR2012_e1_6",6,1,"pure","Strong",14,1493,"Include",3
"SWR2012_e1","SWR2012_e1_6",6,1,"pure","Strong",20,1019,"Include",4
"SWR2012_e1","SWR2012_e1_6",6,1,"pure","Strong",3,1458,"Include",5
"SWR2012_e1","SWR2012_e1_6",6,0,"pure","Strong",1,863,"Include",6
"SWR2012_e1","SWR2012_e1_6",6,1,"pure","Strong",20,2025,"Include",7
"SWR2012_e1","SWR2012_e1_6",6,0,"pure","Strong",1,1118,"Include",8
"SWR2012_e1","SWR2012_e1_6",6,0,"pure","Strong",3,1437,"Include",9
"SWR2012_e1","SWR2012_e1_6",6,1,"pure","Strong",20,868,"Include",10
"SWR2012_e1","SWR2012_e1_6",6,0,"pure","Strong",1,1301,"Include",11
"SWR2012_e1","SWR2012_e1_6",6,0,"pure","Strong",1,845,"Include",12
"SWR2012_e1","SWR2012_e1_6",6,1,"pure","Strong",1,829,"Include",13
"SWR2012_e1","SWR2012_e1_6",6,0,"pure","Strong",3,1366,"Include",14
"SWR2012_e1","SWR2012_e1_6",6,0,"pure","Strong",1,1017,"Include",15
"SWR2012_e1","SWR2012_e1_6",6,1,"pure","Strong",9,1433,"Include",16
"SWR2012_e1","SWR2012_e1_6",6,1,"pure","Strong",20,1357,"Include",17
"SWR2012_e1","SWR2012_e1_6",6,0,"pure","Strong",1,777,"Include",18
"SWR2012_e1","SWR2012_e1_6",6,1,"pure","Strong",1,1395,"Include",19
"SWR2012_e1","SWR2012_e1_6",6,0,"pure","Strong",1,1054,"Include",20
"SWR2012_e1","SWR2012_e1_6",6,0,"pure","Strong",10,2190,"Include",21
"SWR2012_e1","SWR2012_e1_6",6,0,"pure","Strong",1,788,"Include",22
"SWR2012_e1","SWR2012_e1_6",6,1,"pure","Strong",10,1986,"Include",23
"SWR2012_e1","SWR2012_e1_6",6,1,"pure","Strong",9,2708,"Include",24
"SWR2012_e1","SWR2012_e1_6",7,1,"pure","Weak",1,1778,"Include",1
"SWR2012_e1","SWR2012_e1_6",7,0,"pure","Weak",18,1541,"Include",2
"SWR2012_e1","SWR2012_e1_6",7,1,"pure","Weak",4,1814,"Include",3
"SWR2012_e1","SWR2012_e1_6",7,1,"pure","Weak",20,1689,"Include",4
"SWR2012_e1","SWR2012_e1_6",7,1,"pure","Weak",9,1575,"Include",5
"SWR2012_e1","SWR2012_e1_6",7,0,"pure","Weak",4,1485,"Include",6
"SWR2012_e1","SWR2012_e1_6",7,1,"pure","Weak",9,1272,"Include",7
"SWR2012_e1","SWR2012_e1_6",7,0,"pure","Weak",4,1354,"Include",8
"SWR2012_e1","SWR2012_e1_6",7,1,"pure","Weak",15,1897,"Include",9
"SWR2012_e1","SWR2012_e1_6",7,1,"pure","Weak",19,1349,"Include",10
"SWR2012_e1","SWR2012_e1_6",7,0,"pure","Weak",4,1506,"Include",11
"SWR2012_e1","SWR2012_e1_6",7,1,"pure","Weak",17,1466,"Include",12
"SWR2012_e1","SWR2012_e1_6",7,0,"pure","Weak",17,3479,"Include",13
"SWR2012_e1","SWR2012_e1_6",7,0,"pure","Weak",4,1564,"Include",14
"SWR2012_e1","SWR2012_e1_6",7,1,"pure","Weak",9,1918,"Include",15
"SWR2012_e1","SWR2012_e1_6",7,0,"pure","Weak",15,2402,"Include",16
"SWR2012_e1","SWR2012_e1_6",7,1,"pure","Weak",5,1689,"Include",17
"SWR2012_e1","SWR2012_e1_6",7,0,"pure","Weak",7,1634,"Include",18
"SWR2012_e1","SWR2012_e1_6",7,1,"pure","Weak",17,1033,"Include",19
"SWR2012_e1","SWR2012_e1_6",7,0,"pure","Weak",16,1453,"Include",20
"SWR2012_e1","SWR2012_e1_6",7,1,"pure","Weak",18,2209,"Include",21
"SWR2012_e1","SWR2012_e1_6",7,0,"pure","Weak",18,950,"Include",22
"SWR2012_e1","SWR2012_e1_6",7,0,"pure","Weak",7,1043,"Include",23
"SWR2012_e1","SWR2012_e1_6",7,0,"pure","Weak",14,862,"Include",24
"SWR2012_e1","SWR2012_e1_6",8,0,"pure","Weak",18,4309,"Include",1
"SWR2012_e1","SWR2012_e1_6",8,1,"pure","Weak",14,1482,"Include",2
"SWR2012_e1","SWR2012_e1_6",8,0,"pure","Weak",2,1612,"Include",3
"SWR2012_e1","SWR2012_e1_6",8,0,"pure","Weak",3,1410,"Include",4
"SWR2012_e1","SWR2012_e1_6",8,0,"pure","Weak",4,1213,"Include",5
"SWR2012_e1","SWR2012_e1_6",8,0,"pure","Weak",9,1482,"Include",6
"SWR2012_e1","SWR2012_e1_6",8,0,"pure","Weak",17,1200,"Include",7
"SWR2012_e1","SWR2012_e1_6",8,1,"pure","Weak",18,1014,"Include",8
"SWR2012_e1","SWR2012_e1_6",8,1,"pure","Weak",17,1359,"Include",9
"SWR2012_e1","SWR2012_e1_6",8,1,"pure","Weak",18,1016,"Include",10
"SWR2012_e1","SWR2012_e1_6",8,1,"pure","Weak",7,1240,"Include",11
"SWR2012_e1","SWR2012_e1_6",8,0,"pure","Weak",4,1115,"Include",12
"SWR2012_e1","SWR2012_e1_6",8,0,"pure","Weak",3,966,"Include",13
"SWR2012_e1","SWR2012_e1_6",8,1,"pure","Weak",17,1056,"Include",14
"SWR2012_e1","SWR2012_e1_6",8,1,"pure","Weak",18,937,"Include",15
"SWR2012_e1","SWR2012_e1_6",8,0,"pure","Weak",4,748,"Include",16
"SWR2012_e1","SWR2012_e1_6",8,0,"pure","Weak",12,3450,"Include",17
"SWR2012_e1","SWR2012_e1_6",8,1,"pure","Weak",8,898,"Include",18
"SWR2012_e1","SWR2012_e1_6",8,0,"pure","Weak",14,807,"Include",19
"SWR2012_e1","SWR2012_e1_6",8,1,"pure","Weak",9,665,"Include",20
"SWR2012_e1","SWR2012_e1_6",8,1,"pure","Weak",17,1059,"Include",21
"SWR2012_e1","SWR2012_e1_6",8,1,"pure","Weak",7,652,"Include",22
"SWR2012_e1","SWR2012_e1_6",8,0,"pure","Weak",17,1820,"Include",23
"SWR2012_e1","SWR2012_e1_6",8,1,"pure","Weak",17,1444,"Include",24
"SWR2012_e1","SWR2012_e1_6",9,1,"pure","Weak",19,2161,"Include",1
"SWR2012_e1","SWR2012_e1_6",9,0,"pure","Weak",4,1820,"Include",2
"SWR2012_e1","SWR2012_e1_6",9,1,"pure","Weak",20,1711,"Include",3
"SWR2012_e1","SWR2012_e1_6",9,0,"pure","Weak",3,1395,"Include",4
"SWR2012_e1","SWR2012_e1_6",9,1,"pure","Weak",9,985,"Include",5
"SWR2012_e1","SWR2012_e1_6",9,1,"pure","Weak",3,912,"Include",6
"SWR2012_e1","SWR2012_e1_6",9,0,"pure","Weak",9,1474,"Include",7
"SWR2012_e1","SWR2012_e1_6",9,1,"pure","Weak",16,2437,"Include",8
"SWR2012_e1","SWR2012_e1_6",9,0,"pure","Weak",14,2734,"Include",9
"SWR2012_e1","SWR2012_e1_6",9,0,"pure","Weak",7,1065,"Include",10
"SWR2012_e1","SWR2012_e1_6",9,1,"pure","Weak",6,1065,"Include",11
"SWR2012_e1","SWR2012_e1_6",9,1,"pure","Weak",18,1902,"Include",12
"SWR2012_e1","SWR2012_e1_6",9,0,"pure","Weak",7,1923,"Include",13
"SWR2012_e1","SWR2012_e1_6",9,1,"pure","Weak",19,1476,"Include",14
"SWR2012_e1","SWR2012_e1_6",9,0,"pure","Weak",3,1726,"Include",15
"SWR2012_e1","SWR2012_e1_6",9,1,"pure","Weak",9,1269,"Include",16
"SWR2012_e1","SWR2012_e1_6",9,0,"pure","Weak",9,907,"Include",17
"SWR2012_e1","SWR2012_e1_6",9,1,"pure","Weak",10,748,"Include",18
"SWR2012_e1","SWR2012_e1_6",9,1,"pure","Weak",20,1421,"Include",19
"SWR2012_e1","SWR2012_e1_6",9,0,"pure","Weak",10,1830,"Include",20
"SWR2012_e1","SWR2012_e1_6",9,0,"pure","Weak",3,1572,"Include",21
"SWR2012_e1","SWR2012_e1_6",9,0,"pure","Weak",3,727,"Include",22
"SWR2012_e1","SWR2012_e1_6",9,1,"pure","Weak",9,958,"Include",23
"SWR2012_e1","SWR2012_e1_6",9,0,"pure","Weak",17,1248,"Include",24
"SWR2012_e1","SWR2012_e1_6",10,0,"pure","Strong",1,2964,"Include",1
"SWR2012_e1","SWR2012_e1_6",10,0,"pure","Strong",1,836,"Include",2
"SWR2012_e1","SWR2012_e1_6",10,1,"pure","Strong",8,1490,"Include",3
"SWR2012_e1","SWR2012_e1_6",10,0,"pure","Strong",8,1639,"Include",4
"SWR2012_e1","SWR2012_e1_6",10,1,"pure","Strong",7,1939,"Include",5
"SWR2012_e1","SWR2012_e1_6",10,1,"pure","Strong",18,1641,"Include",6
"SWR2012_e1","SWR2012_e1_6",10,1,"pure","Strong",20,1064,"Include",7
"SWR2012_e1","SWR2012_e1_6",10,0,"pure","Strong",8,2825,"Include",8
"SWR2012_e1","SWR2012_e1_6",10,1,"pure","Strong",20,1416,"Include",9
"SWR2012_e1","SWR2012_e1_6",10,0,"pure","Strong",1,905,"Include",10
"SWR2012_e1","SWR2012_e1_6",10,1,"pure","Strong",1,924,"Include",11
"SWR2012_e1","SWR2012_e1_6",10,0,"pure","Strong",2,1047,"Include",12
"SWR2012_e1","SWR2012_e1_6",10,1,"pure","Strong",20,1001,"Include",13
"SWR2012_e1","SWR2012_e1_6",10,0,"pure","Strong",1,1091,"Include",14
"SWR2012_e1","SWR2012_e1_6",10,0,"pure","Strong",7,2560,"Include",15
"SWR2012_e1","SWR2012_e1_6",10,0,"pure","Strong",4,1344,"Include",16
"SWR2012_e1","SWR2012_e1_6",10,1,"pure","Strong",20,1035,"Include",17
"SWR2012_e1","SWR2012_e1_6",10,1,"pure","Strong",18,1958,"Include",18
"SWR2012_e1","SWR2012_e1_6",10,1,"pure","Strong",20,1296,"Include",19
"SWR2012_e1","SWR2012_e1_6",10,1,"pure","Strong",20,671,"Include",20
"SWR2012_e1","SWR2012_e1_6",10,0,"pure","Strong",1,849,"Include",21
"SWR2012_e1","SWR2012_e1_6",10,1,"pure","Strong",20,787,"Include",22
"SWR2012_e1","SWR2012_e1_6",10,0,"pure","Strong",2,921,"Include",23
"SWR2012_e1","SWR2012_e1_6",10,0,"pure","Strong",20,1216,"Include",24
"SWR2012_e1","SWR2012_e1_6",11,1,"pure","Weak",4,1688,"Include",1
"SWR2012_e1","SWR2012_e1_6",11,1,"pure","Weak",8,2399,"Include",2
"SWR2012_e1","SWR2012_e1_6",11,0,"pure","Weak",8,623,"Include",3
"SWR2012_e1","SWR2012_e1_6",11,0,"pure","Weak",17,878,"Include",4
"SWR2012_e1","SWR2012_e1_6",11,0,"pure","Weak",16,1427,"Include",5
"SWR2012_e1","SWR2012_e1_6",11,0,"pure","Weak",8,1078,"Include",6
"SWR2012_e1","SWR2012_e1_6",11,0,"pure","Weak",15,1192,"Include",7
"SWR2012_e1","SWR2012_e1_6",11,0,"pure","Weak",17,1089,"Include",8
"SWR2012_e1","SWR2012_e1_6",11,1,"pure","Weak",20,1161,"Include",9
"SWR2012_e1","SWR2012_e1_6",11,1,"pure","Weak",18,1799,"Include",10
"SWR2012_e1","SWR2012_e1_6",11,0,"pure","Weak",4,753,"Include",11
"SWR2012_e1","SWR2012_e1_6",11,1,"pure","Weak",2,621,"Include",12
"SWR2012_e1","SWR2012_e1_6",11,1,"pure","Weak",3,645,"Include",13
"SWR2012_e1","SWR2012_e1_6",11,0,"pure","Weak",8,695,"Include",14
"SWR2012_e1","SWR2012_e1_6",11,0,"pure","Weak",9,626,"Include",15
"SWR2012_e1","SWR2012_e1_6",11,1,"pure","Weak",8,594,"Include",16
"SWR2012_e1","SWR2012_e1_6",11,1,"pure","Weak",4,530,"Include",17
"SWR2012_e1","SWR2012_e1_6",11,1,"pure","Weak",8,783,"Include",18
"SWR2012_e1","SWR2012_e1_6",11,0,"pure","Weak",7,629,"Include",19
"SWR2012_e1","SWR2012_e1_6",11,1,"pure","Weak",18,1488,"Include",20
"SWR2012_e1","SWR2012_e1_6",11,1,"pure","Weak",19,1586,"Include",21
"SWR2012_e1","SWR2012_e1_6",11,0,"pure","Weak",2,1123,"Include",22
"SWR2012_e1","SWR2012_e1_6",11,1,"pure","Weak",1,618,"Include",23
"SWR2012_e1","SWR2012_e1_6",11,0,"pure","Weak",8,699,"Include",24
"SWR2012_e1","SWR2012_e1_6",12,0,"pure","Weak",3,1470,"Include",1
"SWR2012_e1","SWR2012_e1_6",12,0,"pure","Weak",7,1493,"Include",2
"SWR2012_e1","SWR2012_e1_6",12,0,"pure","Weak",3,612,"Include",3
"SWR2012_e1","SWR2012_e1_6",12,1,"pure","Weak",3,615,"Include",4
"SWR2012_e1","SWR2012_e1_6",12,1,"pure","Weak",17,1402,"Include",5
"SWR2012_e1","SWR2012_e1_6",12,1,"pure","Weak",17,1245,"Include",6
"SWR2012_e1","SWR2012_e1_6",12,0,"pure","Weak",18,953,"Include",7
"SWR2012_e1","SWR2012_e1_6",12,1,"pure","Weak",18,1296,"Include",8
"SWR2012_e1","SWR2012_e1_6",12,1,"pure","Weak",19,3088,"Include",9
"SWR2012_e1","SWR2012_e1_6",12,1,"pure","Weak",3,918,"Include",10
"SWR2012_e1","SWR2012_e1_6",12,1,"pure","Weak",7,924,"Include",11
"SWR2012_e1","SWR2012_e1_6",12,0,"pure","Weak",2,1027,"Include",12
"SWR2012_e1","SWR2012_e1_6",12,0,"pure","Weak",2,1469,"Include",13
"SWR2012_e1","SWR2012_e1_6",12,0,"pure","Weak",8,943,"Include",14
"SWR2012_e1","SWR2012_e1_6",12,0,"pure","Weak",9,950,"Include",15
"SWR2012_e1","SWR2012_e1_6",12,0,"pure","Weak",14,947,"Include",16
"SWR2012_e1","SWR2012_e1_6",12,1,"pure","Weak",17,1365,"Include",17
"SWR2012_e1","SWR2012_e1_6",12,1,"pure","Weak",7,1046,"Include",18
"SWR2012_e1","SWR2012_e1_6",12,1,"pure","Weak",3,746,"Include",19
"SWR2012_e1","SWR2012_e1_6",12,1,"pure","Weak",16,1006,"Include",20
"SWR2012_e1","SWR2012_e1_6",12,1,"pure","Weak",17,807,"Include",21
"SWR2012_e1","SWR2012_e1_6",12,0,"pure","Weak",3,1049,"Include",22
"SWR2012_e1","SWR2012_e1_6",12,0,"pure","Weak",2,1105,"Include",23
"SWR2012_e1","SWR2012_e1_6",12,0,"pure","Weak",2,813,"Include",24
"SWR2012_e1","SWR2012_e1_7",1,1,"pure","Strong",20,2960,"Exclude",1
"SWR2012_e1","SWR2012_e1_7",1,0,"pure","Strong",10,2308,"Exclude",2
"SWR2012_e1","SWR2012_e1_7",1,0,"pure","Strong",1,1648,"Exclude",3
"SWR2012_e1","SWR2012_e1_7",1,0,"pure","Strong",1,927,"Exclude",4
"SWR2012_e1","SWR2012_e1_7",1,1,"pure","Strong",20,1066,"Exclude",5
"SWR2012_e1","SWR2012_e1_7",1,1,"pure","Strong",20,1014,"Exclude",6
"SWR2012_e1","SWR2012_e1_7",1,1,"pure","Strong",20,831,"Exclude",7
"SWR2012_e1","SWR2012_e1_7",1,0,"pure","Strong",19,4681,"Exclude",8
"SWR2012_e1","SWR2012_e1_7",1,0,"pure","Strong",1,1352,"Exclude",9
"SWR2012_e1","SWR2012_e1_7",1,0,"pure","Strong",15,4612,"Exclude",10
"SWR2012_e1","SWR2012_e1_7",1,0,"pure","Strong",1,2099,"Exclude",11
"SWR2012_e1","SWR2012_e1_7",1,1,"pure","Strong",20,787,"Exclude",12
"SWR2012_e1","SWR2012_e1_7",1,0,"pure","Strong",1,744,"Exclude",13
"SWR2012_e1","SWR2012_e1_7",1,1,"pure","Strong",20,640,"Exclude",14
"SWR2012_e1","SWR2012_e1_7",1,0,"pure","Strong",20,2604,"Exclude",15
"SWR2012_e1","SWR2012_e1_7",1,0,"pure","Strong",1,1291,"Exclude",16
"SWR2012_e1","SWR2012_e1_7",1,1,"pure","Strong",20,666,"Exclude",17
"SWR2012_e1","SWR2012_e1_7",1,0,"pure","Strong",20,866,"Exclude",18
"SWR2012_e1","SWR2012_e1_7",1,1,"pure","Strong",20,648,"Exclude",19
"SWR2012_e1","SWR2012_e1_7",1,1,"pure","Strong",20,639,"Exclude",20
"SWR2012_e1","SWR2012_e1_7",1,1,"pure","Strong",20,657,"Exclude",21
"SWR2012_e1","SWR2012_e1_7",1,1,"pure","Strong",20,744,"Exclude",22
"SWR2012_e1","SWR2012_e1_7",1,0,"pure","Strong",1,961,"Exclude",23
"SWR2012_e1","SWR2012_e1_7",1,1,"pure","Strong",20,736,"Exclude",24
"SWR2012_e1","SWR2012_e1_7",2,1,"pure","Weak",20,1466,"Exclude",1
"SWR2012_e1","SWR2012_e1_7",2,0,"pure","Weak",1,1031,"Exclude",2
"SWR2012_e1","SWR2012_e1_7",2,0,"pure","Weak",5,5682,"Exclude",3
"SWR2012_e1","SWR2012_e1_7",2,1,"pure","Weak",20,1222,"Exclude",4
"SWR2012_e1","SWR2012_e1_7",2,1,"pure","Weak",15,7123,"Exclude",5
"SWR2012_e1","SWR2012_e1_7",2,0,"pure","Weak",1,3960,"Exclude",6
"SWR2012_e1","SWR2012_e1_7",2,1,"pure","Weak",20,1119,"Exclude",7
"SWR2012_e1","SWR2012_e1_7",2,1,"pure","Weak",20,1700,"Exclude",8
"SWR2012_e1","SWR2012_e1_7",2,0,"pure","Weak",5,1857,"Exclude",9
"SWR2012_e1","SWR2012_e1_7",2,0,"pure","Weak",14,5463,"Exclude",10
"SWR2012_e1","SWR2012_e1_7",2,0,"pure","Weak",4,2084,"Exclude",11
"SWR2012_e1","SWR2012_e1_7",2,1,"pure","Weak",20,1561,"Exclude",12
"SWR2012_e1","SWR2012_e1_7",2,0,"pure","Weak",4,1491,"Exclude",13
"SWR2012_e1","SWR2012_e1_7",2,0,"pure","Weak",3,3274,"Exclude",14
"SWR2012_e1","SWR2012_e1_7",2,1,"pure","Weak",20,824,"Exclude",15
"SWR2012_e1","SWR2012_e1_7",2,0,"pure","Weak",20,735,"Exclude",16
"SWR2012_e1","SWR2012_e1_7",2,0,"pure","Weak",3,1152,"Exclude",17
"SWR2012_e1","SWR2012_e1_7",2,0,"pure","Weak",2,3534,"Exclude",18
"SWR2012_e1","SWR2012_e1_7",2,1,"pure","Weak",5,1909,"Exclude",19
"SWR2012_e1","SWR2012_e1_7",2,1,"pure","Weak",20,892,"Exclude",20
"SWR2012_e1","SWR2012_e1_7",2,1,"pure","Weak",20,666,"Exclude",21
"SWR2012_e1","SWR2012_e1_7",2,0,"pure","Weak",2,2152,"Exclude",22
"SWR2012_e1","SWR2012_e1_7",2,1,"pure","Weak",4,1500,"Exclude",23
"SWR2012_e1","SWR2012_e1_7",2,1,"pure","Weak",15,3421,"Exclude",24
"SWR2012_e1","SWR2012_e1_7",3,1,"pure","Strong",20,5212,"Include",1
"SWR2012_e1","SWR2012_e1_7",3,0,"pure","Strong",1,1048,"Include",2
"SWR2012_e1","SWR2012_e1_7",3,0,"pure","Strong",1,1658,"Include",3
"SWR2012_e1","SWR2012_e1_7",3,0,"pure","Strong",1,710,"Include",4
"SWR2012_e1","SWR2012_e1_7",3,1,"pure","Strong",20,623,"Include",5
"SWR2012_e1","SWR2012_e1_7",3,0,"pure","Strong",1,683,"Include",6
"SWR2012_e1","SWR2012_e1_7",3,1,"pure","Strong",20,762,"Include",7
"SWR2012_e1","SWR2012_e1_7",3,1,"pure","Strong",20,623,"Include",8
"SWR2012_e1","SWR2012_e1_7",3,1,"pure","Strong",20,571,"Include",9
"SWR2012_e1","SWR2012_e1_7",3,1,"pure","Strong",20,546,"Include",10
"SWR2012_e1","SWR2012_e1_7",3,0,"pure","Strong",5,4587,"Include",11
"SWR2012_e1","SWR2012_e1_7",3,0,"pure","Strong",1,1049,"Include",12
"SWR2012_e1","SWR2012_e1_7",3,1,"pure","Strong",20,962,"Include",13
"SWR2012_e1","SWR2012_e1_7",3,0,"pure","Strong",1,832,"Include",14
"SWR2012_e1","SWR2012_e1_7",3,0,"pure","Strong",1,1214,"Include",15
"SWR2012_e1","SWR2012_e1_7",3,0,"pure","Strong",1,657,"Include",16
"SWR2012_e1","SWR2012_e1_7",3,0,"pure","Strong",1,571,"Include",17
"SWR2012_e1","SWR2012_e1_7",3,1,"pure","Strong",20,737,"Include",18
"SWR2012_e1","SWR2012_e1_7",3,1,"pure","Strong",20,789,"Include",19
"SWR2012_e1","SWR2012_e1_7",3,0,"pure","Strong",20,624,"Include",20
"SWR2012_e1","SWR2012_e1_7",3,1,"pure","Strong",20,588,"Include",21
"SWR2012_e1","SWR2012_e1_7",3,0,"pure","Strong",5,4325,"Include",22
"SWR2012_e1","SWR2012_e1_7",3,1,"pure","Strong",20,658,"Include",23
"SWR2012_e1","SWR2012_e1_7",3,1,"pure","Strong",20,2623,"Include",24
"SWR2012_e1","SWR2012_e1_7",4,1,"pure","Weak",20,3447,"Include",1
"SWR2012_e1","SWR2012_e1_7",4,1,"pure","Weak",10,2552,"Include",2
"SWR2012_e1","SWR2012_e1_7",4,1,"pure","Weak",10,1709,"Include",3
"SWR2012_e1","SWR2012_e1_7",4,0,"pure","Weak",10,970,"Include",4
"SWR2012_e1","SWR2012_e1_7",4,0,"pure","Weak",10,814,"Include",5
"SWR2012_e1","SWR2012_e1_7",4,1,"pure","Weak",20,2552,"Include",6
"SWR2012_e1","SWR2012_e1_7",4,0,"pure","Weak",2,3125,"Include",7
"SWR2012_e1","SWR2012_e1_7",4,1,"pure","Weak",20,1049,"Include",8
"SWR2012_e1","SWR2012_e1_7",4,0,"pure","Weak",10,2222,"Include",9
"SWR2012_e1","SWR2012_e1_7",4,0,"pure","Weak",1,1135,"Include",10
"SWR2012_e1","SWR2012_e1_7",4,0,"pure","Weak",5,3770,"Include",11
"SWR2012_e1","SWR2012_e1_7",4,1,"pure","Weak",20,1813,"Include",12
"SWR2012_e1","SWR2012_e1_7",4,0,"pure","Weak",20,1369,"Include",13
"SWR2012_e1","SWR2012_e1_7",4,0,"pure","Weak",10,1553,"Include",14
"SWR2012_e1","SWR2012_e1_7",4,1,"pure","Weak",15,2908,"Include",15
"SWR2012_e1","SWR2012_e1_7",4,0,"pure","Weak",10,2465,"Include",16
"SWR2012_e1","SWR2012_e1_7",4,0,"pure","Weak",1,1396,"Include",17
"SWR2012_e1","SWR2012_e1_7",4,0,"pure","Weak",1,797,"Include",18
"SWR2012_e1","SWR2012_e1_7",4,1,"pure","Weak",1,641,"Include",19
"SWR2012_e1","SWR2012_e1_7",4,1,"pure","Weak",15,1354,"Include",20
"SWR2012_e1","SWR2012_e1_7",4,1,"pure","Weak",15,1414,"Include",21
"SWR2012_e1","SWR2012_e1_7",4,1,"pure","Weak",19,3499,"Include",22
"SWR2012_e1","SWR2012_e1_7",4,0,"pure","Weak",11,2230,"Include",23
"SWR2012_e1","SWR2012_e1_7",4,1,"pure","Weak",20,1683,"Include",24
"SWR2012_e1","SWR2012_e1_7",5,0,"pure","Strong",2,2143,"Include",1
"SWR2012_e1","SWR2012_e1_7",5,1,"pure","Strong",20,988,"Include",2
"SWR2012_e1","SWR2012_e1_7",5,0,"pure","Strong",1,1127,"Include",3
"SWR2012_e1","SWR2012_e1_7",5,0,"pure","Strong",15,2979,"Include",4
"SWR2012_e1","SWR2012_e1_7",5,0,"pure","Strong",1,1110,"Include",5
"SWR2012_e1","SWR2012_e1_7",5,1,"pure","Strong",20,788,"Include",6
"SWR2012_e1","SWR2012_e1_7",5,0,"pure","Strong",5,2240,"Include",7
"SWR2012_e1","SWR2012_e1_7",5,0,"pure","Strong",15,4247,"Include",8
"SWR2012_e1","SWR2012_e1_7",5,0,"pure","Strong",10,2560,"Include",9
"SWR2012_e1","SWR2012_e1_7",5,1,"pure","Strong",20,1508,"Include",10
"SWR2012_e1","SWR2012_e1_7",5,1,"pure","Strong",20,779,"Include",11
"SWR2012_e1","SWR2012_e1_7",5,0,"pure","Strong",18,2526,"Include",12
"SWR2012_e1","SWR2012_e1_7",5,0,"pure","Strong",8,2248,"Include",13
"SWR2012_e1","SWR2012_e1_7",5,1,"pure","Strong",20,1996,"Include",14
"SWR2012_e1","SWR2012_e1_7",5,0,"pure","Strong",5,1623,"Include",15
"SWR2012_e1","SWR2012_e1_7",5,1,"pure","Strong",20,831,"Include",16
"SWR2012_e1","SWR2012_e1_7",5,0,"pure","Strong",20,658,"Include",17
"SWR2012_e1","SWR2012_e1_7",5,1,"pure","Strong",20,606,"Include",18
"SWR2012_e1","SWR2012_e1_7",5,1,"pure","Strong",20,554,"Include",19
"SWR2012_e1","SWR2012_e1_7",5,1,"pure","Strong",5,2831,"Include",20
"SWR2012_e1","SWR2012_e1_7",5,1,"pure","Strong",3,1448,"Include",21
"SWR2012_e1","SWR2012_e1_7",5,0,"pure","Strong",2,2813,"Include",22
"SWR2012_e1","SWR2012_e1_7",5,1,"pure","Strong",20,738,"Include",23
"SWR2012_e1","SWR2012_e1_7",5,1,"pure","Strong",20,937,"Include",24
"SWR2012_e1","SWR2012_e1_7",6,1,"pure","Strong",17,3664,"Include",1
"SWR2012_e1","SWR2012_e1_7",6,0,"pure","Strong",14,2220,"Include",2
"SWR2012_e1","SWR2012_e1_7",6,1,"pure","Strong",13,3378,"Include",3
"SWR2012_e1","SWR2012_e1_7",6,1,"pure","Strong",12,2127,"Include",4
"SWR2012_e1","SWR2012_e1_7",6,1,"pure","Strong",20,1710,"Include",5
"SWR2012_e1","SWR2012_e1_7",6,1,"pure","Strong",20,718,"Include",6
"SWR2012_e1","SWR2012_e1_7",6,0,"pure","Strong",8,2021,"Include",7
"SWR2012_e1","SWR2012_e1_7",6,0,"pure","Strong",6,1761,"Include",8
"SWR2012_e1","SWR2012_e1_7",6,1,"pure","Strong",20,4342,"Include",9
"SWR2012_e1","SWR2012_e1_7",6,0,"pure","Strong",20,2565,"Include",10
"SWR2012_e1","SWR2012_e1_7",6,0,"pure","Strong",18,1239,"Include",11
"SWR2012_e1","SWR2012_e1_7",6,0,"pure","Strong",2,1317,"Include",12
"SWR2012_e1","SWR2012_e1_7",6,0,"pure","Strong",2,1283,"Include",13
"SWR2012_e1","SWR2012_e1_7",6,0,"pure","Strong",4,1422,"Include",14
"SWR2012_e1","SWR2012_e1_7",6,1,"pure","Strong",20,1336,"Include",15
"SWR2012_e1","SWR2012_e1_7",6,0,"pure","Strong",5,1023,"Include",16
"SWR2012_e1","SWR2012_e1_7",6,1,"pure","Strong",20,1326,"Include",17
"SWR2012_e1","SWR2012_e1_7",6,1,"pure","Strong",20,927,"Include",18
"SWR2012_e1","SWR2012_e1_7",6,0,"pure","Strong",20,553,"Include",19
"SWR2012_e1","SWR2012_e1_7",6,0,"pure","Strong",20,640,"Include",20
"SWR2012_e1","SWR2012_e1_7",6,1,"pure","Strong",20,517,"Include",21
"SWR2012_e1","SWR2012_e1_7",6,0,"pure","Strong",20,1030,"Include",22
"SWR2012_e1","SWR2012_e1_7",6,1,"pure","Strong",20,1856,"Include",23
"SWR2012_e1","SWR2012_e1_7",6,1,"pure","Strong",20,631,"Include",24
"SWR2012_e1","SWR2012_e1_7",7,1,"pure","Weak",20,1719,"Include",1
"SWR2012_e1","SWR2012_e1_7",7,1,"pure","Weak",20,839,"Include",2
"SWR2012_e1","SWR2012_e1_7",7,0,"pure","Weak",17,3646,"Include",3
"SWR2012_e1","SWR2012_e1_7",7,0,"pure","Weak",2,1491,"Include",4
"SWR2012_e1","SWR2012_e1_7",7,1,"pure","Weak",2,1371,"Include",5
"SWR2012_e1","SWR2012_e1_7",7,0,"pure","Weak",12,2961,"Include",6
"SWR2012_e1","SWR2012_e1_7",7,1,"pure","Weak",13,2230,"Include",7
"SWR2012_e1","SWR2012_e1_7",7,0,"pure","Weak",20,3230,"Include",8
"SWR2012_e1","SWR2012_e1_7",7,1,"pure","Weak",20,692,"Include",9
"SWR2012_e1","SWR2012_e1_7",7,0,"pure","Weak",18,1909,"Include",10
"SWR2012_e1","SWR2012_e1_7",7,0,"pure","Weak",15,2056,"Include",11
"SWR2012_e1","SWR2012_e1_7",7,1,"pure","Weak",14,1770,"Include",12
"SWR2012_e1","SWR2012_e1_7",7,1,"pure","Weak",19,1093,"Include",13
"SWR2012_e1","SWR2012_e1_7",7,0,"pure","Weak",13,2161,"Include",14
"SWR2012_e1","SWR2012_e1_7",7,1,"pure","Weak",2,257,"Exclude",15
"SWR2012_e1","SWR2012_e1_7",7,1,"pure","Weak",1,667,"Include",16
"SWR2012_e1","SWR2012_e1_7",7,0,"pure","Weak",8,14,"Exclude",17
"SWR2012_e1","SWR2012_e1_7",7,1,"pure","Weak",19,1406,"Include",18
"SWR2012_e1","SWR2012_e1_7",7,1,"pure","Weak",15,2459,"Include",19
"SWR2012_e1","SWR2012_e1_7",7,0,"pure","Weak",20,2501,"Include",20
"SWR2012_e1","SWR2012_e1_7",7,0,"pure","Weak",20,1143,"Include",21
"SWR2012_e1","SWR2012_e1_7",7,1,"pure","Weak",16,4483,"Include",22
"SWR2012_e1","SWR2012_e1_7",7,0,"pure","Weak",16,1205,"Include",23
"SWR2012_e1","SWR2012_e1_7",7,0,"pure","Weak",12,1431,"Include",24
"SWR2012_e1","SWR2012_e1_7",8,1,"pure","Weak",19,1815,"Include",1
"SWR2012_e1","SWR2012_e1_7",8,1,"pure","Weak",13,2099,"Include",2
"SWR2012_e1","SWR2012_e1_7",8,0,"pure","Weak",19,1380,"Include",3
"SWR2012_e1","SWR2012_e1_7",8,1,"pure","Weak",20,840,"Include",4
"SWR2012_e1","SWR2012_e1_7",8,1,"pure","Weak",4,1910,"Include",5
"SWR2012_e1","SWR2012_e1_7",8,1,"pure","Weak",20,1180,"Include",6
"SWR2012_e1","SWR2012_e1_7",8,1,"pure","Weak",20,859,"Include",7
"SWR2012_e1","SWR2012_e1_7",8,1,"pure","Weak",4,1763,"Include",8
"SWR2012_e1","SWR2012_e1_7",8,0,"pure","Weak",20,3176,"Include",9
"SWR2012_e1","SWR2012_e1_7",8,0,"pure","Weak",19,1441,"Include",10
"SWR2012_e1","SWR2012_e1_7",8,0,"pure","Weak",18,1283,"Include",11
"SWR2012_e1","SWR2012_e1_7",8,0,"pure","Weak",6,2345,"Include",12
"SWR2012_e1","SWR2012_e1_7",8,1,"pure","Weak",5,1448,"Include",13
"SWR2012_e1","SWR2012_e1_7",8,1,"pure","Weak",18,1822,"Include",14
"SWR2012_e1","SWR2012_e1_7",8,0,"pure","Weak",19,4724,"Include",15
"SWR2012_e1","SWR2012_e1_7",8,0,"pure","Weak",4,1274,"Include",16
"SWR2012_e1","SWR2012_e1_7",8,0,"pure","Weak",19,2908,"Include",17
"SWR2012_e1","SWR2012_e1_7",8,0,"pure","Weak",20,9375,"Exclude",18
"SWR2012_e1","SWR2012_e1_7",8,1,"pure","Weak",9,4491,"Include",19
"SWR2012_e1","SWR2012_e1_7",8,0,"pure","Weak",18,4109,"Include",20
"SWR2012_e1","SWR2012_e1_7",8,1,"pure","Weak",20,1143,"Include",21
"SWR2012_e1","SWR2012_e1_7",8,0,"pure","Weak",13,1822,"Include",22
"SWR2012_e1","SWR2012_e1_7",8,0,"pure","Weak",13,902,"Include",23
"SWR2012_e1","SWR2012_e1_7",8,1,"pure","Weak",9,1041,"Include",24
"SWR2012_e1","SWR2012_e1_7",9,1,"pure","Strong",12,3944,"Include",1
"SWR2012_e1","SWR2012_e1_7",9,1,"pure","Strong",13,952,"Include",2
"SWR2012_e1","SWR2012_e1_7",9,0,"pure","Strong",14,711,"Include",3
"SWR2012_e1","SWR2012_e1_7",9,1,"pure","Strong",2,1426,"Include",4
"SWR2012_e1","SWR2012_e1_7",9,1,"pure","Strong",20,1449,"Include",5
"SWR2012_e1","SWR2012_e1_7",9,0,"pure","Strong",17,2526,"Include",6
"SWR2012_e1","SWR2012_e1_7",9,0,"pure","Strong",20,1005,"Include",7
"SWR2012_e1","SWR2012_e1_7",9,1,"pure","Strong",20,842,"Include",8
"SWR2012_e1","SWR2012_e1_7",9,0,"pure","Strong",20,928,"Include",9
"SWR2012_e1","SWR2012_e1_7",9,0,"pure","Strong",20,745,"Include",10
"SWR2012_e1","SWR2012_e1_7",9,0,"pure","Strong",20,4353,"Include",11
"SWR2012_e1","SWR2012_e1_7",9,1,"pure","Strong",18,711,"Include",12
"SWR2012_e1","SWR2012_e1_7",9,0,"pure","Strong",13,622,"Include",13
"SWR2012_e1","SWR2012_e1_7",9,0,"pure","Strong",3,981,"Include",14
"SWR2012_e1","SWR2012_e1_7",9,1,"pure","Strong",20,2179,"Include",15
"SWR2012_e1","SWR2012_e1_7",9,1,"pure","Strong",18,2537,"Include",16
"SWR2012_e1","SWR2012_e1_7",9,0,"pure","Strong",13,1092,"Include",17
"SWR2012_e1","SWR2012_e1_7",9,1,"pure","Strong",3,1250,"Include",18
"SWR2012_e1","SWR2012_e1_7",9,1,"pure","Strong",2,1346,"Include",19
"SWR2012_e1","SWR2012_e1_7",9,1,"pure","Strong",20,858,"Include",20
"SWR2012_e1","SWR2012_e1_7",9,1,"pure","Strong",13,1050,"Include",21
"SWR2012_e1","SWR2012_e1_7",9,0,"pure","Strong",18,1955,"Include",22
"SWR2012_e1","SWR2012_e1_7",9,0,"pure","Strong",13,3707,"Include",23
"SWR2012_e1","SWR2012_e1_7",9,0,"pure","Strong",3,4701,"Include",24
"SWR2012_e1","SWR2012_e1_7",10,0,"pure","Strong",20,1336,"Include",1
"SWR2012_e1","SWR2012_e1_7",10,0,"pure","Strong",4,1222,"Include",2
"SWR2012_e1","SWR2012_e1_7",10,1,"pure","Strong",20,709,"Include",3
"SWR2012_e1","SWR2012_e1_7",10,0,"pure","Strong",20,596,"Include",4
"SWR2012_e1","SWR2012_e1_7",10,0,"pure","Strong",20,735,"Include",5
"SWR2012_e1","SWR2012_e1_7",10,1,"pure","Strong",4,579,"Include",6
"SWR2012_e1","SWR2012_e1_7",10,0,"pure","Strong",19,2492,"Include",7
"SWR2012_e1","SWR2012_e1_7",10,1,"pure","Strong",18,1326,"Include",8
"SWR2012_e1","SWR2012_e1_7",10,1,"pure","Strong",3,1838,"Include",9
"SWR2012_e1","SWR2012_e1_7",10,0,"pure","Strong",20,2398,"Include",10
"SWR2012_e1","SWR2012_e1_7",10,0,"pure","Strong",20,2361,"Include",11
"SWR2012_e1","SWR2012_e1_7",10,1,"pure","Strong",20,831,"Include",12
"SWR2012_e1","SWR2012_e1_7",10,1,"pure","Strong",20,1848,"Include",13
"SWR2012_e1","SWR2012_e1_7",10,1,"pure","Strong",20,770,"Include",14
"SWR2012_e1","SWR2012_e1_7",10,1,"pure","Strong",20,640,"Include",15
"SWR2012_e1","SWR2012_e1_7",10,0,"pure","Strong",20,2752,"Include",16
"SWR2012_e1","SWR2012_e1_7",10,0,"pure","Strong",20,356,"Include",17
"SWR2012_e1","SWR2012_e1_7",10,0,"pure","Strong",4,2542,"Include",18
"SWR2012_e1","SWR2012_e1_7",10,1,"pure","Strong",13,2215,"Include",19
"SWR2012_e1","SWR2012_e1_7",10,0,"pure","Strong",13,3292,"Include",20
"SWR2012_e1","SWR2012_e1_7",10,0,"pure","Strong",2,1345,"Include",21
"SWR2012_e1","SWR2012_e1_7",10,1,"pure","Strong",3,752,"Include",22
"SWR2012_e1","SWR2012_e1_7",10,1,"pure","Strong",4,562,"Include",23
"SWR2012_e1","SWR2012_e1_7",10,1,"pure","Strong",3,1084,"Include",24
"SWR2012_e1","SWR2012_e1_7",11,0,"pure","Weak",3,1896,"Include",1
"SWR2012_e1","SWR2012_e1_7",11,1,"pure","Weak",2,1092,"Include",2
"SWR2012_e1","SWR2012_e1_7",11,1,"pure","Weak",6,1458,"Include",3
"SWR2012_e1","SWR2012_e1_7",11,1,"pure","Weak",19,1318,"Include",4
"SWR2012_e1","SWR2012_e1_7",11,0,"pure","Weak",20,3987,"Include",5
"SWR2012_e1","SWR2012_e1_7",11,0,"pure","Weak",13,1161,"Include",6
"SWR2012_e1","SWR2012_e1_7",11,1,"pure","Weak",20,1293,"Include",7
"SWR2012_e1","SWR2012_e1_7",11,1,"pure","Weak",12,615,"Include",8
"SWR2012_e1","SWR2012_e1_7",11,0,"pure","Weak",4,1466,"Include",9
"SWR2012_e1","SWR2012_e1_7",11,1,"pure","Weak",3,859,"Include",10
"SWR2012_e1","SWR2012_e1_7",11,1,"pure","Weak",2,619,"Include",11
"SWR2012_e1","SWR2012_e1_7",11,0,"pure","Weak",3,642,"Include",12
"SWR2012_e1","SWR2012_e1_7",11,1,"pure","Weak",4,512,"Include",13
"SWR2012_e1","SWR2012_e1_7",11,0,"pure","Weak",19,1458,"Include",14
"SWR2012_e1","SWR2012_e1_7",11,0,"pure","Weak",14,1458,"Include",15
"SWR2012_e1","SWR2012_e1_7",11,1,"pure","Weak",14,4276,"Include",16
"SWR2012_e1","SWR2012_e1_7",11,1,"pure","Weak",3,1241,"Include",17
"SWR2012_e1","SWR2012_e1_7",11,0,"pure","Weak",NA,1667,"Exclude",18
"SWR2012_e1","SWR2012_e1_7",11,1,"pure","Weak",14,3624,"Include",19
"SWR2012_e1","SWR2012_e1_7",11,0,"pure","Weak",13,1136,"Include",20
"SWR2012_e1","SWR2012_e1_7",11,0,"pure","Weak",20,3478,"Include",21
"SWR2012_e1","SWR2012_e1_7",11,0,"pure","Weak",6,1052,"Include",22
"SWR2012_e1","SWR2012_e1_7",11,0,"pure","Weak",19,2074,"Include",23
"SWR2012_e1","SWR2012_e1_7",11,1,"pure","Weak",20,1084,"Include",24
"SWR2012_e1","SWR2012_e1_7",12,1,"pure","Weak",5,2674,"Include",1
"SWR2012_e1","SWR2012_e1_7",12,1,"pure","Weak",20,1119,"Include",2
"SWR2012_e1","SWR2012_e1_7",12,0,"pure","Weak",5,2023,"Include",3
"SWR2012_e1","SWR2012_e1_7",12,0,"pure","Weak",13,1927,"Include",4
"SWR2012_e1","SWR2012_e1_7",12,1,"pure","Weak",3,1458,"Include",5
"SWR2012_e1","SWR2012_e1_7",12,1,"pure","Weak",4,667,"Include",6
"SWR2012_e1","SWR2012_e1_7",12,1,"pure","Weak",20,797,"Include",7
"SWR2012_e1","SWR2012_e1_7",12,0,"pure","Weak",7,1779,"Include",8
"SWR2012_e1","SWR2012_e1_7",12,0,"pure","Weak",6,1380,"Include",9
"SWR2012_e1","SWR2012_e1_7",12,1,"pure","Weak",20,788,"Include",10
"SWR2012_e1","SWR2012_e1_7",12,1,"pure","Weak",20,2249,"Include",11
"SWR2012_e1","SWR2012_e1_7",12,1,"pure","Weak",2,1187,"Include",12
"SWR2012_e1","SWR2012_e1_7",12,1,"pure","Weak",4,1961,"Include",13
"SWR2012_e1","SWR2012_e1_7",12,0,"pure","Weak",2,1729,"Include",14
"SWR2012_e1","SWR2012_e1_7",12,0,"pure","Weak",16,3524,"Include",15
"SWR2012_e1","SWR2012_e1_7",12,0,"pure","Weak",16,953,"Include",16
"SWR2012_e1","SWR2012_e1_7",12,0,"pure","Weak",4,1161,"Include",17
"SWR2012_e1","SWR2012_e1_7",12,0,"pure","Weak",2,2466,"Include",18
"SWR2012_e1","SWR2012_e1_7",12,1,"pure","Weak",3,1344,"Include",19
"SWR2012_e1","SWR2012_e1_7",12,0,"pure","Weak",20,745,"Include",20
"SWR2012_e1","SWR2012_e1_7",12,1,"pure","Weak",20,883,"Include",21
"SWR2012_e1","SWR2012_e1_7",12,1,"pure","Weak",20,806,"Include",22
"SWR2012_e1","SWR2012_e1_7",12,0,"pure","Weak",3,633,"Include",23
"SWR2012_e1","SWR2012_e1_7",12,0,"pure","Weak",5,2388,"Include",24
"SWR2012_e1","SWR2012_e1_9",1,1,"pure","Strong",10,8171,"Exclude",1
"SWR2012_e1","SWR2012_e1_9",1,1,"pure","Strong",2,2223,"Exclude",2
"SWR2012_e1","SWR2012_e1_9",1,1,"pure","Strong",13,2326,"Exclude",3
"SWR2012_e1","SWR2012_e1_9",1,0,"pure","Strong",2,2118,"Exclude",4
"SWR2012_e1","SWR2012_e1_9",1,1,"pure","Strong",18,2043,"Exclude",5
"SWR2012_e1","SWR2012_e1_9",1,0,"pure","Strong",2,2253,"Exclude",6
"SWR2012_e1","SWR2012_e1_9",1,1,"pure","Strong",17,1262,"Exclude",7
"SWR2012_e1","SWR2012_e1_9",1,1,"pure","Strong",4,1779,"Exclude",8
"SWR2012_e1","SWR2012_e1_9",1,1,"pure","Strong",3,2388,"Exclude",9
"SWR2012_e1","SWR2012_e1_9",1,0,"pure","Strong",3,1367,"Exclude",10
"SWR2012_e1","SWR2012_e1_9",1,0,"pure","Strong",2,1389,"Exclude",11
"SWR2012_e1","SWR2012_e1_9",1,1,"pure","Strong",18,1778,"Exclude",12
"SWR2012_e1","SWR2012_e1_9",1,0,"pure","Strong",2,1261,"Exclude",13
"SWR2012_e1","SWR2012_e1_9",1,0,"pure","Strong",1,1450,"Exclude",14
"SWR2012_e1","SWR2012_e1_9",1,0,"pure","Strong",3,1387,"Exclude",15
"SWR2012_e1","SWR2012_e1_9",1,1,"pure","Strong",16,4124,"Exclude",16
"SWR2012_e1","SWR2012_e1_9",1,1,"pure","Strong",15,4821,"Exclude",17
"SWR2012_e1","SWR2012_e1_9",1,0,"pure","Strong",4,1736,"Exclude",18
"SWR2012_e1","SWR2012_e1_9",1,1,"pure","Strong",19,1344,"Exclude",19
"SWR2012_e1","SWR2012_e1_9",1,1,"pure","Strong",19,915,"Exclude",20
"SWR2012_e1","SWR2012_e1_9",1,0,"pure","Strong",12,1937,"Exclude",21
"SWR2012_e1","SWR2012_e1_9",1,0,"pure","Strong",4,1599,"Exclude",22
"SWR2012_e1","SWR2012_e1_9",1,0,"pure","Strong",4,1672,"Exclude",23
"SWR2012_e1","SWR2012_e1_9",1,0,"pure","Strong",2,1412,"Exclude",24
"SWR2012_e1","SWR2012_e1_9",2,0,"pure","Weak",2,1938,"Exclude",1
"SWR2012_e1","SWR2012_e1_9",2,0,"pure","Weak",8,1378,"Exclude",2
"SWR2012_e1","SWR2012_e1_9",2,0,"pure","Weak",2,1284,"Exclude",3
"SWR2012_e1","SWR2012_e1_9",2,0,"pure","Weak",2,969,"Exclude",4
"SWR2012_e1","SWR2012_e1_9",2,1,"pure","Weak",2,1599,"Exclude",5
"SWR2012_e1","SWR2012_e1_9",2,0,"pure","Weak",2,641,"Exclude",6
"SWR2012_e1","SWR2012_e1_9",2,1,"pure","Weak",3,989,"Exclude",7
"SWR2012_e1","SWR2012_e1_9",2,0,"pure","Weak",4,853,"Exclude",8
"SWR2012_e1","SWR2012_e1_9",2,0,"pure","Weak",2,2778,"Exclude",9
"SWR2012_e1","SWR2012_e1_9",2,1,"pure","Weak",17,1767,"Exclude",10
"SWR2012_e1","SWR2012_e1_9",2,0,"pure","Weak",2,1378,"Exclude",11
"SWR2012_e1","SWR2012_e1_9",2,0,"pure","Weak",3,903,"Exclude",12
"SWR2012_e1","SWR2012_e1_9",2,1,"pure","Weak",3,1779,"Exclude",13
"SWR2012_e1","SWR2012_e1_9",2,1,"pure","Weak",3,894,"Exclude",14
"SWR2012_e1","SWR2012_e1_9",2,1,"pure","Weak",3,2220,"Exclude",15
"SWR2012_e1","SWR2012_e1_9",2,1,"pure","Weak",19,1252,"Exclude",16
"SWR2012_e1","SWR2012_e1_9",2,1,"pure","Weak",1,1219,"Exclude",17
"SWR2012_e1","SWR2012_e1_9",2,1,"pure","Weak",2,1304,"Exclude",18
"SWR2012_e1","SWR2012_e1_9",2,0,"pure","Weak",2,977,"Exclude",19
"SWR2012_e1","SWR2012_e1_9",2,0,"pure","Weak",17,1589,"Exclude",20
"SWR2012_e1","SWR2012_e1_9",2,1,"pure","Weak",3,1222,"Exclude",21
"SWR2012_e1","SWR2012_e1_9",2,1,"pure","Weak",19,1063,"Exclude",22
"SWR2012_e1","SWR2012_e1_9",2,1,"pure","Weak",2,1106,"Exclude",23
"SWR2012_e1","SWR2012_e1_9",2,0,"pure","Weak",2,999,"Exclude",24
"SWR2012_e1","SWR2012_e1_9",3,1,"pure","Strong",2,1770,"Include",1
"SWR2012_e1","SWR2012_e1_9",3,1,"pure","Strong",16,2198,"Include",2
