"exp","id","block","isold","rating","RT","excluding","trial"
"WKH2020_e1","WKH2020_e1_1",1,1,3,2052,"Include",1
"WKH2020_e1","WKH2020_e1_1",1,1,6,1995,"Include",2
"WKH2020_e1","WKH2020_e1_1",1,0,1,1395,"Include",3
"WKH2020_e1","WKH2020_e1_1",1,0,1,1303,"Include",4
"WKH2020_e1","WKH2020_e1_1",1,1,6,1362,"Include",5
"WKH2020_e1","WKH2020_e1_1",1,1,6,1601,"Include",6
"WKH2020_e1","WKH2020_e1_1",1,0,5,2422,"Include",7
"WKH2020_e1","WKH2020_e1_1",1,0,5,1972,"Include",8
"WKH2020_e1","WKH2020_e1_1",1,0,1,1400,"Include",9
"WKH2020_e1","WKH2020_e1_1",1,0,3,1406,"Include",10
"WKH2020_e1","WKH2020_e1_1",1,1,2,1178,"Include",11
"WKH2020_e1","WKH2020_e1_1",1,1,1,1852,"Include",12
"WKH2020_e1","WKH2020_e1_1",1,0,1,1534,"Include",13
"WKH2020_e1","WKH2020_e1_1",1,1,2,1226,"Include",14
"WKH2020_e1","WKH2020_e1_1",1,1,5,1884,"Include",15
"WKH2020_e1","WKH2020_e1_1",1,0,1,1274,"Include",16
"WKH2020_e1","WKH2020_e1_1",1,1,6,2508,"Include",17
"WKH2020_e1","WKH2020_e1_1",1,0,2,1505,"Include",18
"WKH2020_e1","WKH2020_e1_1",1,1,5,1777,"Include",19
"WKH2020_e1","WKH2020_e1_1",1,0,6,2113,"Include",20
"WKH2020_e1","WKH2020_e1_1",1,0,6,1617,"Include",21
"WKH2020_e1","WKH2020_e1_1",1,0,4,1843,"Include",22
"WKH2020_e1","WKH2020_e1_1",1,1,2,1163,"Include",23
"WKH2020_e1","WKH2020_e1_1",1,1,1,2439,"Include",24
"WKH2020_e1","WKH2020_e1_1",1,1,6,1267,"Include",25
"WKH2020_e1","WKH2020_e1_1",1,0,4,1776,"Include",26
"WKH2020_e1","WKH2020_e1_1",1,0,2,2526,"Include",27
"WKH2020_e1","WKH2020_e1_1",1,1,4,1493,"Include",28
"WKH2020_e1","WKH2020_e1_1",1,1,6,1567,"Include",29
"WKH2020_e1","WKH2020_e1_1",1,1,6,1444,"Include",30
"WKH2020_e1","WKH2020_e1_1",1,0,4,1436,"Include",31
"WKH2020_e1","WKH2020_e1_1",1,0,3,1424,"Include",32
"WKH2020_e1","WKH2020_e1_1",1,1,5,1564,"Include",33
"WKH2020_e1","WKH2020_e1_1",1,1,3,1450,"Include",34
"WKH2020_e1","WKH2020_e1_1",1,0,2,1394,"Include",35
"WKH2020_e1","WKH2020_e1_1",1,0,6,2448,"Include",36
"WKH2020_e1","WKH2020_e1_1",1,1,5,2377,"Include",37
"WKH2020_e1","WKH2020_e1_1",1,0,1,1543,"Include",38
"WKH2020_e1","WKH2020_e1_1",1,1,1,1116,"Include",39
"WKH2020_e1","WKH2020_e1_1",1,0,2,1564,"Include",40
"WKH2020_e1","WKH2020_e1_1",1,0,1,2687,"Include",41
"WKH2020_e1","WKH2020_e1_1",1,1,6,1648,"Include",42
"WKH2020_e1","WKH2020_e1_1",1,0,5,1823,"Include",43
"WKH2020_e1","WKH2020_e1_1",1,1,6,1771,"Include",44
"WKH2020_e1","WKH2020_e1_1",1,0,3,1931,"Include",45
"WKH2020_e1","WKH2020_e1_1",1,0,5,1262,"Include",46
"WKH2020_e1","WKH2020_e1_1",1,1,1,1664,"Include",47
"WKH2020_e1","WKH2020_e1_1",1,1,1,1656,"Include",48
"WKH2020_e1","WKH2020_e1_1",1,0,4,1629,"Include",49
"WKH2020_e1","WKH2020_e1_1",1,0,2,1943,"Include",50
"WKH2020_e1","WKH2020_e1_1",1,1,6,1899,"Include",51
"WKH2020_e1","WKH2020_e1_1",1,1,2,1260,"Include",52
"WKH2020_e1","WKH2020_e1_1",1,1,6,1295,"Include",53
"WKH2020_e1","WKH2020_e1_1",1,0,4,2068,"Include",54
"WKH2020_e1","WKH2020_e1_1",1,1,4,2062,"Include",55
"WKH2020_e1","WKH2020_e1_1",1,0,5,1836,"Include",56
"WKH2020_e1","WKH2020_e1_1",1,1,4,1223,"Include",57
"WKH2020_e1","WKH2020_e1_1",1,0,4,1632,"Include",58
"WKH2020_e1","WKH2020_e1_1",1,0,2,1421,"Include",59
"WKH2020_e1","WKH2020_e1_1",1,1,5,1564,"Include",60
"WKH2020_e1","WKH2020_e1_1",1,1,6,1874,"Include",61
"WKH2020_e1","WKH2020_e1_1",1,1,2,1621,"Include",62
"WKH2020_e1","WKH2020_e1_1",1,0,2,1356,"Include",63
"WKH2020_e1","WKH2020_e1_1",1,0,2,1024,"Include",64
"WKH2020_e1","WKH2020_e1_1",1,1,6,1358,"Include",65
"WKH2020_e1","WKH2020_e1_1",1,1,6,1103,"Include",66
"WKH2020_e1","WKH2020_e1_1",1,0,2,1179,"Include",67
"WKH2020_e1","WKH2020_e1_1",1,0,1,1530,"Include",68
"WKH2020_e1","WKH2020_e1_1",1,0,1,1550,"Include",69
"WKH2020_e1","WKH2020_e1_1",1,0,2,1220,"Include",70
"WKH2020_e1","WKH2020_e1_1",1,1,2,1111,"Include",71
"WKH2020_e1","WKH2020_e1_1",1,1,1,1398,"Include",72
"WKH2020_e1","WKH2020_e1_1",1,0,5,1962,"Include",73
"WKH2020_e1","WKH2020_e1_1",1,1,6,1440,"Include",74
"WKH2020_e1","WKH2020_e1_1",1,1,6,1045,"Include",75
"WKH2020_e1","WKH2020_e1_1",1,0,3,1898,"Include",76
"WKH2020_e1","WKH2020_e1_1",1,1,6,1384,"Include",77
"WKH2020_e1","WKH2020_e1_1",1,0,4,1786,"Include",78
"WKH2020_e1","WKH2020_e1_1",1,1,5,1648,"Include",79
"WKH2020_e1","WKH2020_e1_1",1,0,3,1258,"Include",80
"WKH2020_e1","WKH2020_e1_1",1,0,2,1158,"Include",81
"WKH2020_e1","WKH2020_e1_1",1,0,1,1520,"Include",82
"WKH2020_e1","WKH2020_e1_1",1,1,1,1701,"Include",83
"WKH2020_e1","WKH2020_e1_1",1,1,3,1381,"Include",84
"WKH2020_e1","WKH2020_e1_1",1,1,6,1523,"Include",85
"WKH2020_e1","WKH2020_e1_1",1,0,6,1619,"Include",86
"WKH2020_e1","WKH2020_e1_1",1,0,5,1801,"Include",87
"WKH2020_e1","WKH2020_e1_1",1,1,4,1352,"Include",88
"WKH2020_e1","WKH2020_e1_1",1,1,3,1960,"Include",89
"WKH2020_e1","WKH2020_e1_1",1,1,5,2103,"Include",90
"WKH2020_e1","WKH2020_e1_1",1,0,2,1474,"Include",91
"WKH2020_e1","WKH2020_e1_1",1,0,2,1308,"Include",92
"WKH2020_e1","WKH2020_e1_1",1,1,5,1204,"Include",93
"WKH2020_e1","WKH2020_e1_1",1,1,1,1715,"Include",94
"WKH2020_e1","WKH2020_e1_1",1,0,1,1430,"Include",95
"WKH2020_e1","WKH2020_e1_1",1,0,1,2218,"Include",96
"WKH2020_e1","WKH2020_e1_1",1,1,5,2140,"Include",97
"WKH2020_e1","WKH2020_e1_1",1,0,4,1511,"Include",98
"WKH2020_e1","WKH2020_e1_1",1,1,6,1383,"Include",99
"WKH2020_e1","WKH2020_e1_1",1,0,1,1501,"Include",100
"WKH2020_e1","WKH2020_e1_1",1,0,1,1062,"Include",101
"WKH2020_e1","WKH2020_e1_1",1,1,6,2039,"Include",102
"WKH2020_e1","WKH2020_e1_1",1,0,4,1941,"Include",103
"WKH2020_e1","WKH2020_e1_1",1,1,5,1247,"Include",104
"WKH2020_e1","WKH2020_e1_1",1,0,1,1950,"Include",105
"WKH2020_e1","WKH2020_e1_1",1,0,5,1678,"Include",106
"WKH2020_e1","WKH2020_e1_1",1,1,6,1235,"Include",107
"WKH2020_e1","WKH2020_e1_1",1,1,1,2138,"Include",108
"WKH2020_e1","WKH2020_e1_1",1,0,2,2753,"Include",109
"WKH2020_e1","WKH2020_e1_1",1,0,5,1400,"Include",110
"WKH2020_e1","WKH2020_e1_1",1,1,5,1969,"Include",111
"WKH2020_e1","WKH2020_e1_1",1,1,4,1324,"Include",112
"WKH2020_e1","WKH2020_e1_1",1,1,5,1333,"Include",113
"WKH2020_e1","WKH2020_e1_1",1,0,1,1674,"Include",114
"WKH2020_e1","WKH2020_e1_1",1,1,6,1374,"Include",115
"WKH2020_e1","WKH2020_e1_1",1,0,2,1807,"Include",116
"WKH2020_e1","WKH2020_e1_1",1,1,1,2160,"Include",117
"WKH2020_e1","WKH2020_e1_1",1,0,1,1221,"Include",118
"WKH2020_e1","WKH2020_e1_1",1,0,6,953,"Include",119
"WKH2020_e1","WKH2020_e1_1",1,1,6,1573,"Include",120
"WKH2020_e1","WKH2020_e1_1",1,1,6,1751,"Include",121
"WKH2020_e1","WKH2020_e1_1",1,1,1,1679,"Include",122
"WKH2020_e1","WKH2020_e1_1",1,0,1,1715,"Include",123
"WKH2020_e1","WKH2020_e1_1",1,0,2,1595,"Include",124
"WKH2020_e1","WKH2020_e1_1",1,1,6,1338,"Include",125
"WKH2020_e1","WKH2020_e1_1",1,1,2,1396,"Include",126
"WKH2020_e1","WKH2020_e1_1",1,0,2,1698,"Include",127
"WKH2020_e1","WKH2020_e1_1",1,0,5,1463,"Include",128
"WKH2020_e1","WKH2020_e1_1",1,0,1,1233,"Include",129
"WKH2020_e1","WKH2020_e1_1",1,0,2,1309,"Include",130
"WKH2020_e1","WKH2020_e1_1",1,1,6,1314,"Include",131
"WKH2020_e1","WKH2020_e1_1",1,1,6,793,"Include",132
"WKH2020_e1","WKH2020_e1_1",1,0,5,2066,"Include",133
"WKH2020_e1","WKH2020_e1_1",1,1,1,1489,"Include",134
"WKH2020_e1","WKH2020_e1_1",1,1,6,1242,"Include",135
"WKH2020_e1","WKH2020_e1_1",1,0,1,1435,"Include",136
"WKH2020_e1","WKH2020_e1_1",1,1,6,1100,"Include",137
"WKH2020_e1","WKH2020_e1_1",1,0,1,1197,"Include",138
"WKH2020_e1","WKH2020_e1_1",1,1,6,982,"Include",139
"WKH2020_e1","WKH2020_e1_1",1,0,1,2995,"Include",140
"WKH2020_e1","WKH2020_e1_1",1,0,2,1393,"Include",141
"WKH2020_e1","WKH2020_e1_1",1,0,1,1882,"Include",142
"WKH2020_e1","WKH2020_e1_1",1,1,5,2123,"Include",143
"WKH2020_e1","WKH2020_e1_1",1,1,5,1553,"Include",144
"WKH2020_e1","WKH2020_e1_1",1,1,6,1419,"Include",145
"WKH2020_e1","WKH2020_e1_1",1,0,1,1069,"Include",146
"WKH2020_e1","WKH2020_e1_1",1,0,5,1855,"Include",147
"WKH2020_e1","WKH2020_e1_1",1,1,3,2259,"Include",148
"WKH2020_e1","WKH2020_e1_1",1,1,2,1560,"Include",149
"WKH2020_e1","WKH2020_e1_1",1,1,4,1852,"Include",150
"WKH2020_e1","WKH2020_e1_1",1,0,5,1831,"Include",151
"WKH2020_e1","WKH2020_e1_1",1,0,2,1432,"Include",152
"WKH2020_e1","WKH2020_e1_1",1,1,4,2393,"Include",153
"WKH2020_e1","WKH2020_e1_1",1,1,6,1728,"Include",154
"WKH2020_e1","WKH2020_e1_1",1,0,2,1618,"Include",155
"WKH2020_e1","WKH2020_e1_1",1,0,1,2320,"Include",156
"WKH2020_e1","WKH2020_e1_1",1,1,2,1558,"Include",157
"WKH2020_e1","WKH2020_e1_1",1,0,1,1945,"Include",158
"WKH2020_e1","WKH2020_e1_1",1,1,6,1378,"Include",159
"WKH2020_e1","WKH2020_e1_1",1,0,1,4993,"Include",160
"WKH2020_e1","WKH2020_e1_1",1,0,1,1616,"Include",161
"WKH2020_e1","WKH2020_e1_1",1,1,5,3912,"Include",162
"WKH2020_e1","WKH2020_e1_1",1,0,2,2057,"Include",163
"WKH2020_e1","WKH2020_e1_1",1,1,4,2367,"Include",164
"WKH2020_e1","WKH2020_e1_1",1,0,4,1900,"Include",165
"WKH2020_e1","WKH2020_e1_1",1,0,2,2082,"Include",166
"WKH2020_e1","WKH2020_e1_1",1,1,6,1373,"Include",167
"WKH2020_e1","WKH2020_e1_1",1,1,5,1811,"Include",168
"WKH2020_e1","WKH2020_e1_1",1,0,2,1622,"Include",169
"WKH2020_e1","WKH2020_e1_1",1,0,6,1533,"Include",170
"WKH2020_e1","WKH2020_e1_1",1,1,1,1843,"Include",171
"WKH2020_e1","WKH2020_e1_1",1,1,5,1188,"Include",172
"WKH2020_e1","WKH2020_e1_1",1,1,6,1147,"Include",173
"WKH2020_e1","WKH2020_e1_1",1,0,2,1306,"Include",174
"WKH2020_e1","WKH2020_e1_1",1,1,2,1257,"Include",175
"WKH2020_e1","WKH2020_e1_1",1,0,5,1132,"Include",176
"WKH2020_e1","WKH2020_e1_1",1,1,1,2434,"Include",177
"WKH2020_e1","WKH2020_e1_1",1,0,2,1236,"Include",178
"WKH2020_e1","WKH2020_e1_1",1,0,4,1667,"Include",179
"WKH2020_e1","WKH2020_e1_1",1,1,5,1722,"Include",180
"WKH2020_e1","WKH2020_e1_2",1,1,4,2953,"Include",1
"WKH2020_e1","WKH2020_e1_2",1,1,6,1867,"Include",2
"WKH2020_e1","WKH2020_e1_2",1,0,1,1859,"Include",3
"WKH2020_e1","WKH2020_e1_2",1,0,3,2459,"Include",4
"WKH2020_e1","WKH2020_e1_2",1,1,5,1475,"Include",5
"WKH2020_e1","WKH2020_e1_2",1,1,6,1563,"Include",6
"WKH2020_e1","WKH2020_e1_2",1,0,2,1993,"Include",7
"WKH2020_e1","WKH2020_e1_2",1,0,2,2311,"Include",8
"WKH2020_e1","WKH2020_e1_2",1,0,2,2265,"Include",9
"WKH2020_e1","WKH2020_e1_2",1,0,2,1604,"Include",10
"WKH2020_e1","WKH2020_e1_2",1,1,6,1694,"Include",11
"WKH2020_e1","WKH2020_e1_2",1,1,6,1387,"Include",12
"WKH2020_e1","WKH2020_e1_2",1,0,2,1694,"Include",13
"WKH2020_e1","WKH2020_e1_2",1,1,5,1475,"Include",14
"WKH2020_e1","WKH2020_e1_2",1,1,4,2216,"Include",15
"WKH2020_e1","WKH2020_e1_2",1,0,2,1477,"Include",16
"WKH2020_e1","WKH2020_e1_2",1,1,6,1287,"Include",17
"WKH2020_e1","WKH2020_e1_2",1,0,2,1624,"Include",18
"WKH2020_e1","WKH2020_e1_2",1,1,6,1605,"Include",19
"WKH2020_e1","WKH2020_e1_2",1,0,2,2468,"Include",20
"WKH2020_e1","WKH2020_e1_2",1,0,2,1689,"Include",21
"WKH2020_e1","WKH2020_e1_2",1,0,3,2121,"Include",22
"WKH2020_e1","WKH2020_e1_2",1,1,3,2253,"Include",23
"WKH2020_e1","WKH2020_e1_2",1,1,5,1846,"Include",24
"WKH2020_e1","WKH2020_e1_2",1,1,6,1454,"Include",25
"WKH2020_e1","WKH2020_e1_2",1,0,2,1360,"Include",26
"WKH2020_e1","WKH2020_e1_2",1,0,2,1871,"Include",27
"WKH2020_e1","WKH2020_e1_2",1,1,6,1658,"Include",28
"WKH2020_e1","WKH2020_e1_2",1,1,6,1345,"Include",29
"WKH2020_e1","WKH2020_e1_2",1,1,5,2127,"Include",30
"WKH2020_e1","WKH2020_e1_2",1,0,2,1634,"Include",31
"WKH2020_e1","WKH2020_e1_2",1,0,2,1447,"Include",32
"WKH2020_e1","WKH2020_e1_2",1,1,5,1593,"Include",33
"WKH2020_e1","WKH2020_e1_2",1,1,4,2052,"Include",34
"WKH2020_e1","WKH2020_e1_2",1,0,2,1632,"Include",35
"WKH2020_e1","WKH2020_e1_2",1,0,2,2946,"Include",36
"WKH2020_e1","WKH2020_e1_2",1,1,4,2290,"Include",37
"WKH2020_e1","WKH2020_e1_2",1,0,2,1333,"Include",38
"WKH2020_e1","WKH2020_e1_2",1,1,5,1702,"Include",39
"WKH2020_e1","WKH2020_e1_2",1,0,5,2500,"Include",40
"WKH2020_e1","WKH2020_e1_2",1,0,2,1476,"Include",41
"WKH2020_e1","WKH2020_e1_2",1,1,4,1937,"Include",42
"WKH2020_e1","WKH2020_e1_2",1,0,3,2348,"Include",43
"WKH2020_e1","WKH2020_e1_2",1,1,3,4578,"Include",44
"WKH2020_e1","WKH2020_e1_2",1,0,2,2053,"Include",45
"WKH2020_e1","WKH2020_e1_2",1,0,2,1562,"Include",46
"WKH2020_e1","WKH2020_e1_2",1,1,2,1282,"Include",47
"WKH2020_e1","WKH2020_e1_2",1,1,6,2069,"Include",48
"WKH2020_e1","WKH2020_e1_2",1,0,4,3550,"Include",49
"WKH2020_e1","WKH2020_e1_2",1,0,2,1773,"Include",50
"WKH2020_e1","WKH2020_e1_2",1,1,5,1652,"Include",51
"WKH2020_e1","WKH2020_e1_2",1,1,6,1844,"Include",52
"WKH2020_e1","WKH2020_e1_2",1,1,6,1470,"Include",53
"WKH2020_e1","WKH2020_e1_2",1,0,1,1819,"Include",54
"WKH2020_e1","WKH2020_e1_2",1,1,5,2147,"Include",55
"WKH2020_e1","WKH2020_e1_2",1,0,1,2105,"Include",56
"WKH2020_e1","WKH2020_e1_2",1,1,6,1677,"Include",57
"WKH2020_e1","WKH2020_e1_2",1,0,4,2897,"Include",58
"WKH2020_e1","WKH2020_e1_2",1,0,2,1919,"Include",59
"WKH2020_e1","WKH2020_e1_2",1,1,5,2006,"Include",60
"WKH2020_e1","WKH2020_e1_2",1,1,6,2057,"Include",61
"WKH2020_e1","WKH2020_e1_2",1,1,5,2091,"Include",62
"WKH2020_e1","WKH2020_e1_2",1,0,4,2622,"Include",63
"WKH2020_e1","WKH2020_e1_2",1,0,2,1823,"Include",64
"WKH2020_e1","WKH2020_e1_2",1,1,5,1984,"Include",65
"WKH2020_e1","WKH2020_e1_2",1,1,4,2649,"Include",66
"WKH2020_e1","WKH2020_e1_2",1,0,3,2067,"Include",67
"WKH2020_e1","WKH2020_e1_2",1,0,2,1741,"Include",68
"WKH2020_e1","WKH2020_e1_2",1,0,3,2483,"Include",69
"WKH2020_e1","WKH2020_e1_2",1,0,3,2474,"Include",70
"WKH2020_e1","WKH2020_e1_2",1,1,5,1618,"Include",71
"WKH2020_e1","WKH2020_e1_2",1,1,5,1635,"Include",72
"WKH2020_e1","WKH2020_e1_2",1,0,2,2462,"Include",73
"WKH2020_e1","WKH2020_e1_2",1,1,6,2076,"Include",74
"WKH2020_e1","WKH2020_e1_2",1,1,4,2383,"Include",75
"WKH2020_e1","WKH2020_e1_2",1,0,2,1874,"Include",76
"WKH2020_e1","WKH2020_e1_2",1,1,4,2033,"Include",77
"WKH2020_e1","WKH2020_e1_2",1,0,2,2745,"Include",78
"WKH2020_e1","WKH2020_e1_2",1,1,4,2077,"Include",79
"WKH2020_e1","WKH2020_e1_2",1,0,3,1951,"Include",80
"WKH2020_e1","WKH2020_e1_2",1,0,3,1937,"Include",81
"WKH2020_e1","WKH2020_e1_2",1,0,2,4642,"Include",82
"WKH2020_e1","WKH2020_e1_2",1,1,3,1684,"Include",83
"WKH2020_e1","WKH2020_e1_2",1,1,3,3330,"Include",84
"WKH2020_e1","WKH2020_e1_2",1,1,6,1461,"Include",85
"WKH2020_e1","WKH2020_e1_2",1,0,2,1774,"Include",86
"WKH2020_e1","WKH2020_e1_2",1,0,2,2676,"Include",87
"WKH2020_e1","WKH2020_e1_2",1,1,6,1860,"Include",88
"WKH2020_e1","WKH2020_e1_2",1,1,5,3422,"Include",89
"WKH2020_e1","WKH2020_e1_2",1,1,5,1790,"Include",90
"WKH2020_e1","WKH2020_e1_2",1,0,2,1639,"Include",91
"WKH2020_e1","WKH2020_e1_2",1,0,2,1857,"Include",92
"WKH2020_e1","WKH2020_e1_2",1,1,6,1788,"Include",93
"WKH2020_e1","WKH2020_e1_2",1,1,6,1600,"Include",94
"WKH2020_e1","WKH2020_e1_2",1,0,3,2752,"Include",95
"WKH2020_e1","WKH2020_e1_2",1,0,3,1881,"Include",96
"WKH2020_e1","WKH2020_e1_2",1,1,5,2153,"Include",97
"WKH2020_e1","WKH2020_e1_2",1,0,2,1764,"Include",98
"WKH2020_e1","WKH2020_e1_2",1,1,5,1885,"Include",99
"WKH2020_e1","WKH2020_e1_2",1,0,2,1490,"Include",100
"WKH2020_e1","WKH2020_e1_2",1,0,2,2478,"Include",101
"WKH2020_e1","WKH2020_e1_2",1,1,5,2303,"Include",102
"WKH2020_e1","WKH2020_e1_2",1,0,2,3028,"Include",103
"WKH2020_e1","WKH2020_e1_2",1,1,6,1773,"Include",104
"WKH2020_e1","WKH2020_e1_2",1,0,2,2873,"Include",105
"WKH2020_e1","WKH2020_e1_2",1,0,1,2696,"Include",106
"WKH2020_e1","WKH2020_e1_2",1,1,6,1828,"Include",107
"WKH2020_e1","WKH2020_e1_2",1,1,5,2259,"Include",108
"WKH2020_e1","WKH2020_e1_2",1,0,5,2302,"Include",109
"WKH2020_e1","WKH2020_e1_2",1,0,2,1887,"Include",110
"WKH2020_e1","WKH2020_e1_2",1,1,6,1507,"Include",111
"WKH2020_e1","WKH2020_e1_2",1,1,6,1510,"Include",112
"WKH2020_e1","WKH2020_e1_2",1,1,6,1685,"Include",113
"WKH2020_e1","WKH2020_e1_2",1,0,1,1691,"Include",114
"WKH2020_e1","WKH2020_e1_2",1,1,3,2576,"Include",115
"WKH2020_e1","WKH2020_e1_2",1,0,3,2593,"Include",116
"WKH2020_e1","WKH2020_e1_2",1,1,3,2900,"Include",117
"WKH2020_e1","WKH2020_e1_2",1,0,2,2299,"Include",118
"WKH2020_e1","WKH2020_e1_2",1,0,2,2253,"Include",119
"WKH2020_e1","WKH2020_e1_2",1,1,6,1631,"Include",120
"WKH2020_e1","WKH2020_e1_2",1,1,6,2452,"Include",121
"WKH2020_e1","WKH2020_e1_2",1,1,6,1971,"Include",122
"WKH2020_e1","WKH2020_e1_2",1,0,2,2686,"Include",123
"WKH2020_e1","WKH2020_e1_2",1,0,2,2509,"Include",124
"WKH2020_e1","WKH2020_e1_2",1,1,6,1677,"Include",125
"WKH2020_e1","WKH2020_e1_2",1,1,6,1560,"Include",126
"WKH2020_e1","WKH2020_e1_2",1,0,2,3022,"Include",127
"WKH2020_e1","WKH2020_e1_2",1,0,3,3893,"Include",128
"WKH2020_e1","WKH2020_e1_2",1,0,2,2768,"Include",129
"WKH2020_e1","WKH2020_e1_2",1,0,2,2735,"Include",130
"WKH2020_e1","WKH2020_e1_2",1,1,6,1773,"Include",131
"WKH2020_e1","WKH2020_e1_2",1,1,6,1577,"Include",132
"WKH2020_e1","WKH2020_e1_2",1,0,2,3387,"Include",133
"WKH2020_e1","WKH2020_e1_2",1,1,4,2974,"Include",134
"WKH2020_e1","WKH2020_e1_2",1,1,6,2374,"Include",135
"WKH2020_e1","WKH2020_e1_2",1,0,1,2909,"Include",136
"WKH2020_e1","WKH2020_e1_2",1,1,6,1710,"Include",137
"WKH2020_e1","WKH2020_e1_2",1,0,3,2550,"Include",138
"WKH2020_e1","WKH2020_e1_2",1,1,5,2626,"Include",139
"WKH2020_e1","WKH2020_e1_2",1,0,2,2924,"Include",140
"WKH2020_e1","WKH2020_e1_2",1,0,3,3134,"Include",141
"WKH2020_e1","WKH2020_e1_2",1,0,3,1715,"Include",142
"WKH2020_e1","WKH2020_e1_2",1,1,6,1865,"Include",143
"WKH2020_e1","WKH2020_e1_2",1,1,3,2411,"Include",144
"WKH2020_e1","WKH2020_e1_2",1,1,6,1900,"Include",145
"WKH2020_e1","WKH2020_e1_2",1,0,1,2288,"Include",146
"WKH2020_e1","WKH2020_e1_2",1,0,3,3438,"Include",147
"WKH2020_e1","WKH2020_e1_2",1,1,2,3214,"Include",148
"WKH2020_e1","WKH2020_e1_2",1,1,5,1786,"Include",149
"WKH2020_e1","WKH2020_e1_2",1,1,4,2473,"Include",150
"WKH2020_e1","WKH2020_e1_2",1,0,3,3434,"Include",151
"WKH2020_e1","WKH2020_e1_2",1,0,3,2578,"Include",152
"WKH2020_e1","WKH2020_e1_2",1,1,4,4306,"Include",153
"WKH2020_e1","WKH2020_e1_2",1,1,5,1966,"Include",154
"WKH2020_e1","WKH2020_e1_2",1,0,4,2989,"Include",155
"WKH2020_e1","WKH2020_e1_2",1,0,2,2732,"Include",156
"WKH2020_e1","WKH2020_e1_2",1,1,4,4079,"Include",157
"WKH2020_e1","WKH2020_e1_2",1,0,3,2408,"Include",158
"WKH2020_e1","WKH2020_e1_2",1,1,5,2127,"Include",159
"WKH2020_e1","WKH2020_e1_2",1,0,2,3445,"Include",160
"WKH2020_e1","WKH2020_e1_2",1,0,2,3284,"Include",161
"WKH2020_e1","WKH2020_e1_2",1,1,6,1686,"Include",162
"WKH2020_e1","WKH2020_e1_2",1,0,2,4196,"Include",163
"WKH2020_e1","WKH2020_e1_2",1,1,5,2336,"Include",164
"WKH2020_e1","WKH2020_e1_2",1,0,3,2760,"Include",165
"WKH2020_e1","WKH2020_e1_2",1,0,3,2406,"Include",166
"WKH2020_e1","WKH2020_e1_2",1,1,5,2064,"Include",167
"WKH2020_e1","WKH2020_e1_2",1,1,6,1773,"Include",168
"WKH2020_e1","WKH2020_e1_2",1,0,3,2682,"Include",169
"WKH2020_e1","WKH2020_e1_2",1,0,2,3252,"Include",170
"WKH2020_e1","WKH2020_e1_2",1,1,2,3886,"Include",171
"WKH2020_e1","WKH2020_e1_2",1,1,5,2121,"Include",172
"WKH2020_e1","WKH2020_e1_2",1,1,4,2367,"Include",173
"WKH2020_e1","WKH2020_e1_2",1,0,3,2828,"Include",174
"WKH2020_e1","WKH2020_e1_2",1,1,3,2331,"Include",175
"WKH2020_e1","WKH2020_e1_2",1,0,3,3893,"Include",176
"WKH2020_e1","WKH2020_e1_2",1,1,4,2674,"Include",177
"WKH2020_e1","WKH2020_e1_2",1,0,2,2858,"Include",178
"WKH2020_e1","WKH2020_e1_2",1,0,3,2457,"Include",179
"WKH2020_e1","WKH2020_e1_2",1,1,5,1981,"Include",180
"WKH2020_e1","WKH2020_e1_3",1,1,5,1618,"Include",1
"WKH2020_e1","WKH2020_e1_3",1,1,5,1163,"Include",2
"WKH2020_e1","WKH2020_e1_3",1,0,1,1227,"Include",3
"WKH2020_e1","WKH2020_e1_3",1,0,2,1575,"Include",4
"WKH2020_e1","WKH2020_e1_3",1,1,6,1664,"Include",5
"WKH2020_e1","WKH2020_e1_3",1,1,6,1372,"Include",6
"WKH2020_e1","WKH2020_e1_3",1,0,3,2129,"Include",7
"WKH2020_e1","WKH2020_e1_3",1,0,2,1588,"Include",8
"WKH2020_e1","WKH2020_e1_3",1,0,1,1244,"Include",9
"WKH2020_e1","WKH2020_e1_3",1,0,2,1659,"Include",10
"WKH2020_e1","WKH2020_e1_3",1,1,4,1798,"Include",11
"WKH2020_e1","WKH2020_e1_3",1,1,2,2797,"Include",12
"WKH2020_e1","WKH2020_e1_3",1,0,5,1906,"Include",13
"WKH2020_e1","WKH2020_e1_3",1,1,4,1786,"Include",14
"WKH2020_e1","WKH2020_e1_3",1,1,3,2089,"Include",15
"WKH2020_e1","WKH2020_e1_3",1,0,3,2970,"Include",16
"WKH2020_e1","WKH2020_e1_3",1,1,5,1821,"Include",17
"WKH2020_e1","WKH2020_e1_3",1,0,1,1908,"Include",18
"WKH2020_e1","WKH2020_e1_3",1,1,6,1149,"Include",19
"WKH2020_e1","WKH2020_e1_3",1,0,4,1718,"Include",20
"WKH2020_e1","WKH2020_e1_3",1,0,2,1804,"Include",21
"WKH2020_e1","WKH2020_e1_3",1,0,6,2399,"Include",22
"WKH2020_e1","WKH2020_e1_3",1,1,6,1288,"Include",23
"WKH2020_e1","WKH2020_e1_3",1,1,6,1720,"Include",24
"WKH2020_e1","WKH2020_e1_3",1,1,6,1216,"Include",25
"WKH2020_e1","WKH2020_e1_3",1,0,1,1705,"Include",26
"WKH2020_e1","WKH2020_e1_3",1,0,2,1665,"Include",27
"WKH2020_e1","WKH2020_e1_3",1,1,2,1732,"Include",28
"WKH2020_e1","WKH2020_e1_3",1,1,1,1413,"Include",29
"WKH2020_e1","WKH2020_e1_3",1,1,1,1499,"Include",30
"WKH2020_e1","WKH2020_e1_3",1,0,1,1691,"Include",31
"WKH2020_e1","WKH2020_e1_3",1,0,3,1993,"Include",32
"WKH2020_e1","WKH2020_e1_3",1,1,2,2095,"Include",33
"WKH2020_e1","WKH2020_e1_3",1,1,6,1328,"Include",34
"WKH2020_e1","WKH2020_e1_3",1,0,2,1945,"Include",35
"WKH2020_e1","WKH2020_e1_3",1,0,3,2092,"Include",36
"WKH2020_e1","WKH2020_e1_3",1,1,2,2008,"Include",37
"WKH2020_e1","WKH2020_e1_3",1,0,1,1457,"Include",38
"WKH2020_e1","WKH2020_e1_3",1,1,1,1559,"Include",39
"WKH2020_e1","WKH2020_e1_3",1,0,4,1799,"Include",40
"WKH2020_e1","WKH2020_e1_3",1,0,1,1180,"Include",41
"WKH2020_e1","WKH2020_e1_3",1,1,1,1401,"Include",42
"WKH2020_e1","WKH2020_e1_3",1,0,2,2222,"Include",43
"WKH2020_e1","WKH2020_e1_3",1,1,6,1599,"Include",44
"WKH2020_e1","WKH2020_e1_3",1,0,4,2232,"Include",45
"WKH2020_e1","WKH2020_e1_3",1,0,2,1894,"Include",46
"WKH2020_e1","WKH2020_e1_3",1,1,4,2421,"Include",47
"WKH2020_e1","WKH2020_e1_3",1,1,6,1143,"Include",48
"WKH2020_e1","WKH2020_e1_3",1,0,5,3162,"Include",49
"WKH2020_e1","WKH2020_e1_3",1,0,3,3842,"Include",50
"WKH2020_e1","WKH2020_e1_3",1,1,3,3246,"Include",51
"WKH2020_e1","WKH2020_e1_3",1,1,5,1771,"Include",52
"WKH2020_e1","WKH2020_e1_3",1,1,1,2400,"Include",53
"WKH2020_e1","WKH2020_e1_3",1,0,2,2984,"Include",54
"WKH2020_e1","WKH2020_e1_3",1,1,4,2572,"Include",55
"WKH2020_e1","WKH2020_e1_3",1,0,2,2071,"Include",56
"WKH2020_e1","WKH2020_e1_3",1,1,6,1324,"Include",57
"WKH2020_e1","WKH2020_e1_3",1,0,2,2240,"Include",58
"WKH2020_e1","WKH2020_e1_3",1,0,3,2278,"Include",59
"WKH2020_e1","WKH2020_e1_3",1,1,6,2503,"Include",60
"WKH2020_e1","WKH2020_e1_3",1,1,5,1884,"Include",61
"WKH2020_e1","WKH2020_e1_3",1,1,3,2344,"Include",62
"WKH2020_e1","WKH2020_e1_3",1,0,1,1639,"Include",63
"WKH2020_e1","WKH2020_e1_3",1,0,1,1576,"Include",64
"WKH2020_e1","WKH2020_e1_3",1,1,6,1384,"Include",65
"WKH2020_e1","WKH2020_e1_3",1,1,6,1794,"Include",66
"WKH2020_e1","WKH2020_e1_3",1,0,3,2157,"Include",67
"WKH2020_e1","WKH2020_e1_3",1,0,2,1619,"Include",68
"WKH2020_e1","WKH2020_e1_3",1,0,1,2265,"Include",69
"WKH2020_e1","WKH2020_e1_3",1,0,3,2534,"Include",70
"WKH2020_e1","WKH2020_e1_3",1,1,6,1553,"Include",71
"WKH2020_e1","WKH2020_e1_3",1,1,5,1663,"Include",72
"WKH2020_e1","WKH2020_e1_3",1,0,5,1936,"Include",73
"WKH2020_e1","WKH2020_e1_3",1,1,6,1097,"Include",74
"WKH2020_e1","WKH2020_e1_3",1,1,6,956,"Include",75
"WKH2020_e1","WKH2020_e1_3",1,0,3,1873,"Include",76
"WKH2020_e1","WKH2020_e1_3",1,1,6,993,"Include",77
"WKH2020_e1","WKH2020_e1_3",1,0,1,1419,"Include",78
"WKH2020_e1","WKH2020_e1_3",1,1,2,1738,"Include",79
"WKH2020_e1","WKH2020_e1_3",1,0,1,2264,"Include",80
"WKH2020_e1","WKH2020_e1_3",1,0,2,2589,"Include",81
"WKH2020_e1","WKH2020_e1_3",1,0,1,2104,"Include",82
"WKH2020_e1","WKH2020_e1_3",1,1,1,2458,"Include",83
"WKH2020_e1","WKH2020_e1_3",1,1,6,1135,"Include",84
"WKH2020_e1","WKH2020_e1_3",1,1,6,1179,"Include",85
"WKH2020_e1","WKH2020_e1_3",1,0,2,1777,"Include",86
"WKH2020_e1","WKH2020_e1_3",1,0,2,1939,"Include",87
"WKH2020_e1","WKH2020_e1_3",1,1,1,1884,"Include",88
"WKH2020_e1","WKH2020_e1_3",1,1,4,1928,"Include",89
"WKH2020_e1","WKH2020_e1_3",1,1,4,2357,"Include",90
"WKH2020_e1","WKH2020_e1_3",1,0,2,2084,"Include",91
"WKH2020_e1","WKH2020_e1_3",1,0,3,2144,"Include",92
"WKH2020_e1","WKH2020_e1_3",1,1,1,2018,"Include",93
"WKH2020_e1","WKH2020_e1_3",1,1,4,2860,"Include",94
"WKH2020_e1","WKH2020_e1_3",1,0,2,2865,"Include",95
"WKH2020_e1","WKH2020_e1_3",1,0,1,1848,"Include",96
"WKH2020_e1","WKH2020_e1_3",1,1,6,1533,"Include",97
"WKH2020_e1","WKH2020_e1_3",1,0,1,1774,"Include",98
"WKH2020_e1","WKH2020_e1_3",1,1,6,1436,"Include",99
"WKH2020_e1","WKH2020_e1_3",1,0,1,1159,"Include",100
"WKH2020_e1","WKH2020_e1_3",1,0,1,1785,"Include",101
"WKH2020_e1","WKH2020_e1_3",1,1,6,1726,"Include",102
"WKH2020_e1","WKH2020_e1_3",1,0,2,1888,"Include",103
"WKH2020_e1","WKH2020_e1_3",1,1,6,1003,"Include",104
"WKH2020_e1","WKH2020_e1_3",1,0,1,1112,"Include",105
"WKH2020_e1","WKH2020_e1_3",1,0,2,2106,"Include",106
"WKH2020_e1","WKH2020_e1_3",1,1,6,864,"Include",107
"WKH2020_e1","WKH2020_e1_3",1,1,6,1357,"Include",108
"WKH2020_e1","WKH2020_e1_3",1,0,2,2539,"Include",109
"WKH2020_e1","WKH2020_e1_3",1,0,1,1745,"Include",110
"WKH2020_e1","WKH2020_e1_3",1,1,6,1058,"Include",111
"WKH2020_e1","WKH2020_e1_3",1,1,4,1982,"Include",112
"WKH2020_e1","WKH2020_e1_3",1,1,4,1785,"Include",113
"WKH2020_e1","WKH2020_e1_3",1,0,1,1368,"Include",114
"WKH2020_e1","WKH2020_e1_3",1,1,6,927,"Include",115
"WKH2020_e1","WKH2020_e1_3",1,0,1,1500,"Include",116
"WKH2020_e1","WKH2020_e1_3",1,1,2,2108,"Include",117
"WKH2020_e1","WKH2020_e1_3",1,0,3,2601,"Include",118
"WKH2020_e1","WKH2020_e1_3",1,0,1,1386,"Include",119
"WKH2020_e1","WKH2020_e1_3",1,1,6,1072,"Include",120
"WKH2020_e1","WKH2020_e1_3",1,1,6,1614,"Include",121
"WKH2020_e1","WKH2020_e1_3",1,1,1,1885,"Include",122
"WKH2020_e1","WKH2020_e1_3",1,0,2,2242,"Include",123
"WKH2020_e1","WKH2020_e1_3",1,0,1,1878,"Include",124
"WKH2020_e1","WKH2020_e1_3",1,1,6,1589,"Include",125
"WKH2020_e1","WKH2020_e1_3",1,1,2,2242,"Include",126
"WKH2020_e1","WKH2020_e1_3",1,0,2,2147,"Include",127
"WKH2020_e1","WKH2020_e1_3",1,0,3,2686,"Include",128
"WKH2020_e1","WKH2020_e1_3",1,0,2,2209,"Include",129
"WKH2020_e1","WKH2020_e1_3",1,0,2,2646,"Include",130
"WKH2020_e1","WKH2020_e1_3",1,1,5,2398,"Include",131
"WKH2020_e1","WKH2020_e1_3",1,1,6,1315,"Include",132
"WKH2020_e1","WKH2020_e1_3",1,0,1,1814,"Include",133
"WKH2020_e1","WKH2020_e1_3",1,1,3,2948,"Include",134
"WKH2020_e1","WKH2020_e1_3",1,1,5,1834,"Include",135
"WKH2020_e1","WKH2020_e1_3",1,0,1,1792,"Include",136
"WKH2020_e1","WKH2020_e1_3",1,1,6,1008,"Include",137
"WKH2020_e1","WKH2020_e1_3",1,0,2,1991,"Include",138
"WKH2020_e1","WKH2020_e1_3",1,1,2,1934,"Include",139
"WKH2020_e1","WKH2020_e1_3",1,0,2,2988,"Include",140
"WKH2020_e1","WKH2020_e1_3",1,0,4,2357,"Include",141
"WKH2020_e1","WKH2020_e1_3",1,0,1,2396,"Include",142
"WKH2020_e1","WKH2020_e1_3",1,1,5,1968,"Include",143
"WKH2020_e1","WKH2020_e1_3",1,1,3,2222,"Include",144
"WKH2020_e1","WKH2020_e1_3",1,1,6,1835,"Include",145
"WKH2020_e1","WKH2020_e1_3",1,0,1,1632,"Include",146
"WKH2020_e1","WKH2020_e1_3",1,0,1,2106,"Include",147
"WKH2020_e1","WKH2020_e1_3",1,1,6,1640,"Include",148
"WKH2020_e1","WKH2020_e1_3",1,1,3,2957,"Include",149
"WKH2020_e1","WKH2020_e1_3",1,1,6,1284,"Include",150
"WKH2020_e1","WKH2020_e1_3",1,0,4,2572,"Include",151
"WKH2020_e1","WKH2020_e1_3",1,0,2,2432,"Include",152
"WKH2020_e1","WKH2020_e1_3",1,1,4,3390,"Include",153
"WKH2020_e1","WKH2020_e1_3",1,1,6,1911,"Include",154
"WKH2020_e1","WKH2020_e1_3",1,0,1,1882,"Include",155
"WKH2020_e1","WKH2020_e1_3",1,0,1,1822,"Include",156
"WKH2020_e1","WKH2020_e1_3",1,1,2,2072,"Include",157
"WKH2020_e1","WKH2020_e1_3",1,0,2,2280,"Include",158
"WKH2020_e1","WKH2020_e1_3",1,1,1,2021,"Include",159
"WKH2020_e1","WKH2020_e1_3",1,0,1,1189,"Include",160
"WKH2020_e1","WKH2020_e1_3",1,0,3,2580,"Include",161
"WKH2020_e1","WKH2020_e1_3",1,1,3,2065,"Include",162
"WKH2020_e1","WKH2020_e1_3",1,0,2,2431,"Include",163
"WKH2020_e1","WKH2020_e1_3",1,1,6,1253,"Include",164
"WKH2020_e1","WKH2020_e1_3",1,0,3,2709,"Include",165
"WKH2020_e1","WKH2020_e1_3",1,0,4,2706,"Include",166
"WKH2020_e1","WKH2020_e1_3",1,1,6,1162,"Include",167
"WKH2020_e1","WKH2020_e1_3",1,1,2,3000,"Include",168
"WKH2020_e1","WKH2020_e1_3",1,0,1,1746,"Include",169
"WKH2020_e1","WKH2020_e1_3",1,0,2,2049,"Include",170
"WKH2020_e1","WKH2020_e1_3",1,1,5,2379,"Include",171
"WKH2020_e1","WKH2020_e1_3",1,1,6,1214,"Include",172
"WKH2020_e1","WKH2020_e1_3",1,1,4,2169,"Include",173
"WKH2020_e1","WKH2020_e1_3",1,0,2,1974,"Include",174
"WKH2020_e1","WKH2020_e1_3",1,1,4,1987,"Include",175
"WKH2020_e1","WKH2020_e1_3",1,0,2,2020,"Include",176
"WKH2020_e1","WKH2020_e1_3",1,1,1,2296,"Include",177
"WKH2020_e1","WKH2020_e1_3",1,0,1,1551,"Include",178
"WKH2020_e1","WKH2020_e1_3",1,0,5,2225,"Include",179
"WKH2020_e1","WKH2020_e1_3",1,1,5,1714,"Include",180
"WKH2020_e1","WKH2020_e1_4",1,1,1,2702,"Include",1
"WKH2020_e1","WKH2020_e1_4",1,1,6,949,"Include",2
"WKH2020_e1","WKH2020_e1_4",1,0,1,835,"Include",3
"WKH2020_e1","WKH2020_e1_4",1,0,1,1551,"Include",4
"WKH2020_e1","WKH2020_e1_4",1,1,6,1141,"Include",5
"WKH2020_e1","WKH2020_e1_4",1,1,5,2346,"Include",6
"WKH2020_e1","WKH2020_e1_4",1,0,2,3491,"Include",7
"WKH2020_e1","WKH2020_e1_4",1,0,2,1314,"Include",8
"WKH2020_e1","WKH2020_e1_4",1,0,1,1103,"Include",9
"WKH2020_e1","WKH2020_e1_4",1,0,1,1493,"Include",10
"WKH2020_e1","WKH2020_e1_4",1,1,6,1061,"Include",11
"WKH2020_e1","WKH2020_e1_4",1,1,6,818,"Include",12
"WKH2020_e1","WKH2020_e1_4",1,0,1,2063,"Include",13
"WKH2020_e1","WKH2020_e1_4",1,1,6,1155,"Include",14
"WKH2020_e1","WKH2020_e1_4",1,1,1,1391,"Include",15
"WKH2020_e1","WKH2020_e1_4",1,0,1,1299,"Include",16
"WKH2020_e1","WKH2020_e1_4",1,1,5,2347,"Include",17
"WKH2020_e1","WKH2020_e1_4",1,0,1,1009,"Include",18
"WKH2020_e1","WKH2020_e1_4",1,1,6,977,"Include",19
"WKH2020_e1","WKH2020_e1_4",1,0,1,1233,"Include",20
"WKH2020_e1","WKH2020_e1_4",1,0,1,1455,"Include",21
"WKH2020_e1","WKH2020_e1_4",1,0,1,1648,"Include",22
"WKH2020_e1","WKH2020_e1_4",1,1,6,1264,"Include",23
"WKH2020_e1","WKH2020_e1_4",1,1,6,790,"Include",24
"WKH2020_e1","WKH2020_e1_4",1,1,6,1383,"Include",25
"WKH2020_e1","WKH2020_e1_4",1,0,1,1368,"Include",26
"WKH2020_e1","WKH2020_e1_4",1,0,1,1077,"Include",27
"WKH2020_e1","WKH2020_e1_4",1,1,5,2499,"Include",28
"WKH2020_e1","WKH2020_e1_4",1,1,6,2224,"Include",29
"WKH2020_e1","WKH2020_e1_4",1,1,6,1161,"Include",30
"WKH2020_e1","WKH2020_e1_4",1,0,2,3749,"Include",31
"WKH2020_e1","WKH2020_e1_4",1,0,2,2219,"Include",32
"WKH2020_e1","WKH2020_e1_4",1,1,6,1610,"Include",33
"WKH2020_e1","WKH2020_e1_4",1,1,6,1300,"Include",34
"WKH2020_e1","WKH2020_e1_4",1,0,2,2488,"Include",35
"WKH2020_e1","WKH2020_e1_4",1,0,1,2151,"Include",36
"WKH2020_e1","WKH2020_e1_4",1,1,5,3848,"Include",37
"WKH2020_e1","WKH2020_e1_4",1,0,1,1519,"Include",38
"WKH2020_e1","WKH2020_e1_4",1,1,6,1277,"Include",39
"WKH2020_e1","WKH2020_e1_4",1,0,6,855,"Include",40
"WKH2020_e1","WKH2020_e1_4",1,0,1,1055,"Include",41
"WKH2020_e1","WKH2020_e1_4",1,1,6,1124,"Include",42
"WKH2020_e1","WKH2020_e1_4",1,0,1,1161,"Include",43
"WKH2020_e1","WKH2020_e1_4",1,1,6,878,"Include",44
"WKH2020_e1","WKH2020_e1_4",1,0,2,3747,"Include",45
"WKH2020_e1","WKH2020_e1_4",1,0,2,3379,"Include",46
"WKH2020_e1","WKH2020_e1_4",1,1,6,1399,"Include",47
"WKH2020_e1","WKH2020_e1_4",1,1,6,969,"Include",48
"WKH2020_e1","WKH2020_e1_4",1,0,5,4254,"Include",49
"WKH2020_e1","WKH2020_e1_4",1,0,2,1875,"Include",50
"WKH2020_e1","WKH2020_e1_4",1,1,2,1361,"Include",51
"WKH2020_e1","WKH2020_e1_4",1,1,4,2407,"Include",52
"WKH2020_e1","WKH2020_e1_4",1,1,6,1416,"Include",53
"WKH2020_e1","WKH2020_e1_4",1,0,2,2624,"Include",54
"WKH2020_e1","WKH2020_e1_4",1,1,3,2053,"Include",55
"WKH2020_e1","WKH2020_e1_4",1,0,2,1611,"Include",56
"WKH2020_e1","WKH2020_e1_4",1,1,5,1558,"Include",57
"WKH2020_e1","WKH2020_e1_4",1,0,2,2725,"Include",58
"WKH2020_e1","WKH2020_e1_4",1,0,2,3833,"Include",59
"WKH2020_e1","WKH2020_e1_4",1,1,6,1593,"Include",60
"WKH2020_e1","WKH2020_e1_4",1,1,6,2308,"Include",61
"WKH2020_e1","WKH2020_e1_4",1,1,6,1418,"Include",62
"WKH2020_e1","WKH2020_e1_4",1,0,2,3338,"Include",63
"WKH2020_e1","WKH2020_e1_4",1,0,2,2276,"Include",64
"WKH2020_e1","WKH2020_e1_4",1,1,6,1377,"Include",65
"WKH2020_e1","WKH2020_e1_4",1,1,6,1015,"Include",66
"WKH2020_e1","WKH2020_e1_4",1,0,2,2090,"Include",67
"WKH2020_e1","WKH2020_e1_4",1,0,2,3134,"Include",68
"WKH2020_e1","WKH2020_e1_4",1,0,2,1486,"Include",69
"WKH2020_e1","WKH2020_e1_4",1,0,2,1615,"Include",70
"WKH2020_e1","WKH2020_e1_4",1,1,6,2039,"Include",71
"WKH2020_e1","WKH2020_e1_4",1,1,6,1242,"Include",72
"WKH2020_e1","WKH2020_e1_4",1,0,2,2733,"Include",73
"WKH2020_e1","WKH2020_e1_4",1,1,6,1500,"Include",74
"WKH2020_e1","WKH2020_e1_4",1,1,6,1218,"Include",75
"WKH2020_e1","WKH2020_e1_4",1,0,2,1555,"Include",76
"WKH2020_e1","WKH2020_e1_4",1,1,6,1871,"Include",77
"WKH2020_e1","WKH2020_e1_4",1,0,1,1641,"Include",78
"WKH2020_e1","WKH2020_e1_4",1,1,6,1158,"Include",79
"WKH2020_e1","WKH2020_e1_4",1,0,1,1344,"Include",80
"WKH2020_e1","WKH2020_e1_4",1,0,1,2398,"Include",81
"WKH2020_e1","WKH2020_e1_4",1,0,1,1325,"Include",82
"WKH2020_e1","WKH2020_e1_4",1,1,6,1251,"Include",83
"WKH2020_e1","WKH2020_e1_4",1,1,6,968,"Include",84
"WKH2020_e1","WKH2020_e1_4",1,1,6,1289,"Include",85
"WKH2020_e1","WKH2020_e1_4",1,0,1,944,"Include",86
"WKH2020_e1","WKH2020_e1_4",1,0,1,1141,"Include",87
"WKH2020_e1","WKH2020_e1_4",1,1,6,1040,"Include",88
"WKH2020_e1","WKH2020_e1_4",1,1,6,1025,"Include",89
"WKH2020_e1","WKH2020_e1_4",1,1,2,2244,"Include",90
"WKH2020_e1","WKH2020_e1_4",1,0,1,2100,"Include",91
"WKH2020_e1","WKH2020_e1_4",1,0,1,1310,"Include",92
"WKH2020_e1","WKH2020_e1_4",1,1,6,1819,"Include",93
"WKH2020_e1","WKH2020_e1_4",1,1,6,806,"Include",94
"WKH2020_e1","WKH2020_e1_4",1,0,2,3045,"Include",95
"WKH2020_e1","WKH2020_e1_4",1,0,1,2209,"Include",96
"WKH2020_e1","WKH2020_e1_4",1,1,4,1957,"Include",97
"WKH2020_e1","WKH2020_e1_4",1,0,1,1989,"Include",98
"WKH2020_e1","WKH2020_e1_4",1,1,6,1587,"Include",99
"WKH2020_e1","WKH2020_e1_4",1,0,1,850,"Include",100
"WKH2020_e1","WKH2020_e1_4",1,0,1,1085,"Include",101
"WKH2020_e1","WKH2020_e1_4",1,1,6,1160,"Include",102
"WKH2020_e1","WKH2020_e1_4",1,0,1,1269,"Include",103
"WKH2020_e1","WKH2020_e1_4",1,1,6,1905,"Include",104
"WKH2020_e1","WKH2020_e1_4",1,0,1,896,"Include",105
"WKH2020_e1","WKH2020_e1_4",1,0,4,1874,"Include",106
"WKH2020_e1","WKH2020_e1_4",1,1,6,1598,"Include",107
"WKH2020_e1","WKH2020_e1_4",1,1,6,1028,"Include",108
"WKH2020_e1","WKH2020_e1_4",1,0,1,1985,"Include",109
"WKH2020_e1","WKH2020_e1_4",1,0,1,1028,"Include",110
"WKH2020_e1","WKH2020_e1_4",1,1,4,2070,"Include",111
"WKH2020_e1","WKH2020_e1_4",1,1,1,2052,"Include",112
"WKH2020_e1","WKH2020_e1_4",1,1,6,1111,"Include",113
"WKH2020_e1","WKH2020_e1_4",1,0,1,1833,"Include",114
"WKH2020_e1","WKH2020_e1_4",1,1,5,1832,"Include",115
"WKH2020_e1","WKH2020_e1_4",1,0,1,1171,"Include",116
"WKH2020_e1","WKH2020_e1_4",1,1,6,1162,"Include",117
"WKH2020_e1","WKH2020_e1_4",1,0,4,1930,"Include",118
"WKH2020_e1","WKH2020_e1_4",1,0,1,1492,"Include",119
"WKH2020_e1","WKH2020_e1_4",1,1,6,1212,"Include",120
"WKH2020_e1","WKH2020_e1_4",1,1,6,2354,"Include",121
"WKH2020_e1","WKH2020_e1_4",1,0,2,2461,"Include",122
"WKH2020_e1","WKH2020_e1_4",1,0,1,2787,"Include",123
"WKH2020_e1","WKH2020_e1_4",1,1,3,3111,"Include",124
"WKH2020_e1","WKH2020_e1_4",1,1,6,1603,"Include",125
"WKH2020_e1","WKH2020_e1_4",1,0,2,2926,"Include",126
"WKH2020_e1","WKH2020_e1_4",1,0,2,2170,"Include",127
"WKH2020_e1","WKH2020_e1_4",1,0,1,2402,"Include",128
"WKH2020_e1","WKH2020_e1_4",1,0,1,2884,"Include",129
"WKH2020_e1","WKH2020_e1_4",1,1,5,3226,"Include",130
"WKH2020_e1","WKH2020_e1_4",1,1,6,2588,"Include",131
"WKH2020_e1","WKH2020_e1_4",1,0,1,1934,"Include",132
"WKH2020_e1","WKH2020_e1_4",1,1,1,1473,"Include",133
"WKH2020_e1","WKH2020_e1_4",1,1,1,1160,"Include",134
"WKH2020_e1","WKH2020_e1_4",1,0,1,1617,"Include",135
"WKH2020_e1","WKH2020_e1_4",1,1,1,1231,"Include",136
"WKH2020_e1","WKH2020_e1_4",1,0,1,1184,"Include",137
"WKH2020_e1","WKH2020_e1_4",1,1,5,2303,"Include",138
"WKH2020_e1","WKH2020_e1_4",1,0,2,3841,"Include",139
"WKH2020_e1","WKH2020_e1_4",1,0,3,3736,"Include",140
"WKH2020_e1","WKH2020_e1_4",1,0,2,2449,"Include",141
"WKH2020_e1","WKH2020_e1_4",1,1,6,1558,"Include",142
"WKH2020_e1","WKH2020_e1_4",1,1,6,1466,"Include",143
"WKH2020_e1","WKH2020_e1_4",1,1,6,1698,"Include",144
"WKH2020_e1","WKH2020_e1_4",1,0,1,1408,"Include",145
"WKH2020_e1","WKH2020_e1_4",1,0,1,1360,"Include",146
"WKH2020_e1","WKH2020_e1_4",1,1,6,1521,"Include",147
"WKH2020_e1","WKH2020_e1_4",1,1,5,2002,"Include",148
"WKH2020_e1","WKH2020_e1_4",1,1,6,1609,"Include",149
"WKH2020_e1","WKH2020_e1_4",1,0,1,3410,"Include",150
"WKH2020_e1","WKH2020_e1_4",1,0,1,3421,"Include",151
"WKH2020_e1","WKH2020_e1_4",1,1,6,1573,"Include",152
"WKH2020_e1","WKH2020_e1_4",1,1,6,1205,"Include",153
"WKH2020_e1","WKH2020_e1_4",1,0,2,2405,"Include",154
"WKH2020_e1","WKH2020_e1_4",1,0,1,2477,"Include",155
"WKH2020_e1","WKH2020_e1_4",1,1,5,2443,"Include",156
"WKH2020_e1","WKH2020_e1_4",1,0,1,1843,"Include",157
"WKH2020_e1","WKH2020_e1_4",1,1,6,1782,"Include",158
"WKH2020_e1","WKH2020_e1_4",1,0,1,1426,"Include",159
"WKH2020_e1","WKH2020_e1_4",1,0,1,3330,"Include",160
"WKH2020_e1","WKH2020_e1_4",1,1,6,1372,"Include",161
"WKH2020_e1","WKH2020_e1_4",1,0,1,2239,"Include",162
"WKH2020_e1","WKH2020_e1_4",1,1,6,1826,"Include",163
"WKH2020_e1","WKH2020_e1_4",1,0,1,1543,"Include",164
"WKH2020_e1","WKH2020_e1_4",1,0,3,2962,"Include",165
"WKH2020_e1","WKH2020_e1_4",1,1,6,1087,"Include",166
"WKH2020_e1","WKH2020_e1_4",1,1,6,1075,"Include",167
"WKH2020_e1","WKH2020_e1_4",1,0,1,2003,"Include",168
"WKH2020_e1","WKH2020_e1_4",1,0,1,1549,"Include",169
"WKH2020_e1","WKH2020_e1_4",1,1,6,1404,"Include",170
"WKH2020_e1","WKH2020_e1_4",1,1,2,3202,"Include",171
"WKH2020_e1","WKH2020_e1_4",1,1,4,2595,"Include",172
"WKH2020_e1","WKH2020_e1_4",1,0,1,1708,"Include",173
"WKH2020_e1","WKH2020_e1_4",1,1,6,941,"Include",174
"WKH2020_e1","WKH2020_e1_4",1,0,1,1530,"Include",175
"WKH2020_e1","WKH2020_e1_4",1,1,6,1137,"Include",176
"WKH2020_e1","WKH2020_e1_4",1,0,2,3156,"Include",177
"WKH2020_e1","WKH2020_e1_4",1,0,3,3172,"Include",178
"WKH2020_e1","WKH2020_e1_4",1,1,5,1871,"Include",179
"WKH2020_e1","WKH2020_e1_5",1,1,6,2859,"Include",1
"WKH2020_e1","WKH2020_e1_5",1,1,5,3018,"Include",2
"WKH2020_e1","WKH2020_e1_5",1,0,1,1695,"Include",3
"WKH2020_e1","WKH2020_e1_5",1,0,1,1431,"Include",4
"WKH2020_e1","WKH2020_e1_5",1,1,6,1265,"Include",5
"WKH2020_e1","WKH2020_e1_5",1,1,6,1053,"Include",6
"WKH2020_e1","WKH2020_e1_5",1,0,1,1230,"Include",7
"WKH2020_e1","WKH2020_e1_5",1,0,1,1249,"Include",8
"WKH2020_e1","WKH2020_e1_5",1,0,1,1397,"Include",9
"WKH2020_e1","WKH2020_e1_5",1,0,2,2755,"Include",10
"WKH2020_e1","WKH2020_e1_5",1,1,6,1476,"Include",11
"WKH2020_e1","WKH2020_e1_5",1,1,6,1075,"Include",12
"WKH2020_e1","WKH2020_e1_5",1,0,1,2063,"Include",13
"WKH2020_e1","WKH2020_e1_5",1,1,2,3229,"Include",14
"WKH2020_e1","WKH2020_e1_5",1,1,4,4290,"Include",15
"WKH2020_e1","WKH2020_e1_5",1,0,2,2073,"Include",16
"WKH2020_e1","WKH2020_e1_5",1,1,6,1123,"Include",17
"WKH2020_e1","WKH2020_e1_5",1,0,1,2033,"Include",18
"WKH2020_e1","WKH2020_e1_5",1,1,6,1063,"Include",19
"WKH2020_e1","WKH2020_e1_5",1,0,1,1466,"Include",20
"WKH2020_e1","WKH2020_e1_5",1,0,3,6471,"Include",21
"WKH2020_e1","WKH2020_e1_5",1,0,2,2854,"Include",22
"WKH2020_e1","WKH2020_e1_5",1,1,6,1975,"Include",23
"WKH2020_e1","WKH2020_e1_5",1,1,5,4187,"Include",24
"WKH2020_e1","WKH2020_e1_5",1,1,6,1032,"Include",25
"WKH2020_e1","WKH2020_e1_5",1,0,2,2290,"Include",26
"WKH2020_e1","WKH2020_e1_5",1,0,1,1712,"Include",27
"WKH2020_e1","WKH2020_e1_5",1,1,6,882,"Include",28
"WKH2020_e1","WKH2020_e1_5",1,1,6,1040,"Include",29
"WKH2020_e1","WKH2020_e1_5",1,1,1,1392,"Include",30
"WKH2020_e1","WKH2020_e1_5",1,0,1,1416,"Include",31
"WKH2020_e1","WKH2020_e1_5",1,0,1,1762,"Include",32
"WKH2020_e1","WKH2020_e1_5",1,1,3,4719,"Include",33
"WKH2020_e1","WKH2020_e1_5",1,1,5,3897,"Include",34
"WKH2020_e1","WKH2020_e1_5",1,0,2,2349,"Include",35
"WKH2020_e1","WKH2020_e1_5",1,0,1,1736,"Include",36
"WKH2020_e1","WKH2020_e1_5",1,1,6,1952,"Include",37
"WKH2020_e1","WKH2020_e1_5",1,0,1,1167,"Include",38
"WKH2020_e1","WKH2020_e1_5",1,1,6,1435,"Include",39
"WKH2020_e1","WKH2020_e1_5",1,0,6,1346,"Include",40
"WKH2020_e1","WKH2020_e1_5",1,0,2,2099,"Include",41
"WKH2020_e1","WKH2020_e1_5",1,1,6,1756,"Include",42
"WKH2020_e1","WKH2020_e1_5",1,0,1,1497,"Include",43
"WKH2020_e1","WKH2020_e1_5",1,1,5,4143,"Include",44
"WKH2020_e1","WKH2020_e1_5",1,0,1,1357,"Include",45
"WKH2020_e1","WKH2020_e1_5",1,0,6,1143,"Include",46
"WKH2020_e1","WKH2020_e1_5",1,1,6,1400,"Include",47
"WKH2020_e1","WKH2020_e1_5",1,1,6,965,"Include",48
"WKH2020_e1","WKH2020_e1_5",1,0,6,2005,"Include",49
"WKH2020_e1","WKH2020_e1_5",1,0,1,1774,"Include",50
"WKH2020_e1","WKH2020_e1_5",1,1,6,2057,"Include",51
"WKH2020_e1","WKH2020_e1_5",1,1,6,1341,"Include",52
"WKH2020_e1","WKH2020_e1_5",1,1,1,1733,"Include",53
"WKH2020_e1","WKH2020_e1_5",1,0,2,3741,"Include",54
"WKH2020_e1","WKH2020_e1_5",1,1,2,1657,"Include",55
"WKH2020_e1","WKH2020_e1_5",1,0,1,1798,"Include",56
"WKH2020_e1","WKH2020_e1_5",1,1,6,1069,"Include",57
"WKH2020_e1","WKH2020_e1_5",1,0,1,1344,"Include",58
"WKH2020_e1","WKH2020_e1_5",1,0,2,2877,"Include",59
"WKH2020_e1","WKH2020_e1_5",1,1,6,1523,"Include",60
"WKH2020_e1","WKH2020_e1_5",1,1,5,3000,"Include",61
"WKH2020_e1","WKH2020_e1_5",1,1,6,1467,"Include",62
"WKH2020_e1","WKH2020_e1_5",1,0,1,1505,"Include",63
"WKH2020_e1","WKH2020_e1_5",1,0,1,1985,"Include",64
"WKH2020_e1","WKH2020_e1_5",1,1,5,2620,"Include",65
"WKH2020_e1","WKH2020_e1_5",1,1,6,1289,"Include",66
"WKH2020_e1","WKH2020_e1_5",1,0,1,1588,"Include",67
"WKH2020_e1","WKH2020_e1_5",1,0,1,1217,"Include",68
"WKH2020_e1","WKH2020_e1_5",1,0,1,1136,"Include",69
"WKH2020_e1","WKH2020_e1_5",1,0,1,1431,"Include",70
"WKH2020_e1","WKH2020_e1_5",1,1,6,2214,"Include",71
"WKH2020_e1","WKH2020_e1_5",1,1,6,1049,"Include",72
"WKH2020_e1","WKH2020_e1_5",1,0,1,2646,"Include",73
"WKH2020_e1","WKH2020_e1_5",1,1,5,5119,"Include",74
"WKH2020_e1","WKH2020_e1_5",1,1,6,1240,"Include",75
"WKH2020_e1","WKH2020_e1_5",1,0,1,1893,"Include",76
"WKH2020_e1","WKH2020_e1_5",1,1,6,979,"Include",77
"WKH2020_e1","WKH2020_e1_5",1,0,1,2694,"Include",78
"WKH2020_e1","WKH2020_e1_5",1,1,6,1831,"Include",79
"WKH2020_e1","WKH2020_e1_5",1,0,2,2156,"Include",80
"WKH2020_e1","WKH2020_e1_5",1,0,2,2432,"Include",81
"WKH2020_e1","WKH2020_e1_5",1,0,1,3249,"Include",82
"WKH2020_e1","WKH2020_e1_5",1,1,6,1273,"Include",83
"WKH2020_e1","WKH2020_e1_5",1,1,1,3477,"Include",84
"WKH2020_e1","WKH2020_e1_5",1,1,6,1424,"Include",85
"WKH2020_e1","WKH2020_e1_5",1,0,2,2916,"Include",86
"WKH2020_e1","WKH2020_e1_5",1,0,1,1621,"Include",87
"WKH2020_e1","WKH2020_e1_5",1,1,5,1912,"Include",88
"WKH2020_e1","WKH2020_e1_5",1,1,6,1522,"Include",89
"WKH2020_e1","WKH2020_e1_5",1,1,6,1333,"Include",90
"WKH2020_e1","WKH2020_e1_5",1,0,3,3491,"Include",91
"WKH2020_e1","WKH2020_e1_5",1,0,2,2106,"Include",92
"WKH2020_e1","WKH2020_e1_5",1,1,6,1504,"Include",93
"WKH2020_e1","WKH2020_e1_5",1,1,6,1937,"Include",94
"WKH2020_e1","WKH2020_e1_5",1,0,4,4364,"Include",95
"WKH2020_e1","WKH2020_e1_5",1,0,2,2533,"Include",96
"WKH2020_e1","WKH2020_e1_5",1,1,2,2094,"Include",97
"WKH2020_e1","WKH2020_e1_5",1,0,2,2059,"Include",98
"WKH2020_e1","WKH2020_e1_5",1,1,6,1265,"Include",99
"WKH2020_e1","WKH2020_e1_5",1,0,1,1248,"Include",100
"WKH2020_e1","WKH2020_e1_5",1,0,2,2451,"Include",101
"WKH2020_e1","WKH2020_e1_5",1,1,6,1638,"Include",102
"WKH2020_e1","WKH2020_e1_5",1,0,2,2585,"Include",103
"WKH2020_e1","WKH2020_e1_5",1,1,6,1054,"Include",104
"WKH2020_e1","WKH2020_e1_5",1,0,1,1237,"Include",105
"WKH2020_e1","WKH2020_e1_5",1,0,5,2153,"Include",106
"WKH2020_e1","WKH2020_e1_5",1,1,4,4048,"Include",107
"WKH2020_e1","WKH2020_e1_5",1,1,6,1431,"Include",108
"WKH2020_e1","WKH2020_e1_5",1,0,1,1756,"Include",109
"WKH2020_e1","WKH2020_e1_5",1,0,5,4291,"Include",110
"WKH2020_e1","WKH2020_e1_5",1,1,6,1115,"Include",111
"WKH2020_e1","WKH2020_e1_5",1,1,6,1213,"Include",112
"WKH2020_e1","WKH2020_e1_5",1,1,2,2381,"Include",113
"WKH2020_e1","WKH2020_e1_5",1,0,3,6158,"Include",114
"WKH2020_e1","WKH2020_e1_5",1,1,6,1485,"Include",115
"WKH2020_e1","WKH2020_e1_5",1,0,1,1244,"Include",116
"WKH2020_e1","WKH2020_e1_5",1,1,6,1388,"Include",117
"WKH2020_e1","WKH2020_e1_5",1,0,2,1880,"Include",118
"WKH2020_e1","WKH2020_e1_5",1,0,1,2718,"Include",119
"WKH2020_e1","WKH2020_e1_5",1,1,6,1611,"Include",120
"WKH2020_e1","WKH2020_e1_5",1,1,6,4121,"Include",121
"WKH2020_e1","WKH2020_e1_5",1,1,6,1796,"Include",122
"WKH2020_e1","WKH2020_e1_5",1,0,1,2093,"Include",123
"WKH2020_e1","WKH2020_e1_5",1,0,1,1591,"Include",124
"WKH2020_e1","WKH2020_e1_5",1,1,1,2979,"Include",125
"WKH2020_e1","WKH2020_e1_5",1,1,1,1433,"Include",126
"WKH2020_e1","WKH2020_e1_5",1,0,1,2109,"Include",127
"WKH2020_e1","WKH2020_e1_5",1,0,2,3503,"Include",128
"WKH2020_e1","WKH2020_e1_5",1,0,2,2538,"Include",129
"WKH2020_e1","WKH2020_e1_5",1,0,1,2514,"Include",130
"WKH2020_e1","WKH2020_e1_5",1,1,6,1943,"Include",131
"WKH2020_e1","WKH2020_e1_5",1,1,6,1128,"Include",132
"WKH2020_e1","WKH2020_e1_5",1,0,1,2787,"Include",133
"WKH2020_e1","WKH2020_e1_5",1,1,6,2431,"Include",134
"WKH2020_e1","WKH2020_e1_5",1,1,5,4563,"Include",135
"WKH2020_e1","WKH2020_e1_5",1,0,2,3055,"Include",136
"WKH2020_e1","WKH2020_e1_5",1,1,1,2373,"Include",137
"WKH2020_e1","WKH2020_e1_5",1,0,2,6444,"Include",138
"WKH2020_e1","WKH2020_e1_5",1,1,6,1362,"Include",139
"WKH2020_e1","WKH2020_e1_5",1,0,2,1789,"Include",140
"WKH2020_e1","WKH2020_e1_5",1,0,1,2934,"Include",141
"WKH2020_e1","WKH2020_e1_5",1,0,4,4917,"Include",142
"WKH2020_e1","WKH2020_e1_5",1,1,5,2172,"Include",143
"WKH2020_e1","WKH2020_e1_5",1,1,6,1828,"Include",144
"WKH2020_e1","WKH2020_e1_5",1,1,6,1560,"Include",145
"WKH2020_e1","WKH2020_e1_5",1,0,1,1899,"Include",146
"WKH2020_e1","WKH2020_e1_5",1,0,2,4003,"Include",147
"WKH2020_e1","WKH2020_e1_5",1,1,6,1643,"Include",148
"WKH2020_e1","WKH2020_e1_5",1,1,6,1079,"Include",149
"WKH2020_e1","WKH2020_e1_5",1,1,3,2797,"Include",150
"WKH2020_e1","WKH2020_e1_5",1,0,2,3231,"Include",151
"WKH2020_e1","WKH2020_e1_5",1,0,1,2014,"Include",152
"WKH2020_e1","WKH2020_e1_5",1,1,6,1159,"Include",153
"WKH2020_e1","WKH2020_e1_5",1,1,6,1137,"Include",154
"WKH2020_e1","WKH2020_e1_5",1,0,2,2917,"Include",155
"WKH2020_e1","WKH2020_e1_5",1,0,1,1672,"Include",156
"WKH2020_e1","WKH2020_e1_5",1,1,3,4048,"Include",157
"WKH2020_e1","WKH2020_e1_5",1,0,1,1786,"Include",158
"WKH2020_e1","WKH2020_e1_5",1,1,6,1286,"Include",159
"WKH2020_e1","WKH2020_e1_5",1,0,1,1048,"Include",160
"WKH2020_e1","WKH2020_e1_5",1,0,1,1362,"Include",161
"WKH2020_e1","WKH2020_e1_5",1,1,6,1428,"Include",162
"WKH2020_e1","WKH2020_e1_5",1,0,1,1408,"Include",163
"WKH2020_e1","WKH2020_e1_5",1,1,6,1725,"Include",164
"WKH2020_e1","WKH2020_e1_5",1,0,1,1456,"Include",165
"WKH2020_e1","WKH2020_e1_5",1,0,2,3807,"Include",166
"WKH2020_e1","WKH2020_e1_5",1,1,6,1307,"Include",167
"WKH2020_e1","WKH2020_e1_5",1,1,6,1485,"Include",168
"WKH2020_e1","WKH2020_e1_5",1,0,2,1936,"Include",169
"WKH2020_e1","WKH2020_e1_5",1,0,1,2238,"Include",170
"WKH2020_e1","WKH2020_e1_5",1,1,5,2916,"Include",171
"WKH2020_e1","WKH2020_e1_5",1,1,6,1617,"Include",172
"WKH2020_e1","WKH2020_e1_5",1,1,6,1667,"Include",173
"WKH2020_e1","WKH2020_e1_5",1,0,1,3889,"Include",174
"WKH2020_e1","WKH2020_e1_5",1,1,6,2542,"Include",175
"WKH2020_e1","WKH2020_e1_5",1,0,2,3000,"Include",176
"WKH2020_e1","WKH2020_e1_5",1,1,1,2052,"Include",177
"WKH2020_e1","WKH2020_e1_5",1,0,1,1542,"Include",178
"WKH2020_e1","WKH2020_e1_5",1,0,1,2211,"Include",179
"WKH2020_e1","WKH2020_e1_5",1,1,6,1408,"Include",180
"WKH2020_e1","WKH2020_e1_6",1,1,1,3165,"Include",1
"WKH2020_e1","WKH2020_e1_6",1,1,6,922,"Include",2
"WKH2020_e1","WKH2020_e1_6",1,0,1,890,"Include",3
"WKH2020_e1","WKH2020_e1_6",1,0,1,945,"Include",4
"WKH2020_e1","WKH2020_e1_6",1,1,6,780,"Include",5
"WKH2020_e1","WKH2020_e1_6",1,1,6,718,"Include",6
"WKH2020_e1","WKH2020_e1_6",1,0,1,931,"Include",7
"WKH2020_e1","WKH2020_e1_6",1,0,1,869,"Include",8
"WKH2020_e1","WKH2020_e1_6",1,0,1,895,"Include",9
"WKH2020_e1","WKH2020_e1_6",1,0,1,906,"Include",10
"WKH2020_e1","WKH2020_e1_6",1,1,6,913,"Include",11
"WKH2020_e1","WKH2020_e1_6",1,1,6,761,"Include",12
"WKH2020_e1","WKH2020_e1_6",1,0,6,1746,"Include",13
"WKH2020_e1","WKH2020_e1_6",1,1,1,867,"Include",14
"WKH2020_e1","WKH2020_e1_6",1,1,5,1990,"Include",15
"WKH2020_e1","WKH2020_e1_6",1,0,1,1055,"Include",16
"WKH2020_e1","WKH2020_e1_6",1,1,1,988,"Include",17
"WKH2020_e1","WKH2020_e1_6",1,0,1,1379,"Include",18
"WKH2020_e1","WKH2020_e1_6",1,1,6,911,"Include",19
"WKH2020_e1","WKH2020_e1_6",1,0,1,1359,"Include",20
"WKH2020_e1","WKH2020_e1_6",1,0,1,1219,"Include",21
"WKH2020_e1","WKH2020_e1_6",1,0,3,2133,"Include",22
"WKH2020_e1","WKH2020_e1_6",1,1,6,1122,"Include",23
"WKH2020_e1","WKH2020_e1_6",1,1,6,763,"Include",24
"WKH2020_e1","WKH2020_e1_6",1,1,6,894,"Include",25
"WKH2020_e1","WKH2020_e1_6",1,0,1,899,"Include",26
"WKH2020_e1","WKH2020_e1_6",1,0,1,1023,"Include",27
"WKH2020_e1","WKH2020_e1_6",1,1,6,916,"Include",28
"WKH2020_e1","WKH2020_e1_6",1,1,6,916,"Include",29
"WKH2020_e1","WKH2020_e1_6",1,1,1,976,"Include",30
"WKH2020_e1","WKH2020_e1_6",1,0,1,829,"Include",31
"WKH2020_e1","WKH2020_e1_6",1,0,1,824,"Include",32
"WKH2020_e1","WKH2020_e1_6",1,1,6,899,"Include",33
"WKH2020_e1","WKH2020_e1_6",1,1,6,1358,"Include",34
"WKH2020_e1","WKH2020_e1_6",1,0,1,918,"Include",35
"WKH2020_e1","WKH2020_e1_6",1,0,1,1053,"Include",36
"WKH2020_e1","WKH2020_e1_6",1,1,1,1104,"Include",37
"WKH2020_e1","WKH2020_e1_6",1,0,1,841,"Include",38
"WKH2020_e1","WKH2020_e1_6",1,1,6,1100,"Include",39
"WKH2020_e1","WKH2020_e1_6",1,0,1,1049,"Include",40
"WKH2020_e1","WKH2020_e1_6",1,0,1,973,"Include",41
"WKH2020_e1","WKH2020_e1_6",1,1,1,1503,"Include",42
"WKH2020_e1","WKH2020_e1_6",1,0,1,1610,"Include",43
"WKH2020_e1","WKH2020_e1_6",1,1,1,1030,"Include",44
"WKH2020_e1","WKH2020_e1_6",1,0,1,2085,"Include",45
"WKH2020_e1","WKH2020_e1_6",1,0,1,1593,"Include",46
"WKH2020_e1","WKH2020_e1_6",1,1,1,1579,"Include",47
"WKH2020_e1","WKH2020_e1_6",1,1,6,752,"Include",48
"WKH2020_e1","WKH2020_e1_6",1,0,1,1375,"Include",49
"WKH2020_e1","WKH2020_e1_6",1,0,1,1194,"Include",50
"WKH2020_e1","WKH2020_e1_6",1,1,1,1005,"Include",51
"WKH2020_e1","WKH2020_e1_6",1,1,6,993,"Include",52
"WKH2020_e1","WKH2020_e1_6",1,1,6,775,"Include",53
"WKH2020_e1","WKH2020_e1_6",1,0,1,998,"Include",54
"WKH2020_e1","WKH2020_e1_6",1,1,6,1116,"Include",55
"WKH2020_e1","WKH2020_e1_6",1,0,1,855,"Include",56
"WKH2020_e1","WKH2020_e1_6",1,1,6,900,"Include",57
"WKH2020_e1","WKH2020_e1_6",1,0,1,999,"Include",58
"WKH2020_e1","WKH2020_e1_6",1,0,1,878,"Include",59
"WKH2020_e1","WKH2020_e1_6",1,1,6,1061,"Include",60
"WKH2020_e1","WKH2020_e1_6",1,1,6,1725,"Include",61
"WKH2020_e1","WKH2020_e1_6",1,1,6,1116,"Include",62
"WKH2020_e1","WKH2020_e1_6",1,0,1,1073,"Include",63
"WKH2020_e1","WKH2020_e1_6",1,0,1,1314,"Include",64
"WKH2020_e1","WKH2020_e1_6",1,1,1,1287,"Include",65
"WKH2020_e1","WKH2020_e1_6",1,1,6,967,"Include",66
"WKH2020_e1","WKH2020_e1_6",1,0,1,1078,"Include",67
"WKH2020_e1","WKH2020_e1_6",1,0,1,1206,"Include",68
"WKH2020_e1","WKH2020_e1_6",1,0,1,1125,"Include",69
"WKH2020_e1","WKH2020_e1_6",1,0,1,1067,"Include",70
"WKH2020_e1","WKH2020_e1_6",1,1,6,1235,"Include",71
"WKH2020_e1","WKH2020_e1_6",1,1,5,997,"Include",72
"WKH2020_e1","WKH2020_e1_6",1,0,3,2872,"Include",73
"WKH2020_e1","WKH2020_e1_6",1,1,6,1411,"Include",74
"WKH2020_e1","WKH2020_e1_6",1,1,6,820,"Include",75
"WKH2020_e1","WKH2020_e1_6",1,0,1,946,"Include",76
"WKH2020_e1","WKH2020_e1_6",1,1,6,815,"Include",77
"WKH2020_e1","WKH2020_e1_6",1,0,1,1058,"Include",78
"WKH2020_e1","WKH2020_e1_6",1,1,6,994,"Include",79
"WKH2020_e1","WKH2020_e1_6",1,0,1,1170,"Include",80
"WKH2020_e1","WKH2020_e1_6",1,0,1,954,"Include",81
"WKH2020_e1","WKH2020_e1_6",1,0,1,1381,"Include",82
"WKH2020_e1","WKH2020_e1_6",1,1,6,1802,"Include",83
"WKH2020_e1","WKH2020_e1_6",1,1,6,1012,"Include",84
"WKH2020_e1","WKH2020_e1_6",1,1,6,958,"Include",85
"WKH2020_e1","WKH2020_e1_6",1,0,1,1195,"Include",86
"WKH2020_e1","WKH2020_e1_6",1,0,1,1128,"Include",87
"WKH2020_e1","WKH2020_e1_6",1,1,1,1245,"Include",88
"WKH2020_e1","WKH2020_e1_6",1,1,5,770,"Include",89
"WKH2020_e1","WKH2020_e1_6",1,1,1,1508,"Include",90
"WKH2020_e1","WKH2020_e1_6",1,0,1,2114,"Include",91
"WKH2020_e1","WKH2020_e1_6",1,0,1,1380,"Include",92
"WKH2020_e1","WKH2020_e1_6",1,1,6,1301,"Include",93
"WKH2020_e1","WKH2020_e1_6",1,1,6,1392,"Include",94
"WKH2020_e1","WKH2020_e1_6",1,0,1,1135,"Include",95
"WKH2020_e1","WKH2020_e1_6",1,0,1,1301,"Include",96
"WKH2020_e1","WKH2020_e1_6",1,1,6,1181,"Include",97
"WKH2020_e1","WKH2020_e1_6",1,0,1,1460,"Include",98
"WKH2020_e1","WKH2020_e1_6",1,1,5,1474,"Include",99
"WKH2020_e1","WKH2020_e1_6",1,0,1,837,"Include",100
"WKH2020_e1","WKH2020_e1_6",1,0,1,1095,"Include",101
"WKH2020_e1","WKH2020_e1_6",1,1,4,1879,"Include",102
"WKH2020_e1","WKH2020_e1_6",1,0,1,1100,"Include",103
"WKH2020_e1","WKH2020_e1_6",1,1,6,790,"Include",104
"WKH2020_e1","WKH2020_e1_6",1,0,1,1119,"Include",105
"WKH2020_e1","WKH2020_e1_6",1,0,1,1674,"Include",106
"WKH2020_e1","WKH2020_e1_6",1,1,6,855,"Include",107
"WKH2020_e1","WKH2020_e1_6",1,1,6,985,"Include",108
"WKH2020_e1","WKH2020_e1_6",1,0,1,1241,"Include",109
"WKH2020_e1","WKH2020_e1_6",1,0,1,1235,"Include",110
"WKH2020_e1","WKH2020_e1_6",1,1,6,831,"Include",111
"WKH2020_e1","WKH2020_e1_6",1,1,6,999,"Include",112
"WKH2020_e1","WKH2020_e1_6",1,1,6,1172,"Include",113
"WKH2020_e1","WKH2020_e1_6",1,0,1,1104,"Include",114
"WKH2020_e1","WKH2020_e1_6",1,1,1,1317,"Include",115
"WKH2020_e1","WKH2020_e1_6",1,0,1,880,"Include",116
"WKH2020_e1","WKH2020_e1_6",1,1,1,1018,"Include",117
"WKH2020_e1","WKH2020_e1_6",1,0,1,1379,"Include",118
"WKH2020_e1","WKH2020_e1_6",1,0,1,1338,"Include",119
"WKH2020_e1","WKH2020_e1_6",1,1,5,1124,"Include",120
"WKH2020_e1","WKH2020_e1_6",1,1,6,1683,"Include",121
"WKH2020_e1","WKH2020_e1_6",1,1,6,1439,"Include",122
"WKH2020_e1","WKH2020_e1_6",1,0,1,1296,"Include",123
"WKH2020_e1","WKH2020_e1_6",1,0,2,1794,"Include",124
"WKH2020_e1","WKH2020_e1_6",1,1,6,1473,"Include",125
"WKH2020_e1","WKH2020_e1_6",1,1,6,1062,"Include",126
"WKH2020_e1","WKH2020_e1_6",1,0,2,1431,"Include",127
"WKH2020_e1","WKH2020_e1_6",1,0,2,1661,"Include",128
"WKH2020_e1","WKH2020_e1_6",1,0,2,1593,"Include",129
"WKH2020_e1","WKH2020_e1_6",1,0,1,1463,"Include",130
"WKH2020_e1","WKH2020_e1_6",1,1,6,1167,"Include",131
"WKH2020_e1","WKH2020_e1_6",1,1,6,890,"Include",132
"WKH2020_e1","WKH2020_e1_6",1,0,1,1704,"Include",133
"WKH2020_e1","WKH2020_e1_6",1,1,4,3314,"Include",134
"WKH2020_e1","WKH2020_e1_6",1,1,6,1333,"Include",135
"WKH2020_e1","WKH2020_e1_6",1,0,1,1131,"Include",136
"WKH2020_e1","WKH2020_e1_6",1,1,6,1142,"Include",137
"WKH2020_e1","WKH2020_e1_6",1,0,3,2602,"Include",138
"WKH2020_e1","WKH2020_e1_6",1,1,6,1101,"Include",139
"WKH2020_e1","WKH2020_e1_6",1,0,3,1676,"Include",140
"WKH2020_e1","WKH2020_e1_6",1,0,1,1508,"Include",141
"WKH2020_e1","WKH2020_e1_6",1,0,1,1929,"Include",142
"WKH2020_e1","WKH2020_e1_6",1,1,6,871,"Include",143
"WKH2020_e1","WKH2020_e1_6",1,1,6,1938,"Include",144
"WKH2020_e1","WKH2020_e1_6",1,1,6,915,"Include",145
"WKH2020_e1","WKH2020_e1_6",1,0,3,2325,"Include",146
"WKH2020_e1","WKH2020_e1_6",1,0,2,3789,"Include",147
"WKH2020_e1","WKH2020_e1_6",1,1,2,1337,"Include",148
"WKH2020_e1","WKH2020_e1_6",1,1,4,2334,"Include",149
"WKH2020_e1","WKH2020_e1_6",1,1,6,1267,"Include",150
"WKH2020_e1","WKH2020_e1_6",1,0,3,1358,"Include",151
"WKH2020_e1","WKH2020_e1_6",1,0,3,3303,"Include",152
"WKH2020_e1","WKH2020_e1_6",1,1,5,1297,"Include",153
"WKH2020_e1","WKH2020_e1_6",1,1,6,1026,"Include",154
"WKH2020_e1","WKH2020_e1_6",1,0,6,1179,"Include",155
"WKH2020_e1","WKH2020_e1_6",1,0,1,2373,"Include",156
"WKH2020_e1","WKH2020_e1_6",1,1,6,1118,"Include",157
"WKH2020_e1","WKH2020_e1_6",1,0,1,1019,"Include",158
"WKH2020_e1","WKH2020_e1_6",1,1,6,1011,"Include",159
"WKH2020_e1","WKH2020_e1_6",1,0,1,1306,"Include",160
"WKH2020_e1","WKH2020_e1_6",1,0,1,2686,"Include",161
"WKH2020_e1","WKH2020_e1_6",1,1,6,1059,"Include",162
"WKH2020_e1","WKH2020_e1_6",1,0,1,1604,"Include",163
"WKH2020_e1","WKH2020_e1_6",1,1,3,2048,"Include",164
"WKH2020_e1","WKH2020_e1_6",1,0,1,1566,"Include",165
"WKH2020_e1","WKH2020_e1_6",1,0,1,1409,"Include",166
"WKH2020_e1","WKH2020_e1_6",1,1,6,802,"Include",167
"WKH2020_e1","WKH2020_e1_6",1,1,6,826,"Include",168
"WKH2020_e1","WKH2020_e1_6",1,0,1,1465,"Include",169
"WKH2020_e1","WKH2020_e1_6",1,0,1,1129,"Include",170
"WKH2020_e1","WKH2020_e1_6",1,1,1,1713,"Include",171
"WKH2020_e1","WKH2020_e1_6",1,1,6,1312,"Include",172
"WKH2020_e1","WKH2020_e1_6",1,1,6,928,"Include",173
"WKH2020_e1","WKH2020_e1_6",1,0,2,1587,"Include",174
"WKH2020_e1","WKH2020_e1_6",1,1,6,776,"Include",175
"WKH2020_e1","WKH2020_e1_6",1,0,1,1488,"Include",176
"WKH2020_e1","WKH2020_e1_6",1,1,6,950,"Include",177
"WKH2020_e1","WKH2020_e1_6",1,0,2,1838,"Include",178
"WKH2020_e1","WKH2020_e1_6",1,0,1,1335,"Include",179
"WKH2020_e1","WKH2020_e1_6",1,1,6,828,"Include",180
"WKH2020_e1","WKH2020_e1_7",1,1,3,2682,"Include",1
"WKH2020_e1","WKH2020_e1_7",1,1,3,1958,"Include",2
"WKH2020_e1","WKH2020_e1_7",1,0,3,2434,"Include",3
"WKH2020_e1","WKH2020_e1_7",1,0,4,1972,"Include",4
"WKH2020_e1","WKH2020_e1_7",1,1,5,1266,"Include",5
"WKH2020_e1","WKH2020_e1_7",1,1,6,1053,"Include",6
"WKH2020_e1","WKH2020_e1_7",1,0,3,2086,"Include",7
"WKH2020_e1","WKH2020_e1_7",1,0,3,1313,"Include",8
"WKH2020_e1","WKH2020_e1_7",1,0,2,1701,"Include",9
"WKH2020_e1","WKH2020_e1_7",1,0,2,1522,"Include",10
"WKH2020_e1","WKH2020_e1_7",1,1,3,2032,"Include",11
"WKH2020_e1","WKH2020_e1_7",1,1,6,1100,"Include",12
"WKH2020_e1","WKH2020_e1_7",1,0,2,2568,"Include",13
"WKH2020_e1","WKH2020_e1_7",1,1,6,1090,"Include",14
"WKH2020_e1","WKH2020_e1_7",1,1,4,1841,"Include",15
"WKH2020_e1","WKH2020_e1_7",1,0,3,1409,"Include",16
"WKH2020_e1","WKH2020_e1_7",1,1,5,1710,"Include",17
"WKH2020_e1","WKH2020_e1_7",1,0,2,1166,"Include",18
"WKH2020_e1","WKH2020_e1_7",1,1,6,1274,"Include",19
"WKH2020_e1","WKH2020_e1_7",1,0,3,1947,"Include",20
"WKH2020_e1","WKH2020_e1_7",1,0,2,1416,"Include",21
"WKH2020_e1","WKH2020_e1_7",1,0,3,1671,"Include",22
"WKH2020_e1","WKH2020_e1_7",1,1,2,2077,"Include",23
"WKH2020_e1","WKH2020_e1_7",1,1,3,1667,"Include",24
"WKH2020_e1","WKH2020_e1_7",1,1,6,1420,"Include",25
"WKH2020_e1","WKH2020_e1_7",1,0,3,1667,"Include",26
"WKH2020_e1","WKH2020_e1_7",1,0,2,1599,"Include",27
"WKH2020_e1","WKH2020_e1_7",1,1,5,1420,"Include",28
"WKH2020_e1","WKH2020_e1_7",1,1,3,1837,"Include",29
"WKH2020_e1","WKH2020_e1_7",1,1,5,1492,"Include",30
"WKH2020_e1","WKH2020_e1_7",1,0,3,2038,"Include",31
"WKH2020_e1","WKH2020_e1_7",1,0,2,1932,"Include",32
"WKH2020_e1","WKH2020_e1_7",1,1,2,2467,"Include",33
"WKH2020_e1","WKH2020_e1_7",1,1,3,2380,"Include",34
"WKH2020_e1","WKH2020_e1_7",1,0,3,1476,"Include",35
"WKH2020_e1","WKH2020_e1_7",1,0,3,2303,"Include",36
"WKH2020_e1","WKH2020_e1_7",1,1,3,2657,"Include",37
"WKH2020_e1","WKH2020_e1_7",1,0,3,1361,"Include",38
"WKH2020_e1","WKH2020_e1_7",1,1,5,1499,"Include",39
"WKH2020_e1","WKH2020_e1_7",1,0,5,1273,"Include",40
"WKH2020_e1","WKH2020_e1_7",1,0,2,1796,"Include",41
"WKH2020_e1","WKH2020_e1_7",1,1,3,1874,"Include",42
"WKH2020_e1","WKH2020_e1_7",1,0,3,1559,"Include",43
"WKH2020_e1","WKH2020_e1_7",1,1,5,2354,"Include",44
"WKH2020_e1","WKH2020_e1_7",1,0,3,2209,"Include",45
"WKH2020_e1","WKH2020_e1_7",1,0,3,1556,"Include",46
"WKH2020_e1","WKH2020_e1_7",1,1,3,2496,"Include",47
"WKH2020_e1","WKH2020_e1_7",1,1,5,1443,"Include",48
"WKH2020_e1","WKH2020_e1_7",1,0,5,3254,"Include",49
"WKH2020_e1","WKH2020_e1_7",1,0,3,2118,"Include",50
"WKH2020_e1","WKH2020_e1_7",1,1,3,1319,"Include",51
"WKH2020_e1","WKH2020_e1_7",1,1,4,2291,"Include",52
"WKH2020_e1","WKH2020_e1_7",1,1,5,1263,"Include",53
"WKH2020_e1","WKH2020_e1_7",1,0,3,1989,"Include",54
"WKH2020_e1","WKH2020_e1_7",1,1,3,1698,"Include",55
"WKH2020_e1","WKH2020_e1_7",1,0,3,1451,"Include",56
"WKH2020_e1","WKH2020_e1_7",1,1,3,1849,"Include",57
"WKH2020_e1","WKH2020_e1_7",1,0,2,1869,"Include",58
"WKH2020_e1","WKH2020_e1_7",1,0,3,2374,"Include",59
"WKH2020_e1","WKH2020_e1_7",1,1,5,1656,"Include",60
"WKH2020_e1","WKH2020_e1_7",1,1,3,2367,"Include",61
"WKH2020_e1","WKH2020_e1_7",1,1,5,1725,"Include",62
"WKH2020_e1","WKH2020_e1_7",1,0,3,1388,"Include",63
"WKH2020_e1","WKH2020_e1_7",1,0,3,2052,"Include",64
"WKH2020_e1","WKH2020_e1_7",1,1,6,1430,"Include",65
"WKH2020_e1","WKH2020_e1_7",1,1,6,1372,"Include",66
"WKH2020_e1","WKH2020_e1_7",1,0,3,2130,"Include",67
"WKH2020_e1","WKH2020_e1_7",1,0,3,2255,"Include",68
"WKH2020_e1","WKH2020_e1_7",1,0,3,1951,"Include",69
"WKH2020_e1","WKH2020_e1_7",1,0,3,2375,"Include",70
"WKH2020_e1","WKH2020_e1_7",1,1,5,1857,"Include",71
"WKH2020_e1","WKH2020_e1_7",1,1,5,1358,"Include",72
"WKH2020_e1","WKH2020_e1_7",1,0,3,2269,"Include",73
"WKH2020_e1","WKH2020_e1_7",1,1,4,1876,"Include",74
"WKH2020_e1","WKH2020_e1_7",1,1,5,1294,"Include",75
"WKH2020_e1","WKH2020_e1_7",1,0,3,2289,"Include",76
"WKH2020_e1","WKH2020_e1_7",1,1,6,994,"Include",77
"WKH2020_e1","WKH2020_e1_7",1,0,2,1667,"Include",78
"WKH2020_e1","WKH2020_e1_7",1,1,3,2293,"Include",79
"WKH2020_e1","WKH2020_e1_7",1,0,4,2104,"Include",80
"WKH2020_e1","WKH2020_e1_7",1,0,4,1641,"Include",81
"WKH2020_e1","WKH2020_e1_7",1,0,3,1598,"Include",82
"WKH2020_e1","WKH2020_e1_7",1,1,5,1729,"Include",83
"WKH2020_e1","WKH2020_e1_7",1,1,4,2094,"Include",84
"WKH2020_e1","WKH2020_e1_7",1,1,6,1513,"Include",85
"WKH2020_e1","WKH2020_e1_7",1,0,3,3136,"Include",86
"WKH2020_e1","WKH2020_e1_7",1,0,3,1752,"Include",87
"WKH2020_e1","WKH2020_e1_7",1,1,3,3215,"Include",88
"WKH2020_e1","WKH2020_e1_7",1,1,3,2038,"Include",89
"WKH2020_e1","WKH2020_e1_7",1,1,3,2422,"Include",90
"WKH2020_e1","WKH2020_e1_7",1,0,3,2665,"Include",91
"WKH2020_e1","WKH2020_e1_7",1,0,3,3070,"Include",92
"WKH2020_e1","WKH2020_e1_7",1,1,5,1552,"Include",93
"WKH2020_e1","WKH2020_e1_7",1,1,5,3274,"Include",94
"WKH2020_e1","WKH2020_e1_7",1,0,3,1820,"Include",95
"WKH2020_e1","WKH2020_e1_7",1,0,3,2007,"Include",96
"WKH2020_e1","WKH2020_e1_7",1,1,2,1866,"Include",97
"WKH2020_e1","WKH2020_e1_7",1,0,3,1987,"Include",98
"WKH2020_e1","WKH2020_e1_7",1,1,6,1399,"Include",99
"WKH2020_e1","WKH2020_e1_7",1,0,2,1675,"Include",100
"WKH2020_e1","WKH2020_e1_7",1,0,3,1635,"Include",101
"WKH2020_e1","WKH2020_e1_7",1,1,5,1301,"Include",102
"WKH2020_e1","WKH2020_e1_7",1,0,2,1390,"Include",103
"WKH2020_e1","WKH2020_e1_7",1,1,6,2329,"Include",104
"WKH2020_e1","WKH2020_e1_7",1,0,3,1271,"Include",105
"WKH2020_e1","WKH2020_e1_7",1,0,2,1761,"Include",106
"WKH2020_e1","WKH2020_e1_7",1,1,4,1868,"Include",107
"WKH2020_e1","WKH2020_e1_7",1,1,5,1584,"Include",108
"WKH2020_e1","WKH2020_e1_7",1,0,2,2194,"Include",109
"WKH2020_e1","WKH2020_e1_7",1,0,3,1541,"Include",110
"WKH2020_e1","WKH2020_e1_7",1,1,6,1079,"Include",111
"WKH2020_e1","WKH2020_e1_7",1,1,3,1735,"Include",112
"WKH2020_e1","WKH2020_e1_7",1,1,4,2564,"Include",113
"WKH2020_e1","WKH2020_e1_7",1,0,2,1660,"Include",114
"WKH2020_e1","WKH2020_e1_7",1,1,6,1154,"Include",115
"WKH2020_e1","WKH2020_e1_7",1,0,3,1338,"Include",116
"WKH2020_e1","WKH2020_e1_7",1,1,4,2192,"Include",117
"WKH2020_e1","WKH2020_e1_7",1,0,4,2168,"Include",118
"WKH2020_e1","WKH2020_e1_7",1,0,2,1708,"Include",119
"WKH2020_e1","WKH2020_e1_7",1,1,2,1604,"Include",120
"WKH2020_e1","WKH2020_e1_7",1,1,5,2901,"Include",121
"WKH2020_e1","WKH2020_e1_7",1,1,5,2306,"Include",122
"WKH2020_e1","WKH2020_e1_7",1,0,2,1972,"Include",123
"WKH2020_e1","WKH2020_e1_7",1,0,2,2734,"Include",124
"WKH2020_e1","WKH2020_e1_7",1,1,6,2115,"Include",125
"WKH2020_e1","WKH2020_e1_7",1,1,6,1941,"Include",126
"WKH2020_e1","WKH2020_e1_7",1,0,2,2173,"Include",127
"WKH2020_e1","WKH2020_e1_7",1,0,3,2688,"Include",128
"WKH2020_e1","WKH2020_e1_7",1,0,3,2628,"Include",129
"WKH2020_e1","WKH2020_e1_7",1,0,2,2209,"Include",130
"WKH2020_e1","WKH2020_e1_7",1,1,6,1715,"Include",131
"WKH2020_e1","WKH2020_e1_7",1,1,6,1473,"Include",132
"WKH2020_e1","WKH2020_e1_7",1,0,2,2484,"Include",133
"WKH2020_e1","WKH2020_e1_7",1,1,3,2518,"Include",134
"WKH2020_e1","WKH2020_e1_7",1,1,1,1291,"Include",135
"WKH2020_e1","WKH2020_e1_7",1,0,3,2185,"Include",136
"WKH2020_e1","WKH2020_e1_7",1,1,6,1373,"Include",137
"WKH2020_e1","WKH2020_e1_7",1,0,3,1945,"Include",138
"WKH2020_e1","WKH2020_e1_7",1,1,5,1764,"Include",139
"WKH2020_e1","WKH2020_e1_7",1,0,2,2136,"Include",140
"WKH2020_e1","WKH2020_e1_7",1,0,3,2930,"Include",141
"WKH2020_e1","WKH2020_e1_7",1,0,3,3537,"Include",142
"WKH2020_e1","WKH2020_e1_7",1,1,2,1945,"Include",143
"WKH2020_e1","WKH2020_e1_7",1,1,4,2290,"Include",144
"WKH2020_e1","WKH2020_e1_7",1,1,6,1539,"Include",145
"WKH2020_e1","WKH2020_e1_7",1,0,2,1980,"Include",146
"WKH2020_e1","WKH2020_e1_7",1,0,3,2628,"Include",147
"WKH2020_e1","WKH2020_e1_7",1,1,3,2180,"Include",148
"WKH2020_e1","WKH2020_e1_7",1,1,5,2869,"Include",149
"WKH2020_e1","WKH2020_e1_7",1,1,5,1429,"Include",150
"WKH2020_e1","WKH2020_e1_7",1,0,4,1761,"Include",151
"WKH2020_e1","WKH2020_e1_7",1,0,3,1716,"Include",152
"WKH2020_e1","WKH2020_e1_7",1,1,5,1477,"Include",153
"WKH2020_e1","WKH2020_e1_7",1,1,6,1506,"Include",154
"WKH2020_e1","WKH2020_e1_7",1,0,3,2256,"Include",155
"WKH2020_e1","WKH2020_e1_7",1,0,3,3158,"Include",156
"WKH2020_e1","WKH2020_e1_7",1,1,3,2639,"Include",157
"WKH2020_e1","WKH2020_e1_7",1,0,2,1819,"Include",158
"WKH2020_e1","WKH2020_e1_7",1,1,2,1822,"Include",159
"WKH2020_e1","WKH2020_e1_7",1,0,2,1729,"Include",160
"WKH2020_e1","WKH2020_e1_7",1,0,3,1915,"Include",161
"WKH2020_e1","WKH2020_e1_7",1,1,3,2072,"Include",162
"WKH2020_e1","WKH2020_e1_7",1,0,3,2170,"Include",163
"WKH2020_e1","WKH2020_e1_7",1,1,2,2000,"Include",164
"WKH2020_e1","WKH2020_e1_7",1,0,3,2241,"Include",165
"WKH2020_e1","WKH2020_e1_7",1,0,5,1982,"Include",166
"WKH2020_e1","WKH2020_e1_7",1,1,5,1636,"Include",167
"WKH2020_e1","WKH2020_e1_7",1,1,3,1483,"Include",168
"WKH2020_e1","WKH2020_e1_7",1,0,3,1859,"Include",169
"WKH2020_e1","WKH2020_e1_7",1,0,4,3050,"Include",170
"WKH2020_e1","WKH2020_e1_7",1,1,2,1436,"Include",171
"WKH2020_e1","WKH2020_e1_7",1,1,3,1581,"Include",172
"WKH2020_e1","WKH2020_e1_7",1,1,5,1307,"Include",173
"WKH2020_e1","WKH2020_e1_7",1,0,3,1578,"Include",174
"WKH2020_e1","WKH2020_e1_7",1,1,3,2924,"Include",175
"WKH2020_e1","WKH2020_e1_7",1,0,3,1866,"Include",176
"WKH2020_e1","WKH2020_e1_7",1,1,3,3091,"Include",177
"WKH2020_e1","WKH2020_e1_7",1,0,2,2738,"Include",178
"WKH2020_e1","WKH2020_e1_7",1,0,3,3322,"Include",179
"WKH2020_e1","WKH2020_e1_7",1,1,3,2456,"Include",180
"WKH2020_e1","WKH2020_e1_8",1,1,2,2323,"Include",1
"WKH2020_e1","WKH2020_e1_8",1,1,6,1456,"Include",2
"WKH2020_e1","WKH2020_e1_8",1,0,1,2512,"Include",3
"WKH2020_e1","WKH2020_e1_8",1,0,1,1505,"Include",4
"WKH2020_e1","WKH2020_e1_8",1,1,6,1518,"Include",5
"WKH2020_e1","WKH2020_e1_8",1,1,6,1119,"Include",6
"WKH2020_e1","WKH2020_e1_8",1,0,2,2831,"Include",7
"WKH2020_e1","WKH2020_e1_8",1,0,2,1052,"Include",8
"WKH2020_e1","WKH2020_e1_8",1,0,1,1406,"Include",9
"WKH2020_e1","WKH2020_e1_8",1,0,1,1372,"Include",10
"WKH2020_e1","WKH2020_e1_8",1,1,2,1864,"Include",11
"WKH2020_e1","WKH2020_e1_8",1,1,5,1602,"Include",12
"WKH2020_e1","WKH2020_e1_8",1,0,2,1570,"Include",13
"WKH2020_e1","WKH2020_e1_8",1,1,5,2854,"Include",14
"WKH2020_e1","WKH2020_e1_8",1,1,2,975,"Include",15
"WKH2020_e1","WKH2020_e1_8",1,0,2,1692,"Include",16
"WKH2020_e1","WKH2020_e1_8",1,1,2,2166,"Include",17
"WKH2020_e1","WKH2020_e1_8",1,0,2,1393,"Include",18
"WKH2020_e1","WKH2020_e1_8",1,1,6,1576,"Include",19
"WKH2020_e1","WKH2020_e1_8",1,0,2,1682,"Include",20
"WKH2020_e1","WKH2020_e1_8",1,0,3,3007,"Include",21
"WKH2020_e1","WKH2020_e1_8",1,0,2,1227,"Include",22
"WKH2020_e1","WKH2020_e1_8",1,1,2,1417,"Include",23
"WKH2020_e1","WKH2020_e1_8",1,1,2,1561,"Include",24
"WKH2020_e1","WKH2020_e1_8",1,1,6,1276,"Include",25
"WKH2020_e1","WKH2020_e1_8",1,0,1,1877,"Include",26
"WKH2020_e1","WKH2020_e1_8",1,0,2,1568,"Include",27
"WKH2020_e1","WKH2020_e1_8",1,1,4,2344,"Include",28
"WKH2020_e1","WKH2020_e1_8",1,1,2,1579,"Include",29
"WKH2020_e1","WKH2020_e1_8",1,1,6,2105,"Include",30
"WKH2020_e1","WKH2020_e1_8",1,0,1,1777,"Include",31
"WKH2020_e1","WKH2020_e1_8",1,0,2,1391,"Include",32
"WKH2020_e1","WKH2020_e1_8",1,1,2,1749,"Include",33
"WKH2020_e1","WKH2020_e1_8",1,1,5,1752,"Include",34
"WKH2020_e1","WKH2020_e1_8",1,0,2,862,"Include",35
"WKH2020_e1","WKH2020_e1_8",1,0,1,1576,"Include",36
"WKH2020_e1","WKH2020_e1_8",1,1,1,1812,"Include",37
"WKH2020_e1","WKH2020_e1_8",1,0,1,1389,"Include",38
"WKH2020_e1","WKH2020_e1_8",1,1,5,2050,"Include",39
"WKH2020_e1","WKH2020_e1_8",1,0,3,1566,"Include",40
"WKH2020_e1","WKH2020_e1_8",1,0,1,1531,"Include",41
"WKH2020_e1","WKH2020_e1_8",1,1,2,2624,"Include",42
"WKH2020_e1","WKH2020_e1_8",1,0,1,1791,"Include",43
"WKH2020_e1","WKH2020_e1_8",1,1,1,1927,"Include",44
"WKH2020_e1","WKH2020_e1_8",1,0,1,1124,"Include",45
"WKH2020_e1","WKH2020_e1_8",1,0,2,2821,"Include",46
"WKH2020_e1","WKH2020_e1_8",1,1,5,1481,"Include",47
"WKH2020_e1","WKH2020_e1_8",1,1,5,1807,"Include",48
"WKH2020_e1","WKH2020_e1_8",1,0,5,4119,"Include",49
"WKH2020_e1","WKH2020_e1_8",1,0,2,1333,"Include",50
"WKH2020_e1","WKH2020_e1_8",1,1,2,1329,"Include",51
"WKH2020_e1","WKH2020_e1_8",1,1,6,1565,"Include",52
"WKH2020_e1","WKH2020_e1_8",1,1,6,2847,"Include",53
"WKH2020_e1","WKH2020_e1_8",1,0,2,3496,"Include",54
"WKH2020_e1","WKH2020_e1_8",1,1,2,1338,"Include",55
"WKH2020_e1","WKH2020_e1_8",1,0,2,1091,"Include",56
"WKH2020_e1","WKH2020_e1_8",1,1,6,2828,"Include",57
"WKH2020_e1","WKH2020_e1_8",1,0,2,1341,"Include",58
"WKH2020_e1","WKH2020_e1_8",1,0,2,833,"Include",59
"WKH2020_e1","WKH2020_e1_8",1,1,4,2871,"Include",60
"WKH2020_e1","WKH2020_e1_8",1,1,5,2240,"Include",61
"WKH2020_e1","WKH2020_e1_8",1,1,4,2403,"Include",62
"WKH2020_e1","WKH2020_e1_8",1,0,2,1771,"Include",63
"WKH2020_e1","WKH2020_e1_8",1,0,2,1494,"Include",64
"WKH2020_e1","WKH2020_e1_8",1,1,4,1405,"Include",65
"WKH2020_e1","WKH2020_e1_8",1,1,2,1721,"Include",66
"WKH2020_e1","WKH2020_e1_8",1,0,2,1884,"Include",67
"WKH2020_e1","WKH2020_e1_8",1,0,2,1103,"Include",68
"WKH2020_e1","WKH2020_e1_8",1,0,2,1308,"Include",69
"WKH2020_e1","WKH2020_e1_8",1,0,2,2137,"Include",70
"WKH2020_e1","WKH2020_e1_8",1,1,2,1778,"Include",71
"WKH2020_e1","WKH2020_e1_8",1,1,6,1379,"Include",72
"WKH2020_e1","WKH2020_e1_8",1,0,2,2644,"Include",73
"WKH2020_e1","WKH2020_e1_8",1,1,6,1426,"Include",74
"WKH2020_e1","WKH2020_e1_8",1,1,3,1794,"Include",75
"WKH2020_e1","WKH2020_e1_8",1,0,2,1238,"Include",76
"WKH2020_e1","WKH2020_e1_8",1,1,5,1802,"Include",77
"WKH2020_e1","WKH2020_e1_8",1,0,2,873,"Include",78
"WKH2020_e1","WKH2020_e1_8",1,1,5,1713,"Include",79
"WKH2020_e1","WKH2020_e1_8",1,0,2,1472,"Include",80
"WKH2020_e1","WKH2020_e1_8",1,0,2,959,"Include",81
"WKH2020_e1","WKH2020_e1_8",1,0,2,1818,"Include",82
"WKH2020_e1","WKH2020_e1_8",1,1,2,1200,"Include",83
"WKH2020_e1","WKH2020_e1_8",1,1,2,1922,"Include",84
"WKH2020_e1","WKH2020_e1_8",1,1,6,1884,"Include",85
"WKH2020_e1","WKH2020_e1_8",1,0,2,1762,"Include",86
"WKH2020_e1","WKH2020_e1_8",1,0,2,1257,"Include",87
"WKH2020_e1","WKH2020_e1_8",1,1,2,1980,"Include",88
"WKH2020_e1","WKH2020_e1_8",1,1,2,2434,"Include",89
"WKH2020_e1","WKH2020_e1_8",1,1,3,2177,"Include",90
"WKH2020_e1","WKH2020_e1_8",1,0,2,1872,"Include",91
"WKH2020_e1","WKH2020_e1_8",1,0,2,1316,"Include",92
"WKH2020_e1","WKH2020_e1_8",1,1,5,1839,"Include",93
"WKH2020_e1","WKH2020_e1_8",1,1,6,1402,"Include",94
"WKH2020_e1","WKH2020_e1_8",1,0,2,1838,"Include",95
"WKH2020_e1","WKH2020_e1_8",1,0,2,1460,"Include",96
"WKH2020_e1","WKH2020_e1_8",1,1,1,2013,"Include",97
"WKH2020_e1","WKH2020_e1_8",1,0,2,1841,"Include",98
"WKH2020_e1","WKH2020_e1_8",1,1,6,1527,"Include",99
"WKH2020_e1","WKH2020_e1_8",1,0,1,1178,"Include",100
"WKH2020_e1","WKH2020_e1_8",1,0,2,2076,"Include",101
"WKH2020_e1","WKH2020_e1_8",1,1,2,1134,"Include",102
"WKH2020_e1","WKH2020_e1_8",1,0,2,1083,"Include",103
"WKH2020_e1","WKH2020_e1_8",1,1,5,1575,"Include",104
"WKH2020_e1","WKH2020_e1_8",1,0,1,1203,"Include",105
"WKH2020_e1","WKH2020_e1_8",1,0,1,1473,"Include",106
"WKH2020_e1","WKH2020_e1_8",1,1,4,2556,"Include",107
"WKH2020_e1","WKH2020_e1_8",1,1,2,1390,"Include",108
"WKH2020_e1","WKH2020_e1_8",1,0,1,1895,"Include",109
"WKH2020_e1","WKH2020_e1_8",1,0,1,1740,"Include",110
"WKH2020_e1","WKH2020_e1_8",1,1,6,1094,"Include",111
"WKH2020_e1","WKH2020_e1_8",1,1,2,2005,"Include",112
"WKH2020_e1","WKH2020_e1_8",1,1,2,1218,"Include",113
"WKH2020_e1","WKH2020_e1_8",1,0,2,1095,"Include",114
"WKH2020_e1","WKH2020_e1_8",1,1,6,1651,"Include",115
"WKH2020_e1","WKH2020_e1_8",1,0,1,1287,"Include",116
"WKH2020_e1","WKH2020_e1_8",1,1,3,2147,"Include",117
"WKH2020_e1","WKH2020_e1_8",1,0,2,1402,"Include",118
"WKH2020_e1","WKH2020_e1_8",1,0,1,1884,"Include",119
"WKH2020_e1","WKH2020_e1_8",1,1,2,2005,"Include",120
"WKH2020_e1","WKH2020_e1_8",1,1,2,3501,"Include",121
"WKH2020_e1","WKH2020_e1_8",1,1,5,3828,"Include",122
"WKH2020_e1","WKH2020_e1_8",1,0,2,1889,"Include",123
"WKH2020_e1","WKH2020_e1_8",1,0,1,3222,"Include",124
"WKH2020_e1","WKH2020_e1_8",1,1,5,2229,"Include",125
"WKH2020_e1","WKH2020_e1_8",1,1,2,3015,"Include",126
"WKH2020_e1","WKH2020_e1_8",1,0,1,2437,"Include",127
"WKH2020_e1","WKH2020_e1_8",1,0,2,2674,"Include",128
"WKH2020_e1","WKH2020_e1_8",1,0,2,3820,"Include",129
"WKH2020_e1","WKH2020_e1_8",1,0,1,2996,"Include",130
"WKH2020_e1","WKH2020_e1_8",1,1,2,4281,"Include",131
"WKH2020_e1","WKH2020_e1_8",1,1,1,1650,"Include",132
"WKH2020_e1","WKH2020_e1_8",1,0,2,2753,"Include",133
"WKH2020_e1","WKH2020_e1_8",1,1,6,1907,"Include",134
"WKH2020_e1","WKH2020_e1_8",1,1,2,2927,"Include",135
"WKH2020_e1","WKH2020_e1_8",1,0,1,2739,"Include",136
"WKH2020_e1","WKH2020_e1_8",1,1,6,1687,"Include",137
"WKH2020_e1","WKH2020_e1_8",1,0,2,2194,"Include",138
"WKH2020_e1","WKH2020_e1_8",1,1,4,5428,"Include",139
"WKH2020_e1","WKH2020_e1_8",1,0,2,2103,"Include",140
"WKH2020_e1","WKH2020_e1_8",1,0,2,3557,"Include",141
"WKH2020_e1","WKH2020_e1_8",1,0,2,1971,"Include",142
"WKH2020_e1","WKH2020_e1_8",1,1,4,3926,"Include",143
"WKH2020_e1","WKH2020_e1_8",1,1,2,2378,"Include",144
"WKH2020_e1","WKH2020_e1_8",1,1,4,5752,"Include",145
"WKH2020_e1","WKH2020_e1_8",1,0,2,2747,"Include",146
"WKH2020_e1","WKH2020_e1_8",1,0,2,1934,"Include",147
"WKH2020_e1","WKH2020_e1_8",1,1,2,1864,"Include",148
"WKH2020_e1","WKH2020_e1_8",1,1,2,2895,"Include",149
"WKH2020_e1","WKH2020_e1_8",1,1,1,3289,"Include",150
"WKH2020_e1","WKH2020_e1_8",1,0,2,1896,"Include",151
"WKH2020_e1","WKH2020_e1_8",1,0,1,2306,"Include",152
"WKH2020_e1","WKH2020_e1_8",1,1,3,3556,"Include",153
"WKH2020_e1","WKH2020_e1_8",1,1,2,2862,"Include",154
"WKH2020_e1","WKH2020_e1_8",1,0,2,1591,"Include",155
"WKH2020_e1","WKH2020_e1_8",1,0,1,2873,"Include",156
"WKH2020_e1","WKH2020_e1_8",1,1,2,3547,"Include",157
"WKH2020_e1","WKH2020_e1_8",1,0,2,1978,"Include",158
"WKH2020_e1","WKH2020_e1_8",1,1,2,4477,"Include",159
"WKH2020_e1","WKH2020_e1_8",1,0,2,1967,"Include",160
"WKH2020_e1","WKH2020_e1_8",1,0,3,4792,"Include",161
"WKH2020_e1","WKH2020_e1_8",1,1,2,2467,"Include",162
"WKH2020_e1","WKH2020_e1_8",1,0,2,4460,"Include",163
"WKH2020_e1","WKH2020_e1_8",1,1,2,2106,"Include",164
"WKH2020_e1","WKH2020_e1_8",1,0,2,1838,"Include",165
"WKH2020_e1","WKH2020_e1_8",1,0,5,2814,"Include",166
"WKH2020_e1","WKH2020_e1_8",1,1,5,2309,"Include",167
"WKH2020_e1","WKH2020_e1_8",1,1,3,3405,"Include",168
"WKH2020_e1","WKH2020_e1_8",1,0,1,2077,"Include",169
"WKH2020_e1","WKH2020_e1_8",1,0,2,1987,"Include",170
"WKH2020_e1","WKH2020_e1_8",1,1,6,1842,"Include",171
"WKH2020_e1","WKH2020_e1_8",1,1,2,5473,"Include",172
"WKH2020_e1","WKH2020_e1_8",1,1,2,2798,"Include",173
"WKH2020_e1","WKH2020_e1_8",1,0,2,1694,"Include",174
"WKH2020_e1","WKH2020_e1_8",1,1,5,1804,"Include",175
"WKH2020_e1","WKH2020_e1_8",1,0,1,2740,"Include",176
"WKH2020_e1","WKH2020_e1_8",1,1,4,4156,"Include",177
"WKH2020_e1","WKH2020_e1_8",1,0,2,3397,"Include",178
"WKH2020_e1","WKH2020_e1_8",1,0,2,980,"Include",179
"WKH2020_e1","WKH2020_e1_8",1,1,2,2334,"Include",180
"WKH2020_e1","WKH2020_e1_9",1,1,2,1694,"Include",1
"WKH2020_e1","WKH2020_e1_9",1,1,6,1571,"Include",2
"WKH2020_e1","WKH2020_e1_9",1,0,1,1354,"Include",3
"WKH2020_e1","WKH2020_e1_9",1,0,3,2889,"Include",4
"WKH2020_e1","WKH2020_e1_9",1,1,6,1243,"Include",5
"WKH2020_e1","WKH2020_e1_9",1,1,6,1115,"Include",6
"WKH2020_e1","WKH2020_e1_9",1,0,1,1953,"Include",7
"WKH2020_e1","WKH2020_e1_9",1,0,1,2283,"Include",8
"WKH2020_e1","WKH2020_e1_9",1,0,1,2172,"Include",9
"WKH2020_e1","WKH2020_e1_9",1,0,1,1163,"Include",10
"WKH2020_e1","WKH2020_e1_9",1,1,6,1606,"Include",11
"WKH2020_e1","WKH2020_e1_9",1,1,6,967,"Include",12
"WKH2020_e1","WKH2020_e1_9",1,0,3,1703,"Include",13
"WKH2020_e1","WKH2020_e1_9",1,1,6,1132,"Include",14
"WKH2020_e1","WKH2020_e1_9",1,1,3,1468,"Include",15
"WKH2020_e1","WKH2020_e1_9",1,0,2,2499,"Include",16
"WKH2020_e1","WKH2020_e1_9",1,1,6,1101,"Include",17
"WKH2020_e1","WKH2020_e1_9",1,0,1,1790,"Include",18
"WKH2020_e1","WKH2020_e1_9",1,1,1,1575,"Include",19
"WKH2020_e1","WKH2020_e1_9",1,0,1,1890,"Include",20
"WKH2020_e1","WKH2020_e1_9",1,0,2,2704,"Include",21
"WKH2020_e1","WKH2020_e1_9",1,0,2,3564,"Include",22
"WKH2020_e1","WKH2020_e1_9",1,1,1,1498,"Include",23
"WKH2020_e1","WKH2020_e1_9",1,1,1,1539,"Include",24
"WKH2020_e1","WKH2020_e1_9",1,1,6,1094,"Include",25
"WKH2020_e1","WKH2020_e1_9",1,0,1,1923,"Include",26
"WKH2020_e1","WKH2020_e1_9",1,0,1,2534,"Include",27
"WKH2020_e1","WKH2020_e1_9",1,1,1,1151,"Include",28
"WKH2020_e1","WKH2020_e1_9",1,1,1,1175,"Include",29
"WKH2020_e1","WKH2020_e1_9",1,1,6,1817,"Include",30
"WKH2020_e1","WKH2020_e1_9",1,0,2,2207,"Include",31
"WKH2020_e1","WKH2020_e1_9",1,0,1,1996,"Include",32
"WKH2020_e1","WKH2020_e1_9",1,1,6,1551,"Include",33
"WKH2020_e1","WKH2020_e1_9",1,1,2,3747,"Include",34
"WKH2020_e1","WKH2020_e1_9",1,0,1,4856,"Include",35
"WKH2020_e1","WKH2020_e1_9",1,0,1,1730,"Include",36
"WKH2020_e1","WKH2020_e1_9",1,1,6,1707,"Include",37
"WKH2020_e1","WKH2020_e1_9",1,0,2,2128,"Include",38
"WKH2020_e1","WKH2020_e1_9",1,1,6,1723,"Include",39
"WKH2020_e1","WKH2020_e1_9",1,0,6,961,"Include",40
"WKH2020_e1","WKH2020_e1_9",1,0,1,1401,"Include",41
"WKH2020_e1","WKH2020_e1_9",1,1,6,1865,"Include",42
"WKH2020_e1","WKH2020_e1_9",1,0,2,4423,"Include",43
"WKH2020_e1","WKH2020_e1_9",1,1,3,1814,"Include",44
"WKH2020_e1","WKH2020_e1_9",1,0,1,2106,"Include",45
"WKH2020_e1","WKH2020_e1_9",1,0,1,2062,"Include",46
"WKH2020_e1","WKH2020_e1_9",1,1,1,1243,"Include",47
"WKH2020_e1","WKH2020_e1_9",1,1,6,2157,"Include",48
"WKH2020_e1","WKH2020_e1_9",1,0,3,2213,"Include",49
"WKH2020_e1","WKH2020_e1_9",1,0,2,2895,"Include",50
"WKH2020_e1","WKH2020_e1_9",1,1,1,2120,"Include",51
"WKH2020_e1","WKH2020_e1_9",1,1,1,3331,"Include",52
"WKH2020_e1","WKH2020_e1_9",1,1,6,1240,"Include",53
"WKH2020_e1","WKH2020_e1_9",1,0,1,2036,"Include",54
"WKH2020_e1","WKH2020_e1_9",1,1,1,2386,"Include",55
"WKH2020_e1","WKH2020_e1_9",1,0,2,2774,"Include",56
"WKH2020_e1","WKH2020_e1_9",1,1,6,2196,"Include",57
"WKH2020_e1","WKH2020_e1_9",1,0,1,2042,"Include",58
"WKH2020_e1","WKH2020_e1_9",1,0,1,2404,"Include",59
"WKH2020_e1","WKH2020_e1_9",1,1,2,2323,"Include",60
"WKH2020_e1","WKH2020_e1_9",1,1,3,3662,"Include",61
"WKH2020_e1","WKH2020_e1_9",1,1,6,1790,"Include",62
"WKH2020_e1","WKH2020_e1_9",1,0,4,2189,"Include",63
"WKH2020_e1","WKH2020_e1_9",1,0,2,1602,"Include",64
"WKH2020_e1","WKH2020_e1_9",1,1,6,1435,"Include",65
"WKH2020_e1","WKH2020_e1_9",1,1,6,1178,"Include",66
"WKH2020_e1","WKH2020_e1_9",1,0,3,1629,"Include",67
"WKH2020_e1","WKH2020_e1_9",1,0,1,2125,"Include",68
"WKH2020_e1","WKH2020_e1_9",1,0,2,2702,"Include",69
"WKH2020_e1","WKH2020_e1_9",1,0,3,2818,"Include",70
"WKH2020_e1","WKH2020_e1_9",1,1,3,2939,"Include",71
"WKH2020_e1","WKH2020_e1_9",1,1,5,1482,"Include",72
"WKH2020_e1","WKH2020_e1_9",1,0,3,2629,"Include",73
"WKH2020_e1","WKH2020_e1_9",1,1,6,1296,"Include",74
"WKH2020_e1","WKH2020_e1_9",1,1,2,2627,"Include",75
"WKH2020_e1","WKH2020_e1_9",1,0,2,4033,"Include",76
"WKH2020_e1","WKH2020_e1_9",1,1,5,1357,"Include",77
"WKH2020_e1","WKH2020_e1_9",1,0,1,1812,"Include",78
"WKH2020_e1","WKH2020_e1_9",1,1,2,2472,"Include",79
"WKH2020_e1","WKH2020_e1_9",1,0,3,2778,"Include",80
"WKH2020_e1","WKH2020_e1_9",1,0,2,2893,"Include",81
"WKH2020_e1","WKH2020_e1_9",1,0,1,1524,"Include",82
"WKH2020_e1","WKH2020_e1_9",1,1,1,2330,"Include",83
"WKH2020_e1","WKH2020_e1_9",1,1,4,1721,"Include",84
"WKH2020_e1","WKH2020_e1_9",1,1,6,1251,"Include",85
"WKH2020_e1","WKH2020_e1_9",1,0,1,1959,"Include",86
"WKH2020_e1","WKH2020_e1_9",1,0,1,1566,"Include",87
"WKH2020_e1","WKH2020_e1_9",1,1,6,1522,"Include",88
"WKH2020_e1","WKH2020_e1_9",1,1,6,2651,"Include",89
"WKH2020_e1","WKH2020_e1_9",1,1,6,1341,"Include",90
"WKH2020_e1","WKH2020_e1_9",1,0,2,1648,"Include",91
"WKH2020_e1","WKH2020_e1_9",1,0,1,2074,"Include",92
"WKH2020_e1","WKH2020_e1_9",1,1,2,2392,"Include",93
"WKH2020_e1","WKH2020_e1_9",1,1,6,1562,"Include",94
"WKH2020_e1","WKH2020_e1_9",1,0,2,2333,"Include",95
"WKH2020_e1","WKH2020_e1_9",1,0,3,1761,"Include",96
"WKH2020_e1","WKH2020_e1_9",1,1,6,1208,"Include",97
"WKH2020_e1","WKH2020_e1_9",1,0,2,1880,"Include",98
"WKH2020_e1","WKH2020_e1_9",1,1,2,3690,"Include",99
"WKH2020_e1","WKH2020_e1_9",1,0,1,1463,"Include",100
"WKH2020_e1","WKH2020_e1_9",1,0,1,1526,"Include",101
"WKH2020_e1","WKH2020_e1_9",1,1,1,2889,"Include",102
"WKH2020_e1","WKH2020_e1_9",1,0,1,1417,"Include",103
"WKH2020_e1","WKH2020_e1_9",1,1,6,1160,"Include",104
"WKH2020_e1","WKH2020_e1_9",1,0,1,3241,"Include",105
"WKH2020_e1","WKH2020_e1_9",1,0,1,1986,"Include",106
"WKH2020_e1","WKH2020_e1_9",1,1,4,3017,"Include",107
"WKH2020_e1","WKH2020_e1_9",1,1,1,1492,"Include",108
"WKH2020_e1","WKH2020_e1_9",1,0,1,1625,"Include",109
"WKH2020_e1","WKH2020_e1_9",1,0,4,2058,"Include",110
"WKH2020_e1","WKH2020_e1_9",1,1,6,1026,"Include",111
"WKH2020_e1","WKH2020_e1_9",1,1,4,1994,"Include",112
"WKH2020_e1","WKH2020_e1_9",1,1,2,1631,"Include",113
"WKH2020_e1","WKH2020_e1_9",1,0,2,2371,"Include",114
"WKH2020_e1","WKH2020_e1_9",1,1,6,1545,"Include",115
"WKH2020_e1","WKH2020_e1_9",1,0,1,1830,"Include",116
"WKH2020_e1","WKH2020_e1_9",1,1,3,2640,"Include",117
"WKH2020_e1","WKH2020_e1_9",1,0,3,3077,"Include",118
"WKH2020_e1","WKH2020_e1_9",1,0,2,2675,"Include",119
"WKH2020_e1","WKH2020_e1_9",1,1,1,1704,"Include",120
"WKH2020_e1","WKH2020_e1_9",1,1,4,2428,"Include",121
"WKH2020_e1","WKH2020_e1_9",1,1,6,1780,"Include",122
"WKH2020_e1","WKH2020_e1_9",1,0,2,1859,"Include",123
"WKH2020_e1","WKH2020_e1_9",1,0,2,1610,"Include",124
"WKH2020_e1","WKH2020_e1_9",1,1,4,2510,"Include",125
"WKH2020_e1","WKH2020_e1_9",1,1,5,1671,"Include",126
"WKH2020_e1","WKH2020_e1_9",1,0,3,1324,"Include",127
"WKH2020_e1","WKH2020_e1_9",1,0,2,2774,"Include",128
"WKH2020_e1","WKH2020_e1_9",1,0,1,2526,"Include",129
"WKH2020_e1","WKH2020_e1_9",1,0,1,2390,"Include",130
"WKH2020_e1","WKH2020_e1_9",1,1,5,1663,"Include",131
"WKH2020_e1","WKH2020_e1_9",1,1,6,1425,"Include",132
"WKH2020_e1","WKH2020_e1_9",1,0,2,1382,"Include",133
"WKH2020_e1","WKH2020_e1_9",1,1,5,1277,"Include",134
"WKH2020_e1","WKH2020_e1_9",1,1,5,1438,"Include",135
"WKH2020_e1","WKH2020_e1_9",1,0,3,1380,"Include",136
"WKH2020_e1","WKH2020_e1_9",1,1,6,1082,"Include",137
"WKH2020_e1","WKH2020_e1_9",1,0,3,2804,"Include",138
"WKH2020_e1","WKH2020_e1_9",1,1,2,1887,"Include",139
"WKH2020_e1","WKH2020_e1_9",1,0,1,2841,"Include",140
"WKH2020_e1","WKH2020_e1_9",1,0,3,2990,"Include",141
"WKH2020_e1","WKH2020_e1_9",1,0,1,1682,"Include",142
"WKH2020_e1","WKH2020_e1_9",1,1,3,3142,"Include",143
"WKH2020_e1","WKH2020_e1_9",1,1,4,2570,"Include",144
"WKH2020_e1","WKH2020_e1_9",1,1,6,1505,"Include",145
"WKH2020_e1","WKH2020_e1_9",1,0,2,1830,"Include",146
"WKH2020_e1","WKH2020_e1_9",1,0,2,3423,"Include",147
"WKH2020_e1","WKH2020_e1_9",1,1,6,1355,"Include",148
"WKH2020_e1","WKH2020_e1_9",1,1,2,2493,"Include",149
"WKH2020_e1","WKH2020_e1_9",1,1,6,1238,"Include",150
"WKH2020_e1","WKH2020_e1_9",1,0,3,3047,"Include",151
"WKH2020_e1","WKH2020_e1_9",1,0,2,2506,"Include",152
"WKH2020_e1","WKH2020_e1_9",1,1,3,2805,"Include",153
"WKH2020_e1","WKH2020_e1_9",1,1,4,2480,"Include",154
"WKH2020_e1","WKH2020_e1_9",1,0,4,2010,"Include",155
"WKH2020_e1","WKH2020_e1_9",1,0,2,2217,"Include",156
"WKH2020_e1","WKH2020_e1_9",1,1,3,2456,"Include",157
"WKH2020_e1","WKH2020_e1_9",1,0,2,1966,"Include",158
"WKH2020_e1","WKH2020_e1_9",1,1,6,1505,"Include",159
"WKH2020_e1","WKH2020_e1_9",1,0,1,2704,"Include",160
"WKH2020_e1","WKH2020_e1_9",1,0,2,2153,"Include",161
"WKH2020_e1","WKH2020_e1_9",1,1,6,1277,"Include",162
"WKH2020_e1","WKH2020_e1_9",1,0,1,1890,"Include",163
"WKH2020_e1","WKH2020_e1_9",1,1,1,1846,"Include",164
"WKH2020_e1","WKH2020_e1_9",1,0,1,1301,"Include",165
"WKH2020_e1","WKH2020_e1_9",1,0,2,3104,"Include",166
"WKH2020_e1","WKH2020_e1_9",1,1,6,1288,"Include",167
"WKH2020_e1","WKH2020_e1_9",1,1,6,1278,"Include",168
"WKH2020_e1","WKH2020_e1_9",1,0,3,2757,"Include",169
"WKH2020_e1","WKH2020_e1_9",1,0,3,2276,"Include",170
"WKH2020_e1","WKH2020_e1_9",1,1,6,1269,"Include",171
"WKH2020_e1","WKH2020_e1_9",1,1,5,2662,"Include",172
"WKH2020_e1","WKH2020_e1_9",1,1,3,2397,"Include",173
"WKH2020_e1","WKH2020_e1_9",1,0,2,4859,"Include",174
"WKH2020_e1","WKH2020_e1_9",1,1,5,1362,"Include",175
"WKH2020_e1","WKH2020_e1_9",1,0,2,1594,"Include",176
"WKH2020_e1","WKH2020_e1_9",1,1,2,4946,"Include",177
"WKH2020_e1","WKH2020_e1_9",1,0,1,2679,"Include",178
"WKH2020_e1","WKH2020_e1_9",1,0,2,3169,"Include",179
"WKH2020_e1","WKH2020_e1_9",1,1,2,3516,"Include",180
"WKH2020_e1","WKH2020_e1_10",1,1,2,2993,"Include",1
"WKH2020_e1","WKH2020_e1_10",1,1,6,1234,"Include",2
"WKH2020_e1","WKH2020_e1_10",1,0,1,1244,"Include",3
"WKH2020_e1","WKH2020_e1_10",1,0,5,1032,"Include",4
"WKH2020_e1","WKH2020_e1_10",1,1,5,1192,"Include",5
"WKH2020_e1","WKH2020_e1_10",1,1,5,1370,"Include",6
"WKH2020_e1","WKH2020_e1_10",1,0,2,2532,"Include",7
"WKH2020_e1","WKH2020_e1_10",1,0,2,2022,"Include",8
"WKH2020_e1","WKH2020_e1_10",1,0,3,1428,"Include",9
"WKH2020_e1","WKH2020_e1_10",1,0,2,2630,"Include",10
"WKH2020_e1","WKH2020_e1_10",1,1,6,1344,"Include",11
"WKH2020_e1","WKH2020_e1_10",1,1,5,2685,"Include",12
"WKH2020_e1","WKH2020_e1_10",1,0,4,1956,"Include",13
"WKH2020_e1","WKH2020_e1_10",1,1,6,1150,"Include",14
"WKH2020_e1","WKH2020_e1_10",1,1,2,1514,"Include",15
"WKH2020_e1","WKH2020_e1_10",1,0,4,1950,"Include",16
"WKH2020_e1","WKH2020_e1_10",1,1,3,2734,"Include",17
"WKH2020_e1","WKH2020_e1_10",1,0,2,1176,"Include",18
"WKH2020_e1","WKH2020_e1_10",1,1,6,1446,"Include",19
"WKH2020_e1","WKH2020_e1_10",1,0,3,2072,"Include",20
"WKH2020_e1","WKH2020_e1_10",1,0,5,2345,"Include",21
"WKH2020_e1","WKH2020_e1_10",1,0,3,1237,"Include",22
"WKH2020_e1","WKH2020_e1_10",1,1,6,1285,"Include",23
"WKH2020_e1","WKH2020_e1_10",1,1,5,1091,"Include",24
"WKH2020_e1","WKH2020_e1_10",1,1,6,945,"Include",25
"WKH2020_e1","WKH2020_e1_10",1,0,3,1230,"Include",26
"WKH2020_e1","WKH2020_e1_10",1,0,3,1097,"Include",27
"WKH2020_e1","WKH2020_e1_10",1,1,4,1384,"Include",28
"WKH2020_e1","WKH2020_e1_10",1,1,4,1668,"Include",29
"WKH2020_e1","WKH2020_e1_10",1,1,3,1751,"Include",30
"WKH2020_e1","WKH2020_e1_10",1,0,3,1203,"Include",31
"WKH2020_e1","WKH2020_e1_10",1,0,3,1215,"Include",32
"WKH2020_e1","WKH2020_e1_10",1,1,4,1696,"Include",33
"WKH2020_e1","WKH2020_e1_10",1,1,3,937,"Include",34
"WKH2020_e1","WKH2020_e1_10",1,0,3,2718,"Include",35
"WKH2020_e1","WKH2020_e1_10",1,0,3,1044,"Include",36
"WKH2020_e1","WKH2020_e1_10",1,1,4,1445,"Include",37
"WKH2020_e1","WKH2020_e1_10",1,0,3,1253,"Include",38
"WKH2020_e1","WKH2020_e1_10",1,1,6,2236,"Include",39
"WKH2020_e1","WKH2020_e1_10",1,0,5,1092,"Include",40
"WKH2020_e1","WKH2020_e1_10",1,0,4,2020,"Include",41
"WKH2020_e1","WKH2020_e1_10",1,1,4,1089,"Include",42
"WKH2020_e1","WKH2020_e1_10",1,0,4,2867,"Include",43
"WKH2020_e1","WKH2020_e1_10",1,1,4,2551,"Include",44
"WKH2020_e1","WKH2020_e1_10",1,0,3,972,"Include",45
"WKH2020_e1","WKH2020_e1_10",1,0,3,2627,"Include",46
"WKH2020_e1","WKH2020_e1_10",1,1,3,1026,"Include",47
"WKH2020_e1","WKH2020_e1_10",1,1,6,994,"Include",48
"WKH2020_e1","WKH2020_e1_10",1,0,5,1460,"Include",49
"WKH2020_e1","WKH2020_e1_10",1,0,3,1214,"Include",50
"WKH2020_e1","WKH2020_e1_10",1,1,4,1590,"Include",51
"WKH2020_e1","WKH2020_e1_10",1,1,4,1292,"Include",52
"WKH2020_e1","WKH2020_e1_10",1,1,3,1267,"Include",53
"WKH2020_e1","WKH2020_e1_10",1,0,3,1316,"Include",54
"WKH2020_e1","WKH2020_e1_10",1,1,4,1321,"Include",55
"WKH2020_e1","WKH2020_e1_10",1,0,3,981,"Include",56
"WKH2020_e1","WKH2020_e1_10",1,1,3,979,"Include",57
"WKH2020_e1","WKH2020_e1_10",1,0,2,2790,"Include",58
"WKH2020_e1","WKH2020_e1_10",1,0,3,1785,"Include",59
"WKH2020_e1","WKH2020_e1_10",1,1,3,907,"Include",60
"WKH2020_e1","WKH2020_e1_10",1,1,4,1674,"Include",61
"WKH2020_e1","WKH2020_e1_10",1,1,3,1976,"Include",62
"WKH2020_e1","WKH2020_e1_10",1,0,2,1481,"Include",63
"WKH2020_e1","WKH2020_e1_10",1,0,3,1468,"Include",64
"WKH2020_e1","WKH2020_e1_10",1,1,3,1417,"Include",65
"WKH2020_e1","WKH2020_e1_10",1,1,6,1249,"Include",66
"WKH2020_e1","WKH2020_e1_10",1,0,5,1547,"Include",67
"WKH2020_e1","WKH2020_e1_10",1,0,3,1123,"Include",68
"WKH2020_e1","WKH2020_e1_10",1,0,3,1988,"Include",69
"WKH2020_e1","WKH2020_e1_10",1,0,2,1390,"Include",70
"WKH2020_e1","WKH2020_e1_10",1,1,3,2259,"Include",71
"WKH2020_e1","WKH2020_e1_10",1,1,6,1472,"Include",72
"WKH2020_e1","WKH2020_e1_10",1,0,3,2474,"Include",73
"WKH2020_e1","WKH2020_e1_10",1,1,6,1296,"Include",74
"WKH2020_e1","WKH2020_e1_10",1,1,6,1289,"Include",75
"WKH2020_e1","WKH2020_e1_10",1,0,4,2696,"Include",76
"WKH2020_e1","WKH2020_e1_10",1,1,6,1335,"Include",77
"WKH2020_e1","WKH2020_e1_10",1,0,3,1956,"Include",78
"WKH2020_e1","WKH2020_e1_10",1,1,3,1194,"Include",79
"WKH2020_e1","WKH2020_e1_10",1,0,3,1425,"Include",80
"WKH2020_e1","WKH2020_e1_10",1,0,3,2788,"Include",81
"WKH2020_e1","WKH2020_e1_10",1,0,3,2696,"Include",82
"WKH2020_e1","WKH2020_e1_10",1,1,5,1353,"Include",83
"WKH2020_e1","WKH2020_e1_10",1,1,4,1230,"Include",84
"WKH2020_e1","WKH2020_e1_10",1,1,6,982,"Include",85
"WKH2020_e1","WKH2020_e1_10",1,0,3,2317,"Include",86
"WKH2020_e1","WKH2020_e1_10",1,0,3,1203,"Include",87
"WKH2020_e1","WKH2020_e1_10",1,1,6,1542,"Include",88
"WKH2020_e1","WKH2020_e1_10",1,1,4,1909,"Include",89
"WKH2020_e1","WKH2020_e1_10",1,1,5,1392,"Include",90
"WKH2020_e1","WKH2020_e1_10",1,0,3,2033,"Include",91
"WKH2020_e1","WKH2020_e1_10",1,0,4,2622,"Include",92
"WKH2020_e1","WKH2020_e1_10",1,1,4,2382,"Include",93
"WKH2020_e1","WKH2020_e1_10",1,1,4,1311,"Include",94
"WKH2020_e1","WKH2020_e1_10",1,0,3,2162,"Include",95
"WKH2020_e1","WKH2020_e1_10",1,0,2,2213,"Include",96
"WKH2020_e1","WKH2020_e1_10",1,1,4,1618,"Include",97
"WKH2020_e1","WKH2020_e1_10",1,0,3,1470,"Include",98
"WKH2020_e1","WKH2020_e1_10",1,1,5,1356,"Include",99
"WKH2020_e1","WKH2020_e1_10",1,0,2,997,"Include",100
"WKH2020_e1","WKH2020_e1_10",1,0,2,1958,"Include",101
"WKH2020_e1","WKH2020_e1_10",1,1,3,1520,"Include",102
"WKH2020_e1","WKH2020_e1_10",1,0,3,1310,"Include",103
"WKH2020_e1","WKH2020_e1_10",1,1,5,2332,"Include",104
"WKH2020_e1","WKH2020_e1_10",1,0,3,1103,"Include",105
"WKH2020_e1","WKH2020_e1_10",1,0,3,1966,"Include",106
"WKH2020_e1","WKH2020_e1_10",1,1,5,1718,"Include",107
"WKH2020_e1","WKH2020_e1_10",1,1,3,963,"Include",108
"WKH2020_e1","WKH2020_e1_10",1,0,4,3576,"Include",109
"WKH2020_e1","WKH2020_e1_10",1,0,3,1853,"Include",110
"WKH2020_e1","WKH2020_e1_10",1,1,5,1170,"Include",111
"WKH2020_e1","WKH2020_e1_10",1,1,3,1516,"Include",112
"WKH2020_e1","WKH2020_e1_10",1,1,4,2429,"Include",113
"WKH2020_e1","WKH2020_e1_10",1,0,2,1608,"Include",114
"WKH2020_e1","WKH2020_e1_10",1,1,5,1185,"Include",115
"WKH2020_e1","WKH2020_e1_10",1,0,3,1851,"Include",116
"WKH2020_e1","WKH2020_e1_10",1,1,3,994,"Include",117
"WKH2020_e1","WKH2020_e1_10",1,0,5,2212,"Include",118
"WKH2020_e1","WKH2020_e1_10",1,0,4,1560,"Include",119
"WKH2020_e1","WKH2020_e1_10",1,1,3,1015,"Include",120
"WKH2020_e1","WKH2020_e1_10",1,1,4,2199,"Include",121
"WKH2020_e1","WKH2020_e1_10",1,1,4,2038,"Include",122
"WKH2020_e1","WKH2020_e1_10",1,0,2,1342,"Include",123
"WKH2020_e1","WKH2020_e1_10",1,0,3,1628,"Include",124
"WKH2020_e1","WKH2020_e1_10",1,1,3,2222,"Include",125
"WKH2020_e1","WKH2020_e1_10",1,1,3,1530,"Include",126
"WKH2020_e1","WKH2020_e1_10",1,0,3,1847,"Include",127
"WKH2020_e1","WKH2020_e1_10",1,0,3,2257,"Include",128
"WKH2020_e1","WKH2020_e1_10",1,0,3,1520,"Include",129
"WKH2020_e1","WKH2020_e1_10",1,0,3,1968,"Include",130
"WKH2020_e1","WKH2020_e1_10",1,1,6,1319,"Include",131
"WKH2020_e1","WKH2020_e1_10",1,1,6,952,"Include",132
"WKH2020_e1","WKH2020_e1_10",1,0,2,1228,"Include",133
"WKH2020_e1","WKH2020_e1_10",1,1,2,1527,"Include",134
"WKH2020_e1","WKH2020_e1_10",1,1,5,1257,"Include",135
"WKH2020_e1","WKH2020_e1_10",1,0,2,1259,"Include",136
"WKH2020_e1","WKH2020_e1_10",1,1,5,1040,"Include",137
"WKH2020_e1","WKH2020_e1_10",1,0,4,1438,"Include",138
"WKH2020_e1","WKH2020_e1_10",1,1,5,1342,"Include",139
"WKH2020_e1","WKH2020_e1_10",1,0,3,1379,"Include",140
"WKH2020_e1","WKH2020_e1_10",1,0,3,1313,"Include",141
"WKH2020_e1","WKH2020_e1_10",1,0,4,2021,"Include",142
"WKH2020_e1","WKH2020_e1_10",1,1,4,1942,"Include",143
"WKH2020_e1","WKH2020_e1_10",1,1,3,1217,"Include",144
"WKH2020_e1","WKH2020_e1_10",1,1,6,925,"Include",145
"WKH2020_e1","WKH2020_e1_10",1,0,3,1416,"Include",146
"WKH2020_e1","WKH2020_e1_10",1,0,3,1847,"Include",147
"WKH2020_e1","WKH2020_e1_10",1,1,3,1013,"Include",148
"WKH2020_e1","WKH2020_e1_10",1,1,3,954,"Include",149
"WKH2020_e1","WKH2020_e1_10",1,1,4,1563,"Include",150
"WKH2020_e1","WKH2020_e1_10",1,0,3,1229,"Include",151
"WKH2020_e1","WKH2020_e1_10",1,0,3,1468,"Include",152
"WKH2020_e1","WKH2020_e1_10",1,1,3,1587,"Include",153
"WKH2020_e1","WKH2020_e1_10",1,1,3,1473,"Include",154
"WKH2020_e1","WKH2020_e1_10",1,0,4,2145,"Include",155
"WKH2020_e1","WKH2020_e1_10",1,0,2,1253,"Include",156
"WKH2020_e1","WKH2020_e1_10",1,1,3,1478,"Include",157
"WKH2020_e1","WKH2020_e1_10",1,0,2,1222,"Include",158
"WKH2020_e1","WKH2020_e1_10",1,1,5,1209,"Include",159
"WKH2020_e1","WKH2020_e1_10",1,0,2,1101,"Include",160
"WKH2020_e1","WKH2020_e1_10",1,0,3,1705,"Include",161
"WKH2020_e1","WKH2020_e1_10",1,1,3,1068,"Include",162
"WKH2020_e1","WKH2020_e1_10",1,0,3,1242,"Include",163
"WKH2020_e1","WKH2020_e1_10",1,1,4,1238,"Include",164
"WKH2020_e1","WKH2020_e1_10",1,0,3,1314,"Include",165
"WKH2020_e1","WKH2020_e1_10",1,0,4,1394,"Include",166
"WKH2020_e1","WKH2020_e1_10",1,1,5,996,"Include",167
"WKH2020_e1","WKH2020_e1_10",1,1,3,1485,"Include",168
"WKH2020_e1","WKH2020_e1_10",1,0,3,2784,"Include",169
"WKH2020_e1","WKH2020_e1_10",1,0,4,1970,"Include",170
"WKH2020_e1","WKH2020_e1_10",1,1,3,1978,"Include",171
"WKH2020_e1","WKH2020_e1_10",1,1,3,1311,"Include",172
"WKH2020_e1","WKH2020_e1_10",1,1,3,1277,"Include",173
"WKH2020_e1","WKH2020_e1_10",1,0,3,1524,"Include",174
"WKH2020_e1","WKH2020_e1_10",1,1,3,1481,"Include",175
"WKH2020_e1","WKH2020_e1_10",1,0,3,2167,"Include",176
"WKH2020_e1","WKH2020_e1_10",1,1,3,1619,"Include",177
"WKH2020_e1","WKH2020_e1_10",1,0,3,1378,"Include",178
"WKH2020_e1","WKH2020_e1_10",1,0,3,1215,"Include",179
"WKH2020_e1","WKH2020_e1_10",1,1,4,1800,"Include",180
"WKH2020_e1","WKH2020_e1_11",1,1,3,1861,"Include",1
"WKH2020_e1","WKH2020_e1_11",1,1,6,1312,"Include",2
"WKH2020_e1","WKH2020_e1_11",1,0,2,1598,"Include",3
"WKH2020_e1","WKH2020_e1_11",1,0,2,1432,"Include",4
"WKH2020_e1","WKH2020_e1_11",1,1,6,1064,"Include",5
"WKH2020_e1","WKH2020_e1_11",1,1,2,1203,"Include",6
"WKH2020_e1","WKH2020_e1_11",1,0,1,1124,"Include",7
"WKH2020_e1","WKH2020_e1_11",1,0,3,1252,"Include",8
"WKH2020_e1","WKH2020_e1_11",1,0,1,1174,"Include",9
"WKH2020_e1","WKH2020_e1_11",1,0,2,1001,"Include",10
"WKH2020_e1","WKH2020_e1_11",1,1,3,1502,"Include",11
"WKH2020_e1","WKH2020_e1_11",1,1,6,1154,"Include",12
"WKH2020_e1","WKH2020_e1_11",1,0,5,1766,"Include",13
"WKH2020_e1","WKH2020_e1_11",1,1,5,1224,"Include",14
"WKH2020_e1","WKH2020_e1_11",1,1,1,1249,"Include",15
"WKH2020_e1","WKH2020_e1_11",1,0,4,1478,"Include",16
"WKH2020_e1","WKH2020_e1_11",1,1,2,1577,"Include",17
"WKH2020_e1","WKH2020_e1_11",1,0,4,1600,"Include",18
"WKH2020_e1","WKH2020_e1_11",1,1,6,1275,"Include",19
"WKH2020_e1","WKH2020_e1_11",1,0,1,1198,"Include",20
"WKH2020_e1","WKH2020_e1_11",1,0,4,1557,"Include",21
"WKH2020_e1","WKH2020_e1_11",1,0,2,1553,"Include",22
"WKH2020_e1","WKH2020_e1_11",1,1,6,1202,"Include",23
"WKH2020_e1","WKH2020_e1_11",1,1,5,1433,"Include",24
"WKH2020_e1","WKH2020_e1_11",1,1,6,1361,"Include",25
"WKH2020_e1","WKH2020_e1_11",1,0,1,1779,"Include",26
"WKH2020_e1","WKH2020_e1_11",1,0,2,1413,"Include",27
"WKH2020_e1","WKH2020_e1_11",1,1,4,1566,"Include",28
"WKH2020_e1","WKH2020_e1_11",1,1,6,1452,"Include",29
"WKH2020_e1","WKH2020_e1_11",1,1,4,1361,"Include",30
"WKH2020_e1","WKH2020_e1_11",1,0,1,1697,"Include",31
"WKH2020_e1","WKH2020_e1_11",1,0,1,1002,"Include",32
"WKH2020_e1","WKH2020_e1_11",1,1,6,1283,"Include",33
"WKH2020_e1","WKH2020_e1_11",1,1,5,1763,"Include",34
"WKH2020_e1","WKH2020_e1_11",1,0,1,1252,"Include",35
"WKH2020_e1","WKH2020_e1_11",1,0,1,1187,"Include",36
"WKH2020_e1","WKH2020_e1_11",1,1,4,1997,"Include",37
"WKH2020_e1","WKH2020_e1_11",1,0,4,1835,"Include",38
"WKH2020_e1","WKH2020_e1_11",1,1,1,1558,"Include",39
"WKH2020_e1","WKH2020_e1_11",1,0,5,1665,"Include",40
"WKH2020_e1","WKH2020_e1_11",1,0,1,1165,"Include",41
"WKH2020_e1","WKH2020_e1_11",1,1,6,1300,"Include",42
"WKH2020_e1","WKH2020_e1_11",1,0,1,1466,"Include",43
"WKH2020_e1","WKH2020_e1_11",1,1,5,1649,"Include",44
"WKH2020_e1","WKH2020_e1_11",1,0,1,1263,"Include",45
"WKH2020_e1","WKH2020_e1_11",1,0,2,1171,"Include",46
"WKH2020_e1","WKH2020_e1_11",1,1,5,1811,"Include",47
"WKH2020_e1","WKH2020_e1_11",1,1,6,1090,"Include",48
"WKH2020_e1","WKH2020_e1_11",1,0,2,1872,"Include",49
"WKH2020_e1","WKH2020_e1_11",1,0,1,1148,"Include",50
"WKH2020_e1","WKH2020_e1_11",1,1,6,1148,"Include",51
"WKH2020_e1","WKH2020_e1_11",1,1,5,1340,"Include",52
"WKH2020_e1","WKH2020_e1_11",1,1,5,1313,"Include",53
"WKH2020_e1","WKH2020_e1_11",1,0,1,1276,"Include",54
"WKH2020_e1","WKH2020_e1_11",1,1,6,1473,"Include",55
"WKH2020_e1","WKH2020_e1_11",1,0,1,1302,"Include",56
"WKH2020_e1","WKH2020_e1_11",1,1,5,1279,"Include",57
"WKH2020_e1","WKH2020_e1_11",1,0,1,1610,"Include",58
"WKH2020_e1","WKH2020_e1_11",1,0,1,962,"Include",59
"WKH2020_e1","WKH2020_e1_11",1,1,6,1810,"Include",60
"WKH2020_e1","WKH2020_e1_11",1,1,3,2217,"Include",61
"WKH2020_e1","WKH2020_e1_11",1,1,5,1559,"Include",62
"WKH2020_e1","WKH2020_e1_11",1,0,2,1141,"Include",63
"WKH2020_e1","WKH2020_e1_11",1,0,2,1326,"Include",64
"WKH2020_e1","WKH2020_e1_11",1,1,5,1188,"Include",65
"WKH2020_e1","WKH2020_e1_11",1,1,6,1150,"Include",66
"WKH2020_e1","WKH2020_e1_11",1,0,2,1651,"Include",67
"WKH2020_e1","WKH2020_e1_11",1,0,2,1327,"Include",68
"WKH2020_e1","WKH2020_e1_11",1,0,1,1365,"Include",69
"WKH2020_e1","WKH2020_e1_11",1,0,2,1335,"Include",70
"WKH2020_e1","WKH2020_e1_11",1,1,2,1630,"Include",71
"WKH2020_e1","WKH2020_e1_11",1,1,6,1204,"Include",72
"WKH2020_e1","WKH2020_e1_11",1,0,5,2024,"Include",73
"WKH2020_e1","WKH2020_e1_11",1,1,5,1422,"Include",74
"WKH2020_e1","WKH2020_e1_11",1,1,6,1056,"Include",75
"WKH2020_e1","WKH2020_e1_11",1,0,2,1240,"Include",76
"WKH2020_e1","WKH2020_e1_11",1,1,6,1159,"Include",77
"WKH2020_e1","WKH2020_e1_11",1,0,1,1365,"Include",78
"WKH2020_e1","WKH2020_e1_11",1,1,4,1637,"Include",79
"WKH2020_e1","WKH2020_e1_11",1,0,2,1309,"Include",80
"WKH2020_e1","WKH2020_e1_11",1,0,2,1170,"Include",81
"WKH2020_e1","WKH2020_e1_11",1,0,3,1503,"Include",82
"WKH2020_e1","WKH2020_e1_11",1,1,1,1074,"Include",83
"WKH2020_e1","WKH2020_e1_11",1,1,6,1201,"Include",84
"WKH2020_e1","WKH2020_e1_11",1,1,6,1313,"Include",85
"WKH2020_e1","WKH2020_e1_11",1,0,3,1999,"Include",86
"WKH2020_e1","WKH2020_e1_11",1,0,2,1536,"Include",87
"WKH2020_e1","WKH2020_e1_11",1,1,1,1130,"Include",88
"WKH2020_e1","WKH2020_e1_11",1,1,6,957,"Include",89
"WKH2020_e1","WKH2020_e1_11",1,1,6,1244,"Include",90
"WKH2020_e1","WKH2020_e1_11",1,0,2,1173,"Include",91
"WKH2020_e1","WKH2020_e1_11",1,0,5,1579,"Include",92
"WKH2020_e1","WKH2020_e1_11",1,1,3,1456,"Include",93
"WKH2020_e1","WKH2020_e1_11",1,1,2,1058,"Include",94
"WKH2020_e1","WKH2020_e1_11",1,0,2,1256,"Include",95
"WKH2020_e1","WKH2020_e1_11",1,0,1,1294,"Include",96
"WKH2020_e1","WKH2020_e1_11",1,1,1,1316,"Include",97
"WKH2020_e1","WKH2020_e1_11",1,0,4,1588,"Include",98
"WKH2020_e1","WKH2020_e1_11",1,1,5,1749,"Include",99
"WKH2020_e1","WKH2020_e1_11",1,0,1,1204,"Include",100
"WKH2020_e1","WKH2020_e1_11",1,0,2,1307,"Include",101
"WKH2020_e1","WKH2020_e1_11",1,1,2,1401,"Include",102
"WKH2020_e1","WKH2020_e1_11",1,0,1,1093,"Include",103
"WKH2020_e1","WKH2020_e1_11",1,1,2,1110,"Include",104
"WKH2020_e1","WKH2020_e1_11",1,0,1,1015,"Include",105
