"exp","id","item","trial","isold","isold_true","condition_true","rating","RT","excluding"
"ZOL2021_e1","ZOL2021_e1_1","RISK",1,1,1,"LowImageability",6,4659.7,"Include"
"ZOL2021_e1","ZOL2021_e1_1","PARE",2,1,1,"LowImageability",6,1381,"Include"
"ZOL2021_e1","ZOL2021_e1_1","MISTER",3,0,0,"LowImageability",1,1557.9,"Include"
"ZOL2021_e1","ZOL2021_e1_1","ACHE",4,1,1,"LowImageability",1,2219.9,"Include"
"ZOL2021_e1","ZOL2021_e1_1","WATT",5,1,1,"LowImageability",6,1466.5,"Include"
"ZOL2021_e1","ZOL2021_e1_1","VANITY",6,0,0,"LowImageability",1,1088,"Include"
"ZOL2021_e1","ZOL2021_e1_1","FLEECE",7,1,0,"HighImageability",1,2010,"Include"
"ZOL2021_e1","ZOL2021_e1_1","GRAFT",8,1,1,"LowImageability",6,1214.7,"Include"
"ZOL2021_e1","ZOL2021_e1_1","FEET",9,1,0,"HighImageability",1,3136.2,"Include"
"ZOL2021_e1","ZOL2021_e1_1","WILLOW",10,1,0,"HighImageability",1,1189.8,"Include"
"ZOL2021_e1","ZOL2021_e1_1","BLEW",11,1,1,"LowImageability",1,1297.2,"Include"
"ZOL2021_e1","ZOL2021_e1_1","ADVICE",12,1,1,"LowImageability",6,1421.4,"Include"
"ZOL2021_e1","ZOL2021_e1_1","DEFEAT",13,0,0,"LowImageability",1,2208.9,"Include"
"ZOL2021_e1","ZOL2021_e1_1","EVENT",14,0,0,"LowImageability",4,4377.4,"Include"
"ZOL2021_e1","ZOL2021_e1_1","PAEAN",15,0,0,"LowImageability",1,1264.4,"Include"
"ZOL2021_e1","ZOL2021_e1_1","DRINK",16,1,0,"HighImageability",1,1839.6,"Include"
"ZOL2021_e1","ZOL2021_e1_1","SUCH",17,1,1,"LowImageability",6,1056.8,"Include"
"ZOL2021_e1","ZOL2021_e1_1","TAPE",18,1,1,"HighImageability",6,1256.4,"Include"
"ZOL2021_e1","ZOL2021_e1_1","SHOCK",19,0,0,"LowImageability",1,1901.2,"Include"
"ZOL2021_e1","ZOL2021_e1_1","ANCHOR",20,1,1,"HighImageability",1,1064.6,"Include"
"ZOL2021_e1","ZOL2021_e1_1","FACT",21,0,0,"LowImageability",2,4944.7,"Include"
"ZOL2021_e1","ZOL2021_e1_1","AUNT",22,1,1,"HighImageability",6,1575.7,"Include"
"ZOL2021_e1","ZOL2021_e1_1","CAMEL",23,1,1,"HighImageability",6,1087,"Include"
"ZOL2021_e1","ZOL2021_e1_1","GENTRY",24,1,1,"LowImageability",6,921.4,"Include"
"ZOL2021_e1","ZOL2021_e1_1","OLIVE",25,1,1,"HighImageability",1,1097.2,"Include"
"ZOL2021_e1","ZOL2021_e1_1","ADMIRE",26,0,0,"LowImageability",1,8254,"Include"
"ZOL2021_e1","ZOL2021_e1_1","BRUT",27,1,1,"LowImageability",1,588.9,"Include"
"ZOL2021_e1","ZOL2021_e1_1","PIMPLE",28,1,0,"HighImageability",1,955.7,"Include"
"ZOL2021_e1","ZOL2021_e1_1","ASPECT",29,0,0,"LowImageability",1,577.6,"Include"
"ZOL2021_e1","ZOL2021_e1_1","PERIOD",30,1,1,"LowImageability",1,1993,"Include"
"ZOL2021_e1","ZOL2021_e1_1","MADE",31,1,1,"LowImageability",1,719.6,"Include"
"ZOL2021_e1","ZOL2021_e1_1","MUG",32,1,1,"HighImageability",1,1802.9,"Include"
"ZOL2021_e1","ZOL2021_e1_1","SPICE",33,1,0,"HighImageability",6,1987.7,"Include"
"ZOL2021_e1","ZOL2021_e1_1","BOARD",34,1,0,"HighImageability",1,1051,"Include"
"ZOL2021_e1","ZOL2021_e1_1","APPEAL",35,1,1,"LowImageability",1,2358,"Include"
"ZOL2021_e1","ZOL2021_e1_1","BERRY",36,1,1,"HighImageability",6,1367,"Include"
"ZOL2021_e1","ZOL2021_e1_1","VETO",37,0,0,"LowImageability",1,960,"Include"
"ZOL2021_e1","ZOL2021_e1_1","GENDER",38,0,0,"LowImageability",1,2829,"Include"
"ZOL2021_e1","ZOL2021_e1_1","LINEN",39,1,0,"HighImageability",1,734.4,"Include"
"ZOL2021_e1","ZOL2021_e1_1","FIRM",40,0,0,"LowImageability",1,691.4,"Include"
"ZOL2021_e1","ZOL2021_e1_1","STIFLE",41,0,0,"LowImageability",1,895.5,"Include"
"ZOL2021_e1","ZOL2021_e1_1","MULE",42,1,1,"HighImageability",6,1353.2,"Include"
"ZOL2021_e1","ZOL2021_e1_1","INFANT",43,1,0,"HighImageability",1,709.6,"Include"
"ZOL2021_e1","ZOL2021_e1_1","PAT",44,0,0,"LowImageability",1,558.7,"Include"
"ZOL2021_e1","ZOL2021_e1_1","YARD",45,1,1,"HighImageability",6,1459.4,"Include"
"ZOL2021_e1","ZOL2021_e1_1","CHIC",46,1,1,"LowImageability",6,1334.3,"Include"
"ZOL2021_e1","ZOL2021_e1_1","TOY",47,1,0,"HighImageability",1,3874,"Include"
"ZOL2021_e1","ZOL2021_e1_1","BANK",48,1,1,"HighImageability",6,1139.8,"Include"
"ZOL2021_e1","ZOL2021_e1_1","BRANDY",49,1,0,"HighImageability",1,1136.5,"Include"
"ZOL2021_e1","ZOL2021_e1_1","SCHOOL",50,1,1,"HighImageability",1,3635.9,"Include"
"ZOL2021_e1","ZOL2021_e1_1","TOW",51,0,0,"LowImageability",1,1726,"Include"
"ZOL2021_e1","ZOL2021_e1_1","HIM",52,1,1,"LowImageability",6,1338.7,"Include"
"ZOL2021_e1","ZOL2021_e1_1","DUAL",53,1,1,"LowImageability",6,1308.9,"Include"
"ZOL2021_e1","ZOL2021_e1_1","CITY",54,1,0,"HighImageability",1,3360,"Include"
"ZOL2021_e1","ZOL2021_e1_1","TRAIN",55,1,0,"HighImageability",1,2959.4,"Include"
"ZOL2021_e1","ZOL2021_e1_1","GLOOM",56,0,0,"LowImageability",1,1151.9,"Include"
"ZOL2021_e1","ZOL2021_e1_1","NO",57,1,1,"LowImageability",1,697.5,"Include"
"ZOL2021_e1","ZOL2021_e1_1","CABIN",58,1,1,"HighImageability",1,987.8,"Include"
"ZOL2021_e1","ZOL2021_e1_1","PROOF",59,0,0,"LowImageability",1,669.8,"Include"
"ZOL2021_e1","ZOL2021_e1_1","POLE",60,1,1,"HighImageability",6,968.5,"Include"
"ZOL2021_e1","ZOL2021_e1_1","GAIT",61,0,0,"LowImageability",1,1939.4,"Include"
"ZOL2021_e1","ZOL2021_e1_1","UNREST",62,1,1,"LowImageability",1,649.8,"Include"
"ZOL2021_e1","ZOL2021_e1_1","KNOB",63,1,0,"HighImageability",1,632.4,"Include"
"ZOL2021_e1","ZOL2021_e1_1","PLOT",64,0,0,"LowImageability",3,2067.2,"Include"
"ZOL2021_e1","ZOL2021_e1_1","BUILD",65,1,1,"LowImageability",6,1377.9,"Include"
"ZOL2021_e1","ZOL2021_e1_1","SELL",66,1,1,"LowImageability",6,843.6,"Include"
"ZOL2021_e1","ZOL2021_e1_1","ABOUT",67,0,0,"LowImageability",1,1711.5,"Include"
"ZOL2021_e1","ZOL2021_e1_1","SALAD",68,1,1,"HighImageability",1,698,"Include"
"ZOL2021_e1","ZOL2021_e1_1","SO",69,0,0,"LowImageability",1,592.3,"Include"
"ZOL2021_e1","ZOL2021_e1_1","FOOT",70,1,0,"HighImageability",1,1256.4,"Include"
"ZOL2021_e1","ZOL2021_e1_1","REGRET",71,1,1,"LowImageability",6,3526.2,"Include"
"ZOL2021_e1","ZOL2021_e1_1","VOLUME",72,0,0,"LowImageability",1,4551.8,"Include"
"ZOL2021_e1","ZOL2021_e1_1","SAVORY",73,1,1,"LowImageability",6,1215,"Include"
"ZOL2021_e1","ZOL2021_e1_1","GROUP",74,1,1,"LowImageability",2,1556.6,"Include"
"ZOL2021_e1","ZOL2021_e1_1","SMUT",75,0,0,"LowImageability",1,1030.8,"Include"
"ZOL2021_e1","ZOL2021_e1_1","WOOD",76,1,1,"HighImageability",1,736.7,"Include"
"ZOL2021_e1","ZOL2021_e1_1","THROAT",77,1,0,"HighImageability",1,1172.1,"Include"
"ZOL2021_e1","ZOL2021_e1_1","GARDEN",78,1,0,"HighImageability",1,1492.7,"Include"
"ZOL2021_e1","ZOL2021_e1_1","CORN",79,1,1,"HighImageability",1,997.8,"Include"
"ZOL2021_e1","ZOL2021_e1_1","LION",80,1,1,"HighImageability",6,1277.5,"Include"
"ZOL2021_e1","ZOL2021_e1_1","PEPPER",81,1,1,"HighImageability",1,1059.3,"Include"
"ZOL2021_e1","ZOL2021_e1_1","VISION",82,1,1,"LowImageability",6,1411.1,"Include"
"ZOL2021_e1","ZOL2021_e1_1","MAD",83,0,0,"LowImageability",1,845.4,"Include"
"ZOL2021_e1","ZOL2021_e1_1","CLEAR",84,1,1,"LowImageability",1,1520.1,"Include"
"ZOL2021_e1","ZOL2021_e1_1","SHEET",85,1,1,"HighImageability",6,2642.7,"Include"
"ZOL2021_e1","ZOL2021_e1_1","WARE",86,0,0,"LowImageability",1,3543.7,"Include"
"ZOL2021_e1","ZOL2021_e1_1","YONDER",87,0,0,"LowImageability",1,585.4,"Include"
"ZOL2021_e1","ZOL2021_e1_1","RAT",88,1,1,"HighImageability",4,3669.1,"Include"
"ZOL2021_e1","ZOL2021_e1_1","FRIGID",89,0,0,"LowImageability",1,991.6,"Include"
"ZOL2021_e1","ZOL2021_e1_1","BANANA",90,1,0,"HighImageability",1,8976.4,"Include"
"ZOL2021_e1","ZOL2021_e1_1","TEEM",91,1,1,"LowImageability",6,1082.2,"Include"
"ZOL2021_e1","ZOL2021_e1_1","LEVEL",92,0,0,"LowImageability",1,1212.5,"Include"
"ZOL2021_e1","ZOL2021_e1_1","FAWN",93,1,0,"HighImageability",1,723.3,"Include"
"ZOL2021_e1","ZOL2021_e1_1","SANDAL",94,1,0,"HighImageability",1,1967.7,"Include"
"ZOL2021_e1","ZOL2021_e1_1","OVEN",95,1,0,"HighImageability",1,1787.5,"Include"
"ZOL2021_e1","ZOL2021_e1_1","PLAIT",96,1,1,"LowImageability",1,857.9,"Include"
"ZOL2021_e1","ZOL2021_e1_1","HORSE",97,1,0,"HighImageability",1,612.1,"Include"
"ZOL2021_e1","ZOL2021_e1_1","MUCH",98,1,1,"LowImageability",1,1616,"Include"
"ZOL2021_e1","ZOL2021_e1_1","CAUSE",99,1,1,"LowImageability",1,673.2,"Include"
"ZOL2021_e1","ZOL2021_e1_1","FEE",100,1,1,"LowImageability",1,1789.7,"Include"
"ZOL2021_e1","ZOL2021_e1_1","NAVE",101,1,1,"LowImageability",1,5106.6,"Include"
"ZOL2021_e1","ZOL2021_e1_1","SKI",102,1,1,"HighImageability",6,1323.5,"Include"
"ZOL2021_e1","ZOL2021_e1_1","HAND",103,1,0,"HighImageability",1,1708.1,"Include"
"ZOL2021_e1","ZOL2021_e1_1","JUICE",104,1,0,"HighImageability",1,1317.9,"Include"
"ZOL2021_e1","ZOL2021_e1_1","FIRE",105,1,0,"HighImageability",1,7880.7,"Include"
"ZOL2021_e1","ZOL2021_e1_1","LIZARD",106,1,0,"HighImageability",1,650,"Include"
"ZOL2021_e1","ZOL2021_e1_1","THREAD",107,1,1,"HighImageability",6,1191.8,"Include"
"ZOL2021_e1","ZOL2021_e1_1","CHERRY",108,1,1,"HighImageability",1,3518.5,"Include"
"ZOL2021_e1","ZOL2021_e1_1","SQUIB",109,1,1,"LowImageability",6,1201.2,"Include"
"ZOL2021_e1","ZOL2021_e1_1","SHIP",110,1,1,"HighImageability",6,8241.6,"Include"
"ZOL2021_e1","ZOL2021_e1_1","SOLD",111,1,1,"LowImageability",1,1300.9,"Include"
"ZOL2021_e1","ZOL2021_e1_1","ROPE",112,1,0,"HighImageability",1,614.6,"Include"
"ZOL2021_e1","ZOL2021_e1_1","BODY",113,1,1,"HighImageability",1,588.6,"Include"
"ZOL2021_e1","ZOL2021_e1_1","ROBIN",114,1,0,"HighImageability",1,678.5,"Include"
"ZOL2021_e1","ZOL2021_e1_1","PEACH",115,1,0,"HighImageability",1,614.8,"Include"
"ZOL2021_e1","ZOL2021_e1_1","IN",116,0,0,"LowImageability",1,533.5,"Include"
"ZOL2021_e1","ZOL2021_e1_1","COCK",117,1,1,"HighImageability",6,1126.8,"Include"
"ZOL2021_e1","ZOL2021_e1_1","THESE",118,1,1,"LowImageability",1,2305.8,"Include"
"ZOL2021_e1","ZOL2021_e1_1","BOTTLE",119,1,0,"HighImageability",1,3708.7,"Include"
"ZOL2021_e1","ZOL2021_e1_1","OFF",120,0,0,"LowImageability",1,614.6,"Include"
"ZOL2021_e1","ZOL2021_e1_1","SHAWL",121,1,1,"HighImageability",1,1682.6,"Include"
"ZOL2021_e1","ZOL2021_e1_1","RIBBON",122,1,1,"HighImageability",6,1162.9,"Include"
"ZOL2021_e1","ZOL2021_e1_1","EARN",123,1,1,"LowImageability",1,1709.7,"Include"
"ZOL2021_e1","ZOL2021_e1_1","BRIDGE",124,1,1,"HighImageability",6,4655.8,"Include"
"ZOL2021_e1","ZOL2021_e1_1","CANOE",125,1,0,"HighImageability",1,1519.3,"Include"
"ZOL2021_e1","ZOL2021_e1_1","GOOD",126,0,0,"LowImageability",1,584.5,"Include"
"ZOL2021_e1","ZOL2021_e1_1","OWL",127,1,0,"HighImageability",1,665.9,"Include"
"ZOL2021_e1","ZOL2021_e1_1","LATE",128,0,0,"LowImageability",1,879.3,"Include"
"ZOL2021_e1","ZOL2021_e1_1","ITS",129,1,1,"LowImageability",6,1162.5,"Include"
"ZOL2021_e1","ZOL2021_e1_1","HEDGE",130,1,0,"HighImageability",1,1452.5,"Include"
"ZOL2021_e1","ZOL2021_e1_1","EQUITY",131,1,1,"LowImageability",6,1106.7,"Include"
"ZOL2021_e1","ZOL2021_e1_1","DESK",132,1,0,"HighImageability",1,1292.5,"Include"
"ZOL2021_e1","ZOL2021_e1_1","VARY",133,1,1,"LowImageability",1,972.9,"Include"
"ZOL2021_e1","ZOL2021_e1_1","DRAB",134,0,0,"LowImageability",1,4562.8,"Include"
"ZOL2021_e1","ZOL2021_e1_1","NEAR",135,0,0,"LowImageability",1,2788.9,"Include"
"ZOL2021_e1","ZOL2021_e1_1","CHISEL",136,1,1,"HighImageability",1,722.1,"Include"
"ZOL2021_e1","ZOL2021_e1_1","MELEE",137,1,1,"LowImageability",6,1055.8,"Include"
"ZOL2021_e1","ZOL2021_e1_1","SKATE",138,1,1,"HighImageability",1,931.4,"Include"
"ZOL2021_e1","ZOL2021_e1_1","GILT",139,0,0,"LowImageability",1,1388.4,"Include"
"ZOL2021_e1","ZOL2021_e1_1","POLYP",140,0,0,"LowImageability",1,863.6,"Include"
"ZOL2021_e1","ZOL2021_e1_1","SCOUT",141,1,0,"HighImageability",1,1277.4,"Include"
"ZOL2021_e1","ZOL2021_e1_1","NONE",142,0,0,"LowImageability",1,693.5,"Include"
"ZOL2021_e1","ZOL2021_e1_1","MOCKER",143,1,1,"LowImageability",1,758.3,"Include"
"ZOL2021_e1","ZOL2021_e1_1","LORRY",144,0,0,"LowImageability",1,1224.7,"Include"
"ZOL2021_e1","ZOL2021_e1_1","CAMERA",145,1,0,"HighImageability",1,634.4,"Include"
"ZOL2021_e1","ZOL2021_e1_1","POWER",146,0,0,"LowImageability",1,651.1,"Include"
"ZOL2021_e1","ZOL2021_e1_1","RIDDLE",147,1,1,"LowImageability",6,1502.8,"Include"
"ZOL2021_e1","ZOL2021_e1_1","DONE",148,0,0,"LowImageability",6,948.5,"Include"
"ZOL2021_e1","ZOL2021_e1_1","FROST",149,1,1,"HighImageability",6,711.5,"Include"
"ZOL2021_e1","ZOL2021_e1_1","CRIME",150,0,0,"LowImageability",3,1043.2,"Include"
"ZOL2021_e1","ZOL2021_e1_1","QUIET",151,0,0,"LowImageability",6,1565.9,"Include"
"ZOL2021_e1","ZOL2021_e1_1","CART",152,1,1,"HighImageability",4,2718.1,"Include"
"ZOL2021_e1","ZOL2021_e1_1","CLAMMY",153,1,1,"LowImageability",4,1320,"Include"
"ZOL2021_e1","ZOL2021_e1_1","FRUGAL",154,0,0,"LowImageability",6,1751,"Include"
"ZOL2021_e1","ZOL2021_e1_1","HOOD",155,1,1,"HighImageability",6,2638.9,"Include"
"ZOL2021_e1","ZOL2021_e1_1","KNOWN",156,1,1,"LowImageability",6,4756.7,"Include"
"ZOL2021_e1","ZOL2021_e1_1","SILVER",157,1,1,"HighImageability",6,984.9,"Include"
"ZOL2021_e1","ZOL2021_e1_1","BIRD",158,1,0,"HighImageability",2,1628,"Include"
"ZOL2021_e1","ZOL2021_e1_1","CREAM",159,1,1,"HighImageability",6,1840.5,"Include"
"ZOL2021_e1","ZOL2021_e1_1","HAY",160,1,1,"HighImageability",1,1793.6,"Include"
"ZOL2021_e1","ZOL2021_e1_1","MALADY",161,0,0,"LowImageability",1,681.4,"Include"
"ZOL2021_e1","ZOL2021_e1_1","MINNOW",162,1,0,"HighImageability",1,498.7,"Include"
"ZOL2021_e1","ZOL2021_e1_1","BORNE",163,0,0,"LowImageability",1,594.1,"Include"
"ZOL2021_e1","ZOL2021_e1_1","TROUT",164,1,0,"HighImageability",1,553.3,"Include"
"ZOL2021_e1","ZOL2021_e1_1","SKIN",165,1,0,"HighImageability",1,649.2,"Include"
"ZOL2021_e1","ZOL2021_e1_1","WIRE",166,1,1,"HighImageability",1,567.5,"Include"
"ZOL2021_e1","ZOL2021_e1_1","WEAPON",167,1,1,"HighImageability",6,1052.4,"Include"
"ZOL2021_e1","ZOL2021_e1_1","MONTH",168,1,1,"LowImageability",1,784.3,"Include"
"ZOL2021_e1","ZOL2021_e1_1","ALKALI",169,1,1,"LowImageability",6,872,"Include"
"ZOL2021_e1","ZOL2021_e1_1","PORCH",170,1,0,"HighImageability",1,725.4,"Include"
"ZOL2021_e1","ZOL2021_e1_1","LUNG",171,1,1,"HighImageability",6,960.7,"Include"
"ZOL2021_e1","ZOL2021_e1_1","PRAY",172,0,0,"LowImageability",1,835.7,"Include"
"ZOL2021_e1","ZOL2021_e1_1","STAR",173,1,1,"HighImageability",6,1544.7,"Include"
"ZOL2021_e1","ZOL2021_e1_1","LISP",174,1,1,"LowImageability",6,845.9,"Include"
"ZOL2021_e1","ZOL2021_e1_1","CALL",175,1,1,"LowImageability",6,954.9,"Include"
"ZOL2021_e1","ZOL2021_e1_1","TOAD",176,1,0,"HighImageability",1,675.1,"Include"
"ZOL2021_e1","ZOL2021_e1_1","REBUS",177,1,1,"LowImageability",1,555.3,"Include"
"ZOL2021_e1","ZOL2021_e1_1","GLORY",178,1,1,"LowImageability",6,1193.9,"Include"
"ZOL2021_e1","ZOL2021_e1_1","EASE",179,0,0,"LowImageability",1,763.6,"Include"
"ZOL2021_e1","ZOL2021_e1_1","RADIO",180,1,0,"HighImageability",1,1042.7,"Include"
"ZOL2021_e1","ZOL2021_e1_1","ELSE",181,1,1,"LowImageability",1,674.4,"Include"
"ZOL2021_e1","ZOL2021_e1_1","WAMPUM",182,0,0,"LowImageability",1,564.6,"Include"
"ZOL2021_e1","ZOL2021_e1_1","JOB",183,1,1,"LowImageability",1,623.8,"Include"
"ZOL2021_e1","ZOL2021_e1_1","FISH",184,1,0,"HighImageability",1,692.2,"Include"
"ZOL2021_e1","ZOL2021_e1_1","APT",185,0,0,"LowImageability",1,760.1,"Include"
"ZOL2021_e1","ZOL2021_e1_1","BOMB",186,1,1,"HighImageability",1,1498.4,"Include"
"ZOL2021_e1","ZOL2021_e1_1","HAUL",187,1,1,"LowImageability",6,1085.3,"Include"
"ZOL2021_e1","ZOL2021_e1_1","WATER",188,1,0,"HighImageability",1,667.1,"Include"
"ZOL2021_e1","ZOL2021_e1_1","HORN",189,1,1,"HighImageability",1,729,"Include"
"ZOL2021_e1","ZOL2021_e1_1","BUTYL",190,0,0,"LowImageability",6,858.2,"Include"
"ZOL2021_e1","ZOL2021_e1_1","MOHUR",191,1,1,"LowImageability",4,648.4,"Include"
"ZOL2021_e1","ZOL2021_e1_1","KENNEL",192,1,0,"HighImageability",1,1105.9,"Include"
"ZOL2021_e1","ZOL2021_e1_1","CEMENT",193,1,1,"HighImageability",4,1445.3,"Include"
"ZOL2021_e1","ZOL2021_e1_1","BRANCH",194,1,1,"HighImageability",6,1107.4,"Include"
"ZOL2021_e1","ZOL2021_e1_1","KNEE",195,1,0,"HighImageability",3,1041.2,"Include"
"ZOL2021_e1","ZOL2021_e1_1","ABRUPT",196,0,0,"LowImageability",1,1558.8,"Include"
"ZOL2021_e1","ZOL2021_e1_1","RARITY",197,1,1,"LowImageability",6,1219.8,"Include"
"ZOL2021_e1","ZOL2021_e1_1","MOMENT",198,0,0,"LowImageability",1,726.1,"Include"
"ZOL2021_e1","ZOL2021_e1_1","TOE",199,1,1,"HighImageability",1,519.7,"Include"
"ZOL2021_e1","ZOL2021_e1_1","SOFT",200,0,0,"LowImageability",1,795.2,"Include"
"ZOL2021_e1","ZOL2021_e1_1","PIQUE",201,1,1,"LowImageability",1,734.5,"Include"
"ZOL2021_e1","ZOL2021_e1_1","ROE",202,1,1,"LowImageability",6,1448.2,"Include"
"ZOL2021_e1","ZOL2021_e1_1","FRANK",203,0,0,"LowImageability",1,760.2,"Include"
"ZOL2021_e1","ZOL2021_e1_1","IVY",204,1,1,"HighImageability",6,2530.1,"Include"
"ZOL2021_e1","ZOL2021_e1_1","CROCK",205,0,0,"LowImageability",1,1002.4,"Include"
"ZOL2021_e1","ZOL2021_e1_1","RAPID",206,1,1,"LowImageability",1,4904.9,"Include"
"ZOL2021_e1","ZOL2021_e1_1","STRAW",207,1,0,"HighImageability",6,1002.5,"Include"
"ZOL2021_e1","ZOL2021_e1_1","MAR",208,0,0,"LowImageability",1,618.9,"Include"
"ZOL2021_e1","ZOL2021_e1_1","BIT",209,1,1,"LowImageability",1,507,"Include"
"ZOL2021_e1","ZOL2021_e1_1","MOTH",210,1,1,"HighImageability",1,615.6,"Include"
"ZOL2021_e1","ZOL2021_e1_1","DIRGE",211,0,0,"LowImageability",1,870.7,"Include"
"ZOL2021_e1","ZOL2021_e1_1","RICH",212,1,1,"LowImageability",1,813.3,"Include"
"ZOL2021_e1","ZOL2021_e1_1","SWORD",213,1,0,"HighImageability",1,633.9,"Include"
"ZOL2021_e1","ZOL2021_e1_1","HAWK",214,1,1,"HighImageability",1,2696,"Include"
"ZOL2021_e1","ZOL2021_e1_1","TICKET",215,1,0,"HighImageability",1,501.7,"Include"
"ZOL2021_e1","ZOL2021_e1_1","TRUCE",216,0,0,"LowImageability",1,4192.7,"Include"
"ZOL2021_e1","ZOL2021_e1_1","BONE",217,1,1,"HighImageability",6,1033.8,"Include"
"ZOL2021_e1","ZOL2021_e1_1","NEST",218,1,1,"HighImageability",1,637.3,"Include"
"ZOL2021_e1","ZOL2021_e1_1","ARM",219,1,0,"HighImageability",1,527.2,"Include"
"ZOL2021_e1","ZOL2021_e1_1","BROKEN",220,0,0,"LowImageability",1,624,"Include"
"ZOL2021_e1","ZOL2021_e1_1","CAKE",221,1,0,"HighImageability",1,1092.1,"Include"
"ZOL2021_e1","ZOL2021_e1_1","TIGER",222,1,1,"HighImageability",6,1318.1,"Include"
"ZOL2021_e1","ZOL2021_e1_1","RIVER",223,1,0,"HighImageability",1,840.8,"Include"
"ZOL2021_e1","ZOL2021_e1_1","BEAT",224,1,1,"LowImageability",1,880.8,"Include"
"ZOL2021_e1","ZOL2021_e1_1","STINGY",225,1,1,"LowImageability",1,661.2,"Include"
"ZOL2021_e1","ZOL2021_e1_1","THEN",226,0,0,"LowImageability",1,1459.2,"Include"
"ZOL2021_e1","ZOL2021_e1_1","RING",227,1,1,"HighImageability",6,807.9,"Include"
"ZOL2021_e1","ZOL2021_e1_1","WHO",228,1,1,"LowImageability",1,601.8,"Include"
"ZOL2021_e1","ZOL2021_e1_1","BATH",229,1,1,"HighImageability",6,1160.3,"Include"
"ZOL2021_e1","ZOL2021_e1_1","HAZARD",230,0,0,"LowImageability",1,1104.7,"Include"
"ZOL2021_e1","ZOL2021_e1_1","SKUNK",231,1,0,"HighImageability",1,579.1,"Include"
"ZOL2021_e1","ZOL2021_e1_1","BOX",232,1,1,"HighImageability",1,559.7,"Include"
"ZOL2021_e1","ZOL2021_e1_1","KNIFE",233,1,0,"HighImageability",1,1360.2,"Include"
"ZOL2021_e1","ZOL2021_e1_1","MOVIE",234,1,0,"HighImageability",1,650.5,"Include"
"ZOL2021_e1","ZOL2021_e1_1","GOWN",235,1,1,"HighImageability",6,876.7,"Include"
"ZOL2021_e1","ZOL2021_e1_1","SMOOTH",236,1,1,"LowImageability",6,883.1,"Include"
"ZOL2021_e1","ZOL2021_e1_1","PIANO",237,1,0,"HighImageability",1,782.6,"Include"
"ZOL2021_e1","ZOL2021_e1_1","ARTIST",238,1,0,"HighImageability",1,548.1,"Include"
"ZOL2021_e1","ZOL2021_e1_1","WINDOW",239,1,0,"HighImageability",1,625.6,"Include"
"ZOL2021_e1","ZOL2021_e1_1","ALIAS",240,1,1,"LowImageability",1,1355,"Include"
"ZOL2021_e1","ZOL2021_e1_1","CRYPT",241,1,0,"HighImageability",1,1225.3,"Include"
"ZOL2021_e1","ZOL2021_e1_1","CANDY",242,1,1,"HighImageability",2,979.8,"Include"
"ZOL2021_e1","ZOL2021_e1_1","FLAME",243,1,0,"HighImageability",1,865.5,"Include"
"ZOL2021_e1","ZOL2021_e1_1","FACE",244,1,0,"HighImageability",1,641.8,"Include"
"ZOL2021_e1","ZOL2021_e1_1","THUD",245,1,1,"LowImageability",6,1055.1,"Include"
"ZOL2021_e1","ZOL2021_e1_1","STOVE",246,1,1,"HighImageability",1,1111.6,"Include"
"ZOL2021_e1","ZOL2021_e1_1","ASSENT",247,1,1,"LowImageability",1,1334.9,"Include"
"ZOL2021_e1","ZOL2021_e1_1","CHEST",248,1,0,"HighImageability",1,806.3,"Include"
"ZOL2021_e1","ZOL2021_e1_1","CLAW",249,1,0,"HighImageability",6,1755.2,"Include"
"ZOL2021_e1","ZOL2021_e1_1","SINE",250,0,0,"LowImageability",1,619.5,"Include"
"ZOL2021_e1","ZOL2021_e1_1","TIE",251,1,1,"HighImageability",1,535.9,"Include"
"ZOL2021_e1","ZOL2021_e1_1","IDIOM",252,0,0,"LowImageability",1,644.7,"Include"
"ZOL2021_e1","ZOL2021_e1_1","UPON",253,0,0,"LowImageability",1,686.6,"Include"
"ZOL2021_e1","ZOL2021_e1_1","SUN",254,1,0,"HighImageability",1,617.7,"Include"
"ZOL2021_e1","ZOL2021_e1_1","MARKET",255,1,1,"HighImageability",1,867.7,"Include"
"ZOL2021_e1","ZOL2021_e1_1","SHOP",256,1,0,"HighImageability",1,1119,"Include"
"ZOL2021_e1","ZOL2021_e1_1","SALOON",257,1,1,"HighImageability",1,1052.8,"Include"
"ZOL2021_e1","ZOL2021_e1_1","WOMAN",258,1,1,"HighImageability",6,763.5,"Include"
"ZOL2021_e1","ZOL2021_e1_1","DOG",259,1,1,"HighImageability",1,794.6,"Include"
"ZOL2021_e1","ZOL2021_e1_1","BRICK",260,1,1,"HighImageability",6,960.6,"Include"
"ZOL2021_e1","ZOL2021_e1_1","TOLL",261,1,1,"LowImageability",1,1076.3,"Include"
"ZOL2021_e1","ZOL2021_e1_1","SLOUGH",262,0,0,"LowImageability",1,635.2,"Include"
"ZOL2021_e1","ZOL2021_e1_1","BIN",263,1,1,"HighImageability",6,1616.5,"Include"
"ZOL2021_e1","ZOL2021_e1_1","LIE",264,0,0,"LowImageability",1,726.5,"Include"
"ZOL2021_e1","ZOL2021_e1_1","LIKEN",265,1,1,"LowImageability",6,940.7,"Include"
"ZOL2021_e1","ZOL2021_e1_1","SWELL",266,0,0,"LowImageability",1,599,"Include"
"ZOL2021_e1","ZOL2021_e1_1","BALL",267,1,1,"HighImageability",1,757.9,"Include"
"ZOL2021_e1","ZOL2021_e1_1","DRUG",268,1,0,"HighImageability",1,1768,"Include"
"ZOL2021_e1","ZOL2021_e1_1","GRACE",269,1,1,"LowImageability",1,968.9,"Include"
"ZOL2021_e1","ZOL2021_e1_1","LEES",270,0,0,"LowImageability",1,826.9,"Include"
"ZOL2021_e1","ZOL2021_e1_1","PLANT",271,1,1,"HighImageability",1,703.2,"Include"
"ZOL2021_e1","ZOL2021_e1_1","BRAIN",272,1,1,"HighImageability",1,2282.9,"Include"
"ZOL2021_e1","ZOL2021_e1_1","BUCKET",273,1,0,"HighImageability",1,751.6,"Include"
"ZOL2021_e1","ZOL2021_e1_1","HARP",274,1,1,"HighImageability",1,788.3,"Include"
"ZOL2021_e1","ZOL2021_e1_1","LONE",275,0,0,"LowImageability",1,865.9,"Include"
"ZOL2021_e1","ZOL2021_e1_1","WEED",276,1,0,"HighImageability",2,889.9,"Include"
"ZOL2021_e1","ZOL2021_e1_1","PALACE",277,1,1,"HighImageability",1,567.4,"Include"
"ZOL2021_e1","ZOL2021_e1_1","BOND",278,1,1,"LowImageability",6,1079.4,"Include"
"ZOL2021_e1","ZOL2021_e1_1","SHED",279,1,0,"HighImageability",1,660.9,"Include"
"ZOL2021_e1","ZOL2021_e1_1","SEND",280,0,0,"LowImageability",1,711.3,"Include"
"ZOL2021_e1","ZOL2021_e1_1","VAN",281,1,0,"HighImageability",1,1869.3,"Include"
"ZOL2021_e1","ZOL2021_e1_1","THANE",282,1,1,"LowImageability",6,1413.5,"Include"
"ZOL2021_e1","ZOL2021_e1_1","PHONE",283,1,0,"HighImageability",1,824.9,"Include"
"ZOL2021_e1","ZOL2021_e1_1","TOMB",284,1,0,"HighImageability",1,749.7,"Include"
"ZOL2021_e1","ZOL2021_e1_1","MOAN",285,0,0,"LowImageability",1,913.3,"Include"
"ZOL2021_e1","ZOL2021_e1_1","LOUD",286,0,0,"LowImageability",1,603.8,"Include"
"ZOL2021_e1","ZOL2021_e1_1","PIANO",287,1,0,"HighImageability",1,611.3,"Include"
"ZOL2021_e1","ZOL2021_e1_1","TALUK",288,1,1,"LowImageability",6,762.1,"Include"
"ZOL2021_e1","ZOL2021_e1_1","BIT",289,1,1,"LowImageability",6,763.9,"Include"
"ZOL2021_e1","ZOL2021_e1_1","NUMB",290,0,0,"LowImageability",1,669.8,"Include"
"ZOL2021_e1","ZOL2021_e1_1","GEESE",291,1,1,"HighImageability",1,1011.8,"Include"
"ZOL2021_e1","ZOL2021_e1_1","RESCUE",292,1,1,"LowImageability",6,901.8,"Include"
"ZOL2021_e1","ZOL2021_e1_1","FILM",293,1,0,"HighImageability",1,762.7,"Include"
"ZOL2021_e1","ZOL2021_e1_1","BUBAL",294,1,1,"LowImageability",1,659.6,"Include"
"ZOL2021_e1","ZOL2021_e1_1","GROCER",295,1,1,"HighImageability",1,2447.3,"Include"
"ZOL2021_e1","ZOL2021_e1_1","ENOUGH",296,1,1,"LowImageability",1,595.7,"Include"
"ZOL2021_e1","ZOL2021_e1_1","PALM",297,1,0,"HighImageability",1,573.4,"Include"
"ZOL2021_e1","ZOL2021_e1_1","CORPSE",298,1,1,"HighImageability",6,845.1,"Include"
"ZOL2021_e1","ZOL2021_e1_1","MOSS",299,1,1,"HighImageability",6,571.5,"Include"
"ZOL2021_e1","ZOL2021_e1_1","GAIN",300,0,0,"LowImageability",1,735,"Include"
"ZOL2021_e1","ZOL2021_e1_1","ADAGE",301,0,0,"LowImageability",1,820.3,"Include"
"ZOL2021_e1","ZOL2021_e1_1","LIQUOR",302,1,1,"HighImageability",1,639.5,"Include"
"ZOL2021_e1","ZOL2021_e1_1","STATUE",303,1,0,"HighImageability",1,666.9,"Include"
"ZOL2021_e1","ZOL2021_e1_1","RARITY",304,1,1,"LowImageability",1,761.4,"Include"
"ZOL2021_e1","ZOL2021_e1_1","ROOM",305,1,1,"HighImageability",1,834.9,"Include"
"ZOL2021_e1","ZOL2021_e1_1","HONEY",306,1,0,"HighImageability",1,639,"Include"
"ZOL2021_e1","ZOL2021_e1_1","BODY",307,1,1,"HighImageability",1,662.1,"Include"
"ZOL2021_e1","ZOL2021_e1_1","AURAL",308,1,1,"LowImageability",1,595.4,"Include"
"ZOL2021_e1","ZOL2021_e1_1","IRIS",309,1,1,"HighImageability",6,1180,"Include"
"ZOL2021_e1","ZOL2021_e1_1","REMEDY",310,0,0,"LowImageability",1,936.3,"Include"
"ZOL2021_e1","ZOL2021_e1_1","PULPIT",311,1,0,"HighImageability",6,1160,"Include"
"ZOL2021_e1","ZOL2021_e1_1","BLEAK",312,1,1,"LowImageability",6,668.4,"Include"
"ZOL2021_e1","ZOL2021_e1_1","NIDUS",313,0,0,"LowImageability",1,573.7,"Include"
"ZOL2021_e1","ZOL2021_e1_1","AUNT",314,1,0,"HighImageability",1,847.1,"Include"
"ZOL2021_e1","ZOL2021_e1_1","ROOF",315,1,1,"HighImageability",6,666.1,"Include"
"ZOL2021_e1","ZOL2021_e1_1","JARGON",316,1,1,"LowImageability",1,821.1,"Include"
"ZOL2021_e1","ZOL2021_e1_1","DOOR",317,1,0,"HighImageability",1,826,"Include"
"ZOL2021_e1","ZOL2021_e1_1","CURB",318,1,0,"HighImageability",1,868.8,"Include"
"ZOL2021_e1","ZOL2021_e1_1","LAND",319,1,1,"HighImageability",6,841.4,"Include"
"ZOL2021_e1","ZOL2021_e1_1","COST",320,0,0,"LowImageability",1,737.1,"Include"
"ZOL2021_e1","ZOL2021_e1_1","GABLE",321,0,0,"LowImageability",1,980.2,"Include"
"ZOL2021_e1","ZOL2021_e1_1","SEAT",322,1,1,"HighImageability",1,829.3,"Include"
"ZOL2021_e1","ZOL2021_e1_1","BERRY",323,1,0,"HighImageability",6,703.3,"Include"
"ZOL2021_e1","ZOL2021_e1_1","CRYPT",324,1,0,"HighImageability",6,567.4,"Include"
"ZOL2021_e1","ZOL2021_e1_1","LIVER",325,1,0,"HighImageability",1,580,"Include"
"ZOL2021_e1","ZOL2021_e1_1","BLOUSE",326,1,1,"HighImageability",6,646.1,"Include"
"ZOL2021_e1","ZOL2021_e1_1","KISS",327,1,1,"HighImageability",6,1419.4,"Include"
"ZOL2021_e1","ZOL2021_e1_1","FISH",328,1,1,"HighImageability",1,506.3,"Include"
"ZOL2021_e1","ZOL2021_e1_1","SMUT",329,0,0,"LowImageability",1,530.4,"Include"
"ZOL2021_e1","ZOL2021_e1_1","LAWYER",330,1,1,"HighImageability",6,798.2,"Include"
"ZOL2021_e1","ZOL2021_e1_1","KINDLE",331,0,0,"LowImageability",1,688.6,"Include"
"ZOL2021_e1","ZOL2021_e1_1","OAR",332,1,0,"HighImageability",1,666.7,"Include"
"ZOL2021_e1","ZOL2021_e1_1","ANIMAL",333,1,0,"HighImageability",1,705.9,"Include"
"ZOL2021_e1","ZOL2021_e1_1","PSALM",334,1,1,"LowImageability",6,589.5,"Include"
"ZOL2021_e1","ZOL2021_e1_1","VANE",335,0,0,"LowImageability",1,653,"Include"
"ZOL2021_e1","ZOL2021_e1_1","EFFECT",336,1,1,"LowImageability",1,742.2,"Include"
"ZOL2021_e1","ZOL2021_e1_1","FIR",337,0,0,"LowImageability",1,528.3,"Include"
"ZOL2021_e1","ZOL2021_e1_1","AWAY",338,1,1,"LowImageability",6,650.9,"Include"
"ZOL2021_e1","ZOL2021_e1_1","IGNORE",339,1,1,"LowImageability",6,1098.7,"Include"
"ZOL2021_e1","ZOL2021_e1_1","BEAVER",340,1,1,"HighImageability",6,817,"Include"
"ZOL2021_e1","ZOL2021_e1_1","NEXT",341,1,1,"LowImageability",1,1853.6,"Include"
"ZOL2021_e1","ZOL2021_e1_1","POCKET",342,1,1,"HighImageability",1,1490.9,"Include"
"ZOL2021_e1","ZOL2021_e1_1","DAMSEL",343,1,1,"HighImageability",6,1370.1,"Include"
"ZOL2021_e1","ZOL2021_e1_1","LEAF",344,1,0,"HighImageability",1,675.7,"Include"
"ZOL2021_e1","ZOL2021_e1_1","BOTH",345,1,1,"LowImageability",6,1102.4,"Include"
"ZOL2021_e1","ZOL2021_e1_1","THREAD",346,1,1,"HighImageability",6,903.8,"Include"
"ZOL2021_e1","ZOL2021_e1_1","SPIDER",347,1,0,"HighImageability",1,531.2,"Include"
"ZOL2021_e1","ZOL2021_e1_1","FEE",348,1,1,"LowImageability",6,873.3,"Include"
"ZOL2021_e1","ZOL2021_e1_1","SEEK",349,0,0,"LowImageability",1,795.9,"Include"
"ZOL2021_e1","ZOL2021_e1_1","LONE",350,0,0,"LowImageability",1,1030.3,"Include"
"ZOL2021_e1","ZOL2021_e1_1","ARROW",351,1,0,"HighImageability",1,906.2,"Include"
"ZOL2021_e1","ZOL2021_e1_1","SOIL",352,1,0,"HighImageability",2,571.2,"Include"
"ZOL2021_e1","ZOL2021_e1_1","PRIDE",353,0,0,"LowImageability",2,643.3,"Include"
"ZOL2021_e1","ZOL2021_e1_1","BRIEF",354,0,0,"LowImageability",2,713,"Include"
"ZOL2021_e1","ZOL2021_e1_1","HOTEL",355,1,1,"HighImageability",2,706.5,"Include"
"ZOL2021_e1","ZOL2021_e1_1","WHY",356,1,1,"LowImageability",6,957.5,"Include"
"ZOL2021_e1","ZOL2021_e1_1","WANDER",357,1,1,"LowImageability",6,1010.7,"Include"
"ZOL2021_e1","ZOL2021_e1_1","HAWK",358,1,0,"HighImageability",1,583.9,"Include"
"ZOL2021_e1","ZOL2021_e1_1","YARD",359,1,1,"HighImageability",6,1083.9,"Include"
"ZOL2021_e1","ZOL2021_e1_1","BUBBLE",360,1,0,"HighImageability",1,813.7,"Include"
"ZOL2021_e1","ZOL2021_e1_1","RECORD",361,1,0,"HighImageability",5,1521.1,"Include"
"ZOL2021_e1","ZOL2021_e1_1","GOOD",362,0,0,"LowImageability",1,765.7,"Include"
"ZOL2021_e1","ZOL2021_e1_1","KEPT",363,1,1,"LowImageability",1,854.3,"Include"
"ZOL2021_e1","ZOL2021_e1_1","POMMEL",364,1,1,"LowImageability",6,868.8,"Include"
"ZOL2021_e1","ZOL2021_e1_1","CRAB",365,1,1,"HighImageability",1,570.2,"Include"
"ZOL2021_e1","ZOL2021_e1_1","AS",366,0,0,"LowImageability",1,549.3,"Include"
"ZOL2021_e1","ZOL2021_e1_1","EXTRA",367,1,1,"LowImageability",6,2317.4,"Include"
"ZOL2021_e1","ZOL2021_e1_1","RAID",368,0,0,"LowImageability",1,919.5,"Include"
"ZOL2021_e1","ZOL2021_e1_1","TELL",369,0,0,"LowImageability",1,581.6,"Include"
"ZOL2021_e1","ZOL2021_e1_1","HEART",370,1,1,"HighImageability",1,2149.9,"Include"
"ZOL2021_e1","ZOL2021_e1_1","ADDER",371,1,1,"HighImageability",1,582,"Include"
"ZOL2021_e1","ZOL2021_e1_1","COAT",372,1,1,"HighImageability",1,1358.1,"Include"
"ZOL2021_e1","ZOL2021_e1_1","MISTER",373,1,1,"LowImageability",1,1218.9,"Include"
"ZOL2021_e1","ZOL2021_e1_1","RIB",374,1,0,"HighImageability",1,1072.9,"Include"
"ZOL2021_e1","ZOL2021_e1_1","TENT",375,1,1,"HighImageability",6,526.2,"Include"
"ZOL2021_e1","ZOL2021_e1_1","PIECE",376,1,1,"LowImageability",6,1016.8,"Include"
"ZOL2021_e1","ZOL2021_e1_1","CLANG",377,0,0,"LowImageability",6,849.6,"Include"
"ZOL2021_e1","ZOL2021_e1_1","STREET",378,1,0,"HighImageability",1,1486.3,"Include"
"ZOL2021_e1","ZOL2021_e1_1","AN",379,0,0,"LowImageability",1,551.8,"Include"
"ZOL2021_e1","ZOL2021_e1_1","FUR",380,1,0,"HighImageability",1,614,"Include"
"ZOL2021_e1","ZOL2021_e1_1","STOOL",381,1,1,"HighImageability",6,2137.2,"Include"
"ZOL2021_e1","ZOL2021_e1_1","DIVING",382,1,0,"HighImageability",1,2458.3,"Include"
"ZOL2021_e1","ZOL2021_e1_1","PURL",383,1,1,"LowImageability",6,1349,"Include"
"ZOL2021_e1","ZOL2021_e1_1","FACTOR",384,1,1,"LowImageability",1,1257.8,"Include"
"ZOL2021_e1","ZOL2021_e1_1","HERD",385,1,0,"HighImageability",1,1050.8,"Include"
"ZOL2021_e1","ZOL2021_e1_1","GLASS",386,1,0,"HighImageability",1,1026.5,"Include"
"ZOL2021_e1","ZOL2021_e1_1","QUEAN",387,1,1,"LowImageability",1,976.9,"Include"
"ZOL2021_e1","ZOL2021_e1_1","KNOWN",388,1,1,"LowImageability",1,2648.9,"Include"
"ZOL2021_e1","ZOL2021_e1_1","TENSE",389,0,0,"LowImageability",1,849.8,"Include"
"ZOL2021_e1","ZOL2021_e1_1","CHINA",390,1,1,"HighImageability",6,815,"Include"
"ZOL2021_e1","ZOL2021_e1_1","CATTLE",391,1,1,"HighImageability",1,1054,"Include"
"ZOL2021_e1","ZOL2021_e1_1","SISTER",392,1,1,"HighImageability",6,1196.8,"Include"
"ZOL2021_e1","ZOL2021_e1_1","FANG",393,1,0,"HighImageability",1,964.4,"Include"
"ZOL2021_e1","ZOL2021_e1_1","SUCH",394,0,0,"LowImageability",1,1265.9,"Include"
"ZOL2021_e1","ZOL2021_e1_1","FEAT",395,0,0,"LowImageability",1,923.9,"Include"
"ZOL2021_e1","ZOL2021_e1_1","LETTER",396,1,1,"HighImageability",1,2145.8,"Include"
"ZOL2021_e1","ZOL2021_e1_1","PLAN",397,0,0,"LowImageability",6,2407.6,"Include"
"ZOL2021_e1","ZOL2021_e1_1","BRIDGE",398,1,0,"HighImageability",1,541.1,"Include"
"ZOL2021_e1","ZOL2021_e1_1","ADVICE",399,0,0,"LowImageability",1,1241.1,"Include"
"ZOL2021_e1","ZOL2021_e1_1","WALL",400,1,1,"HighImageability",1,403.9,"Include"
"ZOL2021_e1","ZOL2021_e1_1","SNAIL",401,1,1,"HighImageability",1,2289.1,"Include"
"ZOL2021_e1","ZOL2021_e1_1","POOL",402,1,1,"HighImageability",1,908,"Include"
"ZOL2021_e1","ZOL2021_e1_1","TAX",403,0,0,"LowImageability",1,1156.7,"Include"
"ZOL2021_e1","ZOL2021_e1_1","WHERRY",404,0,0,"LowImageability",1,610.8,"Include"
"ZOL2021_e1","ZOL2021_e1_1","RANGE",405,1,1,"LowImageability",6,889.9,"Include"
"ZOL2021_e1","ZOL2021_e1_1","RAT",406,1,1,"HighImageability",1,998.5,"Include"
"ZOL2021_e1","ZOL2021_e1_1","SEQUEL",407,1,1,"LowImageability",6,757,"Include"
"ZOL2021_e1","ZOL2021_e1_1","TICKET",408,1,1,"HighImageability",6,715.6,"Include"
"ZOL2021_e1","ZOL2021_e1_1","MIRROR",409,1,1,"HighImageability",1,695.5,"Include"
"ZOL2021_e1","ZOL2021_e1_1","KNOW",410,0,0,"LowImageability",1,755.2,"Include"
"ZOL2021_e1","ZOL2021_e1_1","VALUE",411,1,1,"LowImageability",1,2390.8,"Include"
"ZOL2021_e1","ZOL2021_e1_1","GRAVY",412,1,0,"HighImageability",1,794.9,"Include"
"ZOL2021_e1","ZOL2021_e1_1","THREW",413,0,0,"LowImageability",1,1151.2,"Include"
"ZOL2021_e1","ZOL2021_e1_1","WALLET",414,1,1,"HighImageability",6,1395.2,"Include"
"ZOL2021_e1","ZOL2021_e1_1","MAN",415,1,0,"HighImageability",1,555.4,"Include"
"ZOL2021_e1","ZOL2021_e1_1","SHAPE",416,0,0,"LowImageability",1,740.1,"Include"
"ZOL2021_e1","ZOL2021_e1_1","PUDDLE",417,1,1,"HighImageability",1,5696.1,"Include"
"ZOL2021_e1","ZOL2021_e1_1","TRIPOD",418,1,0,"HighImageability",1,785.1,"Include"
"ZOL2021_e1","ZOL2021_e1_1","UTTER",419,0,0,"LowImageability",1,911.7,"Include"
"ZOL2021_e1","ZOL2021_e1_1","BOSOM",420,1,0,"HighImageability",1,916.9,"Include"
"ZOL2021_e1","ZOL2021_e1_1","LOAD",421,1,1,"LowImageability",1,880.5,"Include"
"ZOL2021_e1","ZOL2021_e1_1","ELM",422,1,0,"HighImageability",1,646.6,"Include"
"ZOL2021_e1","ZOL2021_e1_1","BRA",423,1,1,"HighImageability",6,762.4,"Include"
"ZOL2021_e1","ZOL2021_e1_1","MAGIC",424,0,0,"LowImageability",1,613.7,"Include"
"ZOL2021_e1","ZOL2021_e1_1","FACE",425,1,1,"HighImageability",1,1381,"Include"
"ZOL2021_e1","ZOL2021_e1_1","BEETLE",426,1,1,"HighImageability",1,2913.2,"Include"
"ZOL2021_e1","ZOL2021_e1_1","WOE",427,0,0,"LowImageability",1,546.5,"Include"
"ZOL2021_e1","ZOL2021_e1_1","SKIRT",428,1,1,"HighImageability",6,858.8,"Include"
"ZOL2021_e1","ZOL2021_e1_1","JOLT",429,0,0,"LowImageability",1,746.8,"Include"
"ZOL2021_e1","ZOL2021_e1_1","HATE",430,1,1,"LowImageability",6,834.5,"Include"
"ZOL2021_e1","ZOL2021_e1_1","KING",431,1,0,"HighImageability",1,692.2,"Include"
"ZOL2021_e1","ZOL2021_e1_1","CASKET",432,1,1,"HighImageability",1,901.7,"Include"
"ZOL2021_e1","ZOL2021_e1_1","RESULT",433,1,1,"LowImageability",6,752.8,"Include"
"ZOL2021_e1","ZOL2021_e1_1","SICK",434,0,0,"LowImageability",1,636.9,"Include"
"ZOL2021_e1","ZOL2021_e1_1","STRUT",435,0,0,"LowImageability",1,3139,"Include"
"ZOL2021_e1","ZOL2021_e1_1","MILK",436,1,0,"HighImageability",1,702.9,"Include"
"ZOL2021_e1","ZOL2021_e1_1","SHOWN",437,1,1,"LowImageability",6,1001.4,"Include"
"ZOL2021_e1","ZOL2021_e1_1","SAGA",438,0,0,"LowImageability",1,698.5,"Include"
"ZOL2021_e1","ZOL2021_e1_1","DOUGH",439,1,1,"HighImageability",1,879.1,"Include"
"ZOL2021_e1","ZOL2021_e1_1","KNIFE",440,1,0,"HighImageability",1,795.3,"Include"
"ZOL2021_e1","ZOL2021_e1_1","SMALL",441,0,0,"LowImageability",1,882.1,"Include"
"ZOL2021_e1","ZOL2021_e1_1","REAR",442,1,1,"LowImageability",1,589.5,"Include"
"ZOL2021_e1","ZOL2021_e1_1","HYBRID",443,1,1,"LowImageability",6,1118.9,"Include"
"ZOL2021_e1","ZOL2021_e1_1","MEAT",444,1,1,"HighImageability",1,1786.7,"Include"
"ZOL2021_e1","ZOL2021_e1_1","VETO",445,1,1,"LowImageability",6,1512.4,"Include"
"ZOL2021_e1","ZOL2021_e1_1","GRAPE",446,1,0,"HighImageability",1,810.5,"Include"
"ZOL2021_e1","ZOL2021_e1_1","BIRD",447,1,1,"HighImageability",6,1772.7,"Include"
"ZOL2021_e1","ZOL2021_e1_1","SALE",448,0,0,"LowImageability",1,610.3,"Include"
"ZOL2021_e1","ZOL2021_e1_1","PAINT",449,1,1,"HighImageability",1,1129.5,"Include"
"ZOL2021_e1","ZOL2021_e1_1","TOO",450,1,1,"LowImageability",1,1294.9,"Include"
"ZOL2021_e1","ZOL2021_e1_1","BARD",451,1,1,"LowImageability",6,2165.9,"Include"
"ZOL2021_e1","ZOL2021_e1_1","BRIBE",452,1,1,"LowImageability",1,1842.7,"Include"
"ZOL2021_e1","ZOL2021_e1_1","FROG",453,1,0,"HighImageability",1,2649.1,"Include"
"ZOL2021_e1","ZOL2021_e1_1","STYLE",454,0,0,"LowImageability",1,2971.1,"Include"
"ZOL2021_e1","ZOL2021_e1_1","ANT",455,1,0,"HighImageability",1,1885.1,"Include"
"ZOL2021_e1","ZOL2021_e1_1","FENCE",456,1,0,"HighImageability",1,3143.5,"Include"
"ZOL2021_e1","ZOL2021_e1_1","FOE",457,1,1,"LowImageability",1,1455.6,"Include"
"ZOL2021_e1","ZOL2021_e1_1","KEG",458,1,0,"HighImageability",1,2480.7,"Include"
"ZOL2021_e1","ZOL2021_e1_1","SWAGE",459,0,0,"LowImageability",1,661.1,"Include"
"ZOL2021_e1","ZOL2021_e1_1","MINK",460,1,0,"HighImageability",1,1406,"Include"
"ZOL2021_e1","ZOL2021_e1_1","GOD",461,0,0,"LowImageability",1,867.9,"Include"
"ZOL2021_e1","ZOL2021_e1_1","PUT",462,1,1,"LowImageability",1,928.4,"Include"
"ZOL2021_e1","ZOL2021_e1_1","CARRY",463,1,1,"LowImageability",6,581.9,"Include"
"ZOL2021_e1","ZOL2021_e1_1","CHISEL",464,1,0,"HighImageability",1,1077,"Include"
"ZOL2021_e1","ZOL2021_e1_1","BELLY",465,1,0,"HighImageability",6,621.6,"Include"
"ZOL2021_e1","ZOL2021_e1_1","MOMENT",466,0,0,"LowImageability",1,986.1,"Include"
"ZOL2021_e1","ZOL2021_e1_1","SHONE",467,1,1,"LowImageability",1,684.7,"Include"
"ZOL2021_e1","ZOL2021_e1_1","ARMY",468,1,0,"HighImageability",1,1346.4,"Include"
"ZOL2021_e1","ZOL2021_e1_1","VISE",469,1,1,"LowImageability",1,1290.2,"Include"
"ZOL2021_e1","ZOL2021_e1_1","CLAW",470,1,0,"HighImageability",6,487.1,"Include"
"ZOL2021_e1","ZOL2021_e1_1","PUMP",471,1,1,"HighImageability",6,636.9,"Include"
"ZOL2021_e1","ZOL2021_e1_1","MEADOW",472,1,1,"HighImageability",1,722,"Include"
"ZOL2021_e1","ZOL2021_e1_1","PEDAL",473,1,0,"HighImageability",1,482.6,"Include"
"ZOL2021_e1","ZOL2021_e1_1","EMPTY",474,1,1,"LowImageability",6,760.1,"Include"
"ZOL2021_e1","ZOL2021_e1_1","TROUT",475,1,0,"HighImageability",1,747.4,"Include"
"ZOL2021_e1","ZOL2021_e1_1","UPKEEP",476,0,0,"LowImageability",1,638.9,"Include"
"ZOL2021_e1","ZOL2021_e1_1","EARTH",477,1,1,"HighImageability",1,565.9,"Include"
"ZOL2021_e1","ZOL2021_e1_1","FOOT",478,1,1,"HighImageability",6,527.1,"Include"
"ZOL2021_e1","ZOL2021_e1_1","ITEM",479,1,1,"LowImageability",6,522.7,"Include"
"ZOL2021_e1","ZOL2021_e1_1","BIBLE",480,1,0,"HighImageability",3,821.1,"Include"
"ZOL2021_e1","ZOL2021_e1_1","BOTHER",481,1,1,"LowImageability",1,1275.5,"Include"
"ZOL2021_e1","ZOL2021_e1_1","CRY",482,0,0,"LowImageability",1,1081.2,"Include"
"ZOL2021_e1","ZOL2021_e1_1","QUEST",483,1,1,"LowImageability",1,724.2,"Include"
"ZOL2021_e1","ZOL2021_e1_1","BETEL",484,0,0,"LowImageability",1,808.4,"Include"
"ZOL2021_e1","ZOL2021_e1_1","REAP",485,0,0,"LowImageability",1,598.3,"Include"
"ZOL2021_e1","ZOL2021_e1_1","POSTER",486,1,1,"HighImageability",1,645.9,"Include"
"ZOL2021_e1","ZOL2021_e1_1","FEET",487,1,1,"HighImageability",6,1190.8,"Include"
"ZOL2021_e1","ZOL2021_e1_1","VIEW",488,1,1,"LowImageability",6,2720,"Include"
"ZOL2021_e1","ZOL2021_e1_1","OUTSET",489,0,0,"LowImageability",1,778.3,"Include"
"ZOL2021_e1","ZOL2021_e1_1","BRAVE",490,0,0,"LowImageability",1,799.7,"Include"
"ZOL2021_e1","ZOL2021_e1_1","SEEL",491,0,0,"LowImageability",1,783.3,"Include"
"ZOL2021_e1","ZOL2021_e1_1","SYMBOL",492,0,0,"LowImageability",1,868.3,"Include"
"ZOL2021_e1","ZOL2021_e1_1","WHAT",493,0,0,"LowImageability",1,1253.4,"Include"
"ZOL2021_e1","ZOL2021_e1_1","THAW",494,1,1,"LowImageability",6,982.9,"Include"
"ZOL2021_e1","ZOL2021_e1_1","TWO",495,1,1,"LowImageability",1,797.2,"Include"
"ZOL2021_e1","ZOL2021_e1_1","ONION",496,1,0,"HighImageability",1,577.4,"Include"
"ZOL2021_e1","ZOL2021_e1_1","BUDGET",497,1,1,"LowImageability",1,1178.8,"Include"
"ZOL2021_e1","ZOL2021_e1_1","ARTIST",498,1,0,"HighImageability",1,847.3,"Include"
"ZOL2021_e1","ZOL2021_e1_1","WARE",499,1,1,"LowImageability",1,829.8,"Include"
"ZOL2021_e1","ZOL2021_e1_1","VAIN",500,1,1,"LowImageability",1,742.9,"Include"
"ZOL2021_e1","ZOL2021_e1_1","STRIDE",501,1,1,"LowImageability",1,2287.4,"Include"
"ZOL2021_e1","ZOL2021_e1_1","JEEP",502,1,1,"HighImageability",1,1220.6,"Include"
"ZOL2021_e1","ZOL2021_e1_1","FORTH",503,0,0,"LowImageability",1,795.9,"Include"
"ZOL2021_e1","ZOL2021_e1_1","TOIL",504,0,0,"LowImageability",1,940.5,"Include"
"ZOL2021_e1","ZOL2021_e1_1","LESS",505,0,0,"LowImageability",1,582.3,"Include"
"ZOL2021_e1","ZOL2021_e1_1","JOBBER",506,1,1,"LowImageability",6,584.5,"Include"
"ZOL2021_e1","ZOL2021_e1_1","LENGTH",507,0,0,"LowImageability",1,546.2,"Include"
"ZOL2021_e1","ZOL2021_e1_1","LEMON",508,1,0,"HighImageability",3,909.7,"Include"
"ZOL2021_e1","ZOL2021_e1_1","PLIERS",509,1,1,"HighImageability",5,606.9,"Include"
"ZOL2021_e1","ZOL2021_e1_1","ALLOW",510,1,1,"LowImageability",6,1752.2,"Include"
"ZOL2021_e1","ZOL2021_e1_1","CORN",511,1,0,"HighImageability",2,1096.5,"Include"
"ZOL2021_e1","ZOL2021_e1_1","BREAD",512,1,0,"HighImageability",6,979.8,"Include"
"ZOL2021_e1","ZOL2021_e1_1","SATIN",513,1,0,"HighImageability",1,773.6,"Include"
"ZOL2021_e1","ZOL2021_e1_1","HATRED",514,0,0,"LowImageability",1,784.1,"Include"
"ZOL2021_e1","ZOL2021_e1_1","SPITE",515,1,1,"LowImageability",6,884.7,"Include"
"ZOL2021_e1","ZOL2021_e1_1","DOTAGE",516,0,0,"LowImageability",4,1275,"Include"
"ZOL2021_e1","ZOL2021_e1_1","FEEL",517,1,1,"LowImageability",1,1762.1,"Include"
"ZOL2021_e1","ZOL2021_e1_1","SILVER",518,1,1,"HighImageability",1,576.9,"Include"
"ZOL2021_e1","ZOL2021_e1_1","BABY",519,1,1,"HighImageability",5,1049.3,"Include"
"ZOL2021_e1","ZOL2021_e1_1","COIN",520,1,1,"HighImageability",6,622.6,"Include"
"ZOL2021_e1","ZOL2021_e1_1","CAMERA",521,1,0,"HighImageability",1,1638.6,"Include"
"ZOL2021_e1","ZOL2021_e1_1","SCROLL",522,1,1,"HighImageability",1,1092.4,"Include"
"ZOL2021_e1","ZOL2021_e1_1","MEMORY",523,0,0,"LowImageability",6,527.1,"Include"
"ZOL2021_e1","ZOL2021_e1_1","HEN",524,1,1,"HighImageability",6,527.9,"Include"
"ZOL2021_e1","ZOL2021_e1_1","GREED",525,1,1,"LowImageability",1,772.4,"Include"
"ZOL2021_e1","ZOL2021_e1_1","NATION",526,1,1,"LowImageability",6,902,"Include"
"ZOL2021_e1","ZOL2021_e1_1","GAIT",527,0,0,"LowImageability",6,921.2,"Include"
"ZOL2021_e1","ZOL2021_e1_1","GOAT",528,1,1,"HighImageability",6,1797.7,"Include"
"ZOL2021_e1","ZOL2021_e1_1","CORSE",529,1,1,"LowImageability",6,672.5,"Include"
"ZOL2021_e1","ZOL2021_e1_1","BY",530,0,0,"LowImageability",1,754.2,"Include"
"ZOL2021_e1","ZOL2021_e1_1","MEMBER",531,0,0,"LowImageability",1,788.4,"Include"
"ZOL2021_e1","ZOL2021_e1_1","HOPE",532,1,1,"LowImageability",6,724.7,"Include"
"ZOL2021_e1","ZOL2021_e1_1","SNOW",533,1,1,"HighImageability",1,921.6,"Include"
"ZOL2021_e1","ZOL2021_e1_1","BEE",534,1,0,"HighImageability",1,772.8,"Include"
"ZOL2021_e1","ZOL2021_e1_1","CITE",535,0,0,"LowImageability",1,719.8,"Include"
"ZOL2021_e1","ZOL2021_e1_1","STALE",536,1,1,"LowImageability",6,587,"Include"
"ZOL2021_e1","ZOL2021_e1_1","RITUAL",537,0,0,"LowImageability",1,651.6,"Include"
"ZOL2021_e1","ZOL2021_e1_1","PRUNE",538,1,0,"HighImageability",1,928.8,"Include"
"ZOL2021_e1","ZOL2021_e1_1","BARREL",539,1,0,"HighImageability",1,538.4,"Include"
"ZOL2021_e1","ZOL2021_e1_1","SCOUT",540,1,1,"HighImageability",1,788.7,"Include"
"ZOL2021_e1","ZOL2021_e1_1","BEARD",541,1,0,"HighImageability",1,2989.2,"Include"
"ZOL2021_e1","ZOL2021_e1_1","SLOE",542,0,0,"LowImageability",1,1031.9,"Include"
"ZOL2021_e1","ZOL2021_e1_1","RUSH",543,0,0,"LowImageability",1,754.9,"Include"
"ZOL2021_e1","ZOL2021_e1_1","MOUSER",544,1,1,"LowImageability",1,608,"Include"
"ZOL2021_e1","ZOL2021_e1_1","MINNOW",545,1,1,"HighImageability",1,637.1,"Include"
"ZOL2021_e1","ZOL2021_e1_1","HURDLE",546,1,1,"HighImageability",1,603.5,"Include"
"ZOL2021_e1","ZOL2021_e1_1","PLAIN",547,1,1,"LowImageability",1,1055.8,"Include"
"ZOL2021_e1","ZOL2021_e1_1","LAWN",548,1,1,"HighImageability",6,1259.7,"Include"
"ZOL2021_e1","ZOL2021_e1_1","DISC",549,1,0,"HighImageability",1,814.1,"Include"
"ZOL2021_e1","ZOL2021_e1_1","PIT",550,1,1,"HighImageability",1,554.6,"Include"
"ZOL2021_e1","ZOL2021_e1_1","BUTTER",551,1,0,"HighImageability",1,588.7,"Include"
"ZOL2021_e1","ZOL2021_e1_1","DAISY",552,1,0,"HighImageability",1,829.5,"Include"
"ZOL2021_e1","ZOL2021_e1_1","FLOW",553,1,1,"LowImageability",1,2688.4,"Include"
"ZOL2021_e1","ZOL2021_e1_1","SIMPER",554,0,0,"LowImageability",1,1951.9,"Include"
"ZOL2021_e1","ZOL2021_e1_1","BROOM",555,1,0,"HighImageability",1,11921.3,"Include"
"ZOL2021_e1","ZOL2021_e1_1","SOUP",556,1,1,"HighImageability",1,617.1,"Include"
"ZOL2021_e1","ZOL2021_e1_1","JAR",557,1,1,"HighImageability",1,1989.8,"Include"
"ZOL2021_e1","ZOL2021_e1_1","PERSON",558,1,0,"HighImageability",1,664.6,"Include"
"ZOL2021_e1","ZOL2021_e1_1","TENURE",559,1,1,"LowImageability",6,2918.6,"Include"
"ZOL2021_e1","ZOL2021_e1_1","UNCLE",560,1,0,"HighImageability",1,4634.2,"Include"
"ZOL2021_e1","ZOL2021_e1_1","RIGHT",561,1,1,"LowImageability",6,1951.8,"Include"
"ZOL2021_e1","ZOL2021_e1_1","THIS",562,1,1,"LowImageability",1,563.7,"Include"
"ZOL2021_e1","ZOL2021_e1_1","SUPPER",563,1,0,"HighImageability",1,725,"Include"
"ZOL2021_e1","ZOL2021_e1_1","CANE",564,1,0,"HighImageability",1,559.6,"Include"
"ZOL2021_e1","ZOL2021_e1_1","KEG",565,1,1,"HighImageability",1,949.9,"Include"
"ZOL2021_e1","ZOL2021_e1_1","PLAICE",566,1,1,"LowImageability",6,871.3,"Include"
"ZOL2021_e1","ZOL2021_e1_1","GOAT",567,1,0,"HighImageability",1,572.7,"Include"
"ZOL2021_e1","ZOL2021_e1_1","VAIN",568,0,0,"LowImageability",1,530.4,"Include"
"ZOL2021_e1","ZOL2021_e1_1","SOUL",569,1,1,"LowImageability",1,418.4,"Include"
"ZOL2021_e1","ZOL2021_e1_1","ROD",570,1,0,"HighImageability",1,658.4,"Include"
"ZOL2021_e1","ZOL2021_e1_1","BALLOT",571,1,1,"LowImageability",6,771.7,"Include"
"ZOL2021_e1","ZOL2021_e1_1","LUNG",572,1,1,"HighImageability",1,593.4,"Include"
"ZOL2021_e1","ZOL2021_e1_1","BANNER",573,1,0,"HighImageability",1,802.2,"Include"
"ZOL2021_e1","ZOL2021_e1_1","LUCK",574,0,0,"LowImageability",1,891.4,"Include"
"ZOL2021_e1","ZOL2021_e1_1","PAX",575,0,0,"LowImageability",1,719.9,"Include"
"ZOL2021_e1","ZOL2021_e1_1","BIRD",576,1,1,"HighImageability",6,689.9,"Include"
"ZOL2021_e1","ZOL2021_e1_1","BEARD",577,1,0,"HighImageability",1,721.6,"Include"
"ZOL2021_e1","ZOL2021_e1_1","EERIE",578,0,0,"LowImageability",1,647.7,"Include"
"ZOL2021_e1","ZOL2021_e1_1","HELMET",579,1,1,"HighImageability",1,931.8,"Include"
"ZOL2021_e1","ZOL2021_e1_1","HEAD",580,1,1,"HighImageability",1,602.2,"Include"
"ZOL2021_e1","ZOL2021_e1_1","CANAL",581,1,1,"HighImageability",1,1505.2,"Include"
"ZOL2021_e1","ZOL2021_e1_1","BRAVE",582,1,1,"LowImageability",6,1580.5,"Include"
"ZOL2021_e1","ZOL2021_e1_1","CLUE",583,1,1,"LowImageability",1,835.7,"Include"
"ZOL2021_e1","ZOL2021_e1_1","BULLET",584,1,0,"HighImageability",1,902.3,"Include"
"ZOL2021_e1","ZOL2021_e1_1","HEAVEN",585,0,0,"LowImageability",6,709.5,"Include"
"ZOL2021_e1","ZOL2021_e1_1","SLOUGH",586,1,1,"LowImageability",1,693.5,"Include"
"ZOL2021_e1","ZOL2021_e1_1","SKULL",587,1,0,"HighImageability",1,655.8,"Include"
"ZOL2021_e1","ZOL2021_e1_1","OF",588,1,1,"LowImageability",6,483.9,"Include"
"ZOL2021_e1","ZOL2021_e1_1","CHAIN",589,1,1,"HighImageability",6,684.2,"Include"
"ZOL2021_e1","ZOL2021_e1_1","KNOWN",590,0,0,"LowImageability",1,3656.3,"Include"
"ZOL2021_e1","ZOL2021_e1_1","LINEN",591,1,1,"HighImageability",6,706.6,"Include"
"ZOL2021_e1","ZOL2021_e1_1","ELBOW",592,1,1,"HighImageability",1,988.4,"Include"
"ZOL2021_e1","ZOL2021_e1_1","DEAR",593,0,0,"LowImageability",1,533.3,"Include"
"ZOL2021_e1","ZOL2021_e1_1","BOAT",594,1,0,"HighImageability",1,626.7,"Include"
"ZOL2021_e1","ZOL2021_e1_1","LOAFER",595,0,0,"LowImageability",1,1393.8,"Include"
"ZOL2021_e1","ZOL2021_e1_1","VIGIL",596,0,0,"LowImageability",1,2166.6,"Include"
"ZOL2021_e1","ZOL2021_e1_1","BEAK",597,1,1,"HighImageability",1,793.3,"Include"
"ZOL2021_e1","ZOL2021_e1_1","THAW",598,0,0,"LowImageability",1,745.3,"Include"
"ZOL2021_e1","ZOL2021_e1_1","BREAD",599,1,0,"HighImageability",6,604.5,"Include"
"ZOL2021_e1","ZOL2021_e1_1","SAME",600,1,1,"LowImageability",1,854.2,"Include"
"ZOL2021_e1","ZOL2021_e1_1","TELL",601,0,0,"LowImageability",1,1535,"Include"
"ZOL2021_e1","ZOL2021_e1_1","FRUIT",602,1,0,"HighImageability",1,1805.6,"Include"
"ZOL2021_e1","ZOL2021_e1_1","SWAMP",603,1,0,"HighImageability",1,713.3,"Include"
"ZOL2021_e1","ZOL2021_e1_1","TRASH",604,1,0,"HighImageability",1,623.7,"Include"
"ZOL2021_e1","ZOL2021_e1_1","JERK",605,1,1,"LowImageability",6,762,"Include"
"ZOL2021_e1","ZOL2021_e1_1","KEEN",606,1,1,"LowImageability",6,1039.9,"Include"
"ZOL2021_e1","ZOL2021_e1_1","GARLIC",607,1,0,"HighImageability",1,638,"Include"
"ZOL2021_e1","ZOL2021_e1_1","KISS",608,1,1,"HighImageability",6,645.3,"Include"
"ZOL2021_e1","ZOL2021_e1_1","SAGA",609,0,0,"LowImageability",1,932.3,"Include"
"ZOL2021_e1","ZOL2021_e1_1","PHASE",610,1,1,"LowImageability",6,762.2,"Include"
"ZOL2021_e1","ZOL2021_e1_1","KNIGHT",611,1,1,"HighImageability",1,2022.6,"Include"
"ZOL2021_e1","ZOL2021_e1_1","DRIVER",612,1,0,"HighImageability",1,1128.7,"Include"
"ZOL2021_e1","ZOL2021_e1_1","TEMPLE",613,1,0,"HighImageability",1,491.3,"Include"
"ZOL2021_e1","ZOL2021_e1_1","LAWYER",614,1,0,"HighImageability",1,1056.3,"Include"
"ZOL2021_e1","ZOL2021_e1_1","RIBBON",615,1,1,"HighImageability",1,786.8,"Include"
"ZOL2021_e1","ZOL2021_e1_1","AXE",616,1,1,"HighImageability",6,812.1,"Include"
"ZOL2021_e1","ZOL2021_e1_1","EXCISE",617,1,1,"LowImageability",6,917.5,"Include"
"ZOL2021_e1","ZOL2021_e1_1","SWORD",618,1,1,"HighImageability",6,586.1,"Include"
"ZOL2021_e1","ZOL2021_e1_1","AFTER",619,1,1,"LowImageability",6,823.8,"Include"
"ZOL2021_e1","ZOL2021_e1_1","LAWN",620,1,0,"HighImageability",1,937.8,"Include"
"ZOL2021_e1","ZOL2021_e1_1","BOSOM",621,1,0,"HighImageability",1,796.1,"Include"
"ZOL2021_e1","ZOL2021_e1_1","AIL",622,0,0,"LowImageability",1,716.4,"Include"
"ZOL2021_e1","ZOL2021_e1_1","BEST",623,1,1,"LowImageability",1,552.4,"Include"
"ZOL2021_e1","ZOL2021_e1_1","BAIL",624,1,1,"LowImageability",1,794.2,"Include"
"ZOL2021_e1","ZOL2021_e1_1","ALLOW",625,0,0,"LowImageability",1,985.2,"Include"
"ZOL2021_e1","ZOL2021_e1_1","SCHOOL",626,1,0,"HighImageability",1,1610,"Include"
"ZOL2021_e1","ZOL2021_e1_1","EVEN",627,1,1,"LowImageability",6,1135.8,"Include"
"ZOL2021_e1","ZOL2021_e1_1","ZIPPER",628,1,0,"HighImageability",1,504.9,"Include"
"ZOL2021_e1","ZOL2021_e1_1","GRAPE",629,1,0,"HighImageability",1,562.3,"Include"
"ZOL2021_e1","ZOL2021_e1_1","PLANK",630,1,0,"HighImageability",1,1863,"Include"
"ZOL2021_e1","ZOL2021_e1_1","WHALE",631,1,0,"HighImageability",1,641.9,"Include"
"ZOL2021_e1","ZOL2021_e1_1","RAW",632,1,1,"LowImageability",1,1473.8,"Include"
"ZOL2021_e1","ZOL2021_e1_1","ROOT",633,1,0,"HighImageability",1,615.2,"Include"
"ZOL2021_e1","ZOL2021_e1_1","PAGE",634,1,1,"HighImageability",1,690.5,"Include"
"ZOL2021_e1","ZOL2021_e1_1","FLAIR",635,1,1,"LowImageability",1,638.6,"Include"
"ZOL2021_e1","ZOL2021_e1_1","JELLY",636,1,0,"HighImageability",1,1022,"Include"
"ZOL2021_e1","ZOL2021_e1_1","AWAY",637,1,1,"LowImageability",1,1191.3,"Include"
"ZOL2021_e1","ZOL2021_e1_1","STATUE",638,1,1,"HighImageability",1,3837.4,"Include"
"ZOL2021_e1","ZOL2021_e1_1","MOHUR",639,1,1,"LowImageability",6,820.3,"Include"
"ZOL2021_e1","ZOL2021_e1_1","CUTTLE",640,1,1,"LowImageability",6,673.1,"Include"
"ZOL2021_e1","ZOL2021_e1_1","SHED",641,1,1,"HighImageability",1,7854.1,"Include"
"ZOL2021_e1","ZOL2021_e1_1","AT",642,1,1,"LowImageability",1,9869.3,"Include"
"ZOL2021_e1","ZOL2021_e1_1","LURE",643,0,0,"LowImageability",1,5515.7,"Include"
"ZOL2021_e1","ZOL2021_e1_1","MEANT",644,1,1,"LowImageability",3,1393.3,"Include"
"ZOL2021_e1","ZOL2021_e1_1","TOLL",645,0,0,"LowImageability",4,3863.7,"Include"
"ZOL2021_e1","ZOL2021_e1_1","PIGEON",646,1,0,"HighImageability",2,1871.6,"Include"
"ZOL2021_e1","ZOL2021_e1_1","POLE",647,1,0,"HighImageability",3,4385.3,"Include"
"ZOL2021_e1","ZOL2021_e1_1","GUY",648,1,0,"HighImageability",2,1093.4,"Include"
"ZOL2021_e1","ZOL2021_e1_1","APT",649,1,1,"LowImageability",6,3950.3,"Include"
"ZOL2021_e1","ZOL2021_e1_1","GRAZE",650,1,1,"LowImageability",6,1801.7,"Include"
"ZOL2021_e1","ZOL2021_e1_1","PROUD",651,1,1,"LowImageability",1,1451.3,"Include"
"ZOL2021_e1","ZOL2021_e1_1","DRAB",652,1,1,"LowImageability",1,599,"Include"
"ZOL2021_e1","ZOL2021_e1_1","THERE",653,0,0,"LowImageability",1,463.4,"Include"
"ZOL2021_e1","ZOL2021_e1_1","THROE",654,1,1,"LowImageability",1,2552.9,"Include"
"ZOL2021_e1","ZOL2021_e1_1","LIME",655,1,0,"HighImageability",1,864.9,"Include"
"ZOL2021_e1","ZOL2021_e1_1","HABIT",656,0,0,"LowImageability",1,707.3,"Include"
"ZOL2021_e1","ZOL2021_e1_1","DOLLAR",657,1,0,"HighImageability",1,600.7,"Include"
"ZOL2021_e1","ZOL2021_e1_1","HEDGE",658,1,0,"HighImageability",1,1021,"Include"
"ZOL2021_e1","ZOL2021_e1_1","BREAK",659,1,1,"LowImageability",6,1379.3,"Include"
"ZOL2021_e1","ZOL2021_e1_1","LEAST",660,1,1,"LowImageability",1,553.1,"Include"
"ZOL2021_e1","ZOL2021_e1_1","SKILL",661,0,0,"LowImageability",1,1401.8,"Include"
"ZOL2021_e1","ZOL2021_e1_1","MOVIE",662,1,0,"HighImageability",1,732.4,"Include"
"ZOL2021_e1","ZOL2021_e1_1","SAFE",663,1,1,"LowImageability",6,605.3,"Include"
"ZOL2021_e1","ZOL2021_e1_1","COAT",664,1,1,"HighImageability",1,564.3,"Include"
"ZOL2021_e1","ZOL2021_e1_1","TAKE",665,0,0,"LowImageability",1,1176.4,"Include"
"ZOL2021_e1","ZOL2021_e1_1","TIE",666,1,1,"HighImageability",1,696,"Include"
"ZOL2021_e1","ZOL2021_e1_1","LESSON",667,0,0,"LowImageability",1,1284.9,"Include"
"ZOL2021_e1","ZOL2021_e1_1","MENAD",668,0,0,"LowImageability",1,653.7,"Include"
"ZOL2021_e1","ZOL2021_e1_1","SEEK",669,1,1,"LowImageability",1,1019.7,"Include"
"ZOL2021_e1","ZOL2021_e1_1","TOILET",670,1,1,"HighImageability",6,933.7,"Include"
"ZOL2021_e1","ZOL2021_e1_1","ANNEAL",671,1,1,"LowImageability",6,823.9,"Include"
"ZOL2021_e1","ZOL2021_e1_1","CHISEL",672,1,1,"HighImageability",6,716.4,"Include"
"ZOL2021_e1","ZOL2021_e1_1","POT",673,1,0,"HighImageability",1,535.1,"Include"
"ZOL2021_e1","ZOL2021_e1_1","WASTE",674,0,0,"LowImageability",6,1329.2,"Include"
"ZOL2021_e1","ZOL2021_e1_1","SLIME",675,1,0,"HighImageability",1,998,"Include"
"ZOL2021_e1","ZOL2021_e1_1","JAM",676,1,0,"HighImageability",1,772.6,"Include"
"ZOL2021_e1","ZOL2021_e1_1","CAFE",677,1,1,"HighImageability",1,776.1,"Include"
"ZOL2021_e1","ZOL2021_e1_1","FOREST",678,1,0,"HighImageability",1,638.4,"Include"
"ZOL2021_e1","ZOL2021_e1_1","WOUND",679,1,1,"HighImageability",1,936.7,"Include"
"ZOL2021_e1","ZOL2021_e1_1","DONOR",680,1,1,"LowImageability",6,978.8,"Include"
"ZOL2021_e1","ZOL2021_e1_1","CLEAR",681,0,0,"LowImageability",1,1124.9,"Include"
"ZOL2021_e1","ZOL2021_e1_1","ALONE",682,1,1,"LowImageability",1,599.5,"Include"
"ZOL2021_e1","ZOL2021_e1_1","TOW",683,0,0,"LowImageability",1,552.7,"Include"
"ZOL2021_e1","ZOL2021_e1_1","SOLEMN",684,1,1,"LowImageability",1,813.1,"Include"
"ZOL2021_e1","ZOL2021_e1_1","ROLE",685,1,1,"LowImageability",1,613.1,"Include"
"ZOL2021_e1","ZOL2021_e1_1","DEPUTY",686,1,1,"LowImageability",1,702,"Include"
"ZOL2021_e1","ZOL2021_e1_1","SWAYED",687,1,1,"LowImageability",6,689.4,"Include"
"ZOL2021_e1","ZOL2021_e1_1","SHEEP",688,1,0,"HighImageability",1,694,"Include"
"ZOL2021_e1","ZOL2021_e1_1","MISUSE",689,1,1,"LowImageability",1,584.8,"Include"
"ZOL2021_e1","ZOL2021_e1_1","SPIDER",690,1,1,"HighImageability",1,513.4,"Include"
"ZOL2021_e1","ZOL2021_e1_1","DEBUT",691,0,0,"LowImageability",1,823,"Include"
"ZOL2021_e1","ZOL2021_e1_1","GABLE",692,0,0,"LowImageability",1,3363,"Include"
"ZOL2021_e1","ZOL2021_e1_1","STRAIN",693,0,0,"LowImageability",1,837,"Include"
"ZOL2021_e1","ZOL2021_e1_1","CANOE",694,1,0,"HighImageability",1,677.4,"Include"
"ZOL2021_e1","ZOL2021_e1_1","VERY",695,0,0,"LowImageability",1,1513.2,"Include"
"ZOL2021_e1","ZOL2021_e1_1","TAX",696,1,1,"LowImageability",1,1576.8,"Include"
"ZOL2021_e1","ZOL2021_e1_1","FERRY",697,1,1,"HighImageability",1,2035.7,"Include"
"ZOL2021_e1","ZOL2021_e1_1","UNIQUE",698,0,0,"LowImageability",1,1392.8,"Include"
"ZOL2021_e1","ZOL2021_e1_1","PRAY",699,1,1,"LowImageability",6,920.2,"Include"
"ZOL2021_e1","ZOL2021_e1_1","CATTLE",700,1,0,"HighImageability",1,1083.2,"Include"
"ZOL2021_e1","ZOL2021_e1_1","BRED",701,0,0,"LowImageability",6,1373.3,"Include"
"ZOL2021_e1","ZOL2021_e1_1","SKATE",702,1,1,"HighImageability",1,847.6,"Include"
"ZOL2021_e1","ZOL2021_e1_1","SEARCH",703,0,0,"LowImageability",1,588.5,"Include"
"ZOL2021_e1","ZOL2021_e1_1","GROCER",704,1,1,"HighImageability",1,807.5,"Include"
"ZOL2021_e1","ZOL2021_e1_1","PLANT",705,1,1,"HighImageability",1,657.3,"Include"
"ZOL2021_e1","ZOL2021_e1_1","TEETH",706,1,1,"HighImageability",1,517,"Include"
"ZOL2021_e1","ZOL2021_e1_1","ICE",707,1,1,"HighImageability",1,544.1,"Include"
"ZOL2021_e1","ZOL2021_e1_1","WIFE",708,1,1,"HighImageability",6,747.1,"Include"
"ZOL2021_e1","ZOL2021_e1_1","STUPID",709,0,0,"LowImageability",1,795.5,"Include"
"ZOL2021_e1","ZOL2021_e1_1","PEACH",710,1,1,"HighImageability",1,813.1,"Include"
"ZOL2021_e1","ZOL2021_e1_1","SALEP",711,0,0,"LowImageability",1,944.3,"Include"
"ZOL2021_e1","ZOL2021_e1_1","TALUK",712,0,0,"LowImageability",1,708.8,"Include"
"ZOL2021_e1","ZOL2021_e1_1","RABBI",713,1,0,"HighImageability",1,600.6,"Include"
"ZOL2021_e1","ZOL2021_e1_1","PEARL",714,1,1,"HighImageability",1,614.2,"Include"
"ZOL2021_e1","ZOL2021_e1_1","BEFORE",715,0,0,"LowImageability",1,777.7,"Include"
"ZOL2021_e1","ZOL2021_e1_1","TAR",716,1,1,"HighImageability",1,569.2,"Include"
"ZOL2021_e1","ZOL2021_e1_1","BANDIT",717,1,0,"HighImageability",1,649,"Include"
"ZOL2021_e1","ZOL2021_e1_1","THANE",718,0,0,"LowImageability",1,726.8,"Include"
"ZOL2021_e1","ZOL2021_e1_1","THINK",719,1,1,"LowImageability",1,825.6,"Include"
"ZOL2021_e1","ZOL2021_e1_1","CRISIS",720,0,0,"LowImageability",1,603.5,"Include"
"ZOL2021_e1","ZOL2021_e1_1","FOR",721,1,1,"LowImageability",6,2743.4,"Include"
"ZOL2021_e1","ZOL2021_e1_1","MUD",722,1,0,"HighImageability",1,647.1,"Include"
"ZOL2021_e1","ZOL2021_e1_1","CHURCH",723,1,1,"HighImageability",1,528.8,"Include"
"ZOL2021_e1","ZOL2021_e1_1","STEAM",724,1,1,"HighImageability",6,496.8,"Include"
"ZOL2021_e1","ZOL2021_e1_1","ANCHOR",725,1,1,"HighImageability",1,486.8,"Include"
"ZOL2021_e1","ZOL2021_e1_1","TUFF",726,0,0,"LowImageability",6,893,"Include"
"ZOL2021_e1","ZOL2021_e1_1","GLOVE",727,1,0,"HighImageability",6,943.9,"Include"
"ZOL2021_e1","ZOL2021_e1_1","GAIT",728,0,0,"LowImageability",6,564.4,"Include"
"ZOL2021_e1","ZOL2021_e1_1","EAR",729,1,1,"HighImageability",1,1049.1,"Include"
"ZOL2021_e1","ZOL2021_e1_1","SERIAL",730,0,0,"LowImageability",1,727.8,"Include"
"ZOL2021_e1","ZOL2021_e1_1","SYSTEM",731,0,0,"LowImageability",1,636.4,"Include"
"ZOL2021_e1","ZOL2021_e1_1","GIVER",732,1,1,"LowImageability",1,420.4,"Include"
"ZOL2021_e1","ZOL2021_e1_1","SPEECH",733,0,0,"LowImageability",1,544.6,"Include"
"ZOL2021_e1","ZOL2021_e1_1","COME",734,1,1,"LowImageability",1,644.3,"Include"
"ZOL2021_e1","ZOL2021_e1_1","BID",735,1,1,"LowImageability",1,588.8,"Include"
"ZOL2021_e1","ZOL2021_e1_1","BEAT",736,0,0,"LowImageability",1,666.4,"Include"
"ZOL2021_e1","ZOL2021_e1_1","TRACE",737,0,0,"LowImageability",1,0.6,"Include"
"ZOL2021_e1","ZOL2021_e1_1","WOMAN",738,1,1,"HighImageability",6,791.2,"Include"
"ZOL2021_e1","ZOL2021_e1_1","LADY",739,1,1,"HighImageability",6,1033.2,"Include"
"ZOL2021_e1","ZOL2021_e1_1","REPEAT",740,0,0,"LowImageability",1,922,"Include"
"ZOL2021_e1","ZOL2021_e1_1","TIME",741,0,0,"LowImageability",1,876.8,"Include"
"ZOL2021_e1","ZOL2021_e1_1","GIVE",742,1,1,"LowImageability",1,3830.4,"Include"
"ZOL2021_e1","ZOL2021_e1_1","DESK",743,1,1,"HighImageability",4,1391.6,"Include"
"ZOL2021_e1","ZOL2021_e1_1","SPADE",744,1,0,"HighImageability",2,1306.6,"Include"
"ZOL2021_e1","ZOL2021_e1_1","USURP",745,1,1,"LowImageability",2,885.9,"Include"
"ZOL2021_e1","ZOL2021_e1_1","HAY",746,1,0,"HighImageability",1,707.3,"Include"
"ZOL2021_e1","ZOL2021_e1_1","MONK",747,1,0,"HighImageability",1,543.2,"Include"
"ZOL2021_e1","ZOL2021_e1_1","CLOCK",748,1,0,"HighImageability",1,514.6,"Include"
"ZOL2021_e1","ZOL2021_e1_1","PRIEST",749,1,1,"HighImageability",1,529.3,"Include"
"ZOL2021_e1","ZOL2021_e1_1","OVER",750,1,1,"LowImageability",1,705.5,"Include"
"ZOL2021_e1","ZOL2021_e1_1","VAN",751,1,0,"HighImageability",1,716.2,"Include"
"ZOL2021_e1","ZOL2021_e1_1","PALM",752,1,0,"HighImageability",1,368.2,"Include"
"ZOL2021_e1","ZOL2021_e1_1","VEST",753,1,1,"HighImageability",1,447.7,"Include"
"ZOL2021_e1","ZOL2021_e1_1","MIND",754,1,1,"LowImageability",1,239,"Include"
"ZOL2021_e1","ZOL2021_e1_1","PEEK",755,0,0,"LowImageability",1,463.5,"Include"
"ZOL2021_e1","ZOL2021_e1_1","REFLEX",756,0,0,"LowImageability",1,754.6,"Include"
"ZOL2021_e1","ZOL2021_e1_1","ALERT",757,1,1,"LowImageability",1,374.6,"Include"
"ZOL2021_e1","ZOL2021_e1_1","CHINA",758,1,1,"HighImageability",1,343.5,"Include"
"ZOL2021_e1","ZOL2021_e1_1","WALLET",759,1,1,"HighImageability",1,720.4,"Include"
"ZOL2021_e1","ZOL2021_e1_1","DRAW",760,0,0,"LowImageability",1,634.9,"Include"
"ZOL2021_e1","ZOL2021_e1_1","ONE",761,0,0,"LowImageability",1,797,"Include"
"ZOL2021_e1","ZOL2021_e1_1","FLEECE",762,1,1,"HighImageability",1,571.1,"Include"
"ZOL2021_e1","ZOL2021_e1_1","HONEY",763,1,1,"HighImageability",6,1798.3,"Include"
"ZOL2021_e1","ZOL2021_e1_1","SINGER",764,1,1,"HighImageability",1,1591,"Include"
"ZOL2021_e1","ZOL2021_e1_1","SEA",765,1,1,"HighImageability",1,643.4,"Include"
"ZOL2021_e1","ZOL2021_e1_1","MOSS",766,1,1,"HighImageability",1,1975.5,"Include"
"ZOL2021_e1","ZOL2021_e1_1","FRANK",767,1,1,"LowImageability",1,1852.3,"Include"
"ZOL2021_e1","ZOL2021_e1_1","LETTER",768,1,0,"HighImageability",1,1934.3,"Include"
"ZOL2021_e1","ZOL2021_e1_1","DUCK",769,1,0,"HighImageability",1,906.3,"Include"
"ZOL2021_e1","ZOL2021_e1_1","MAKE",770,0,0,"LowImageability",1,914.8,"Include"
"ZOL2021_e1","ZOL2021_e1_1","WING",771,1,1,"HighImageability",1,1120.2,"Include"
"ZOL2021_e1","ZOL2021_e1_1","DOLL",772,1,1,"HighImageability",1,426.3,"Include"
"ZOL2021_e1","ZOL2021_e1_1","ABHOR",773,0,0,"LowImageability",1,507.4,"Include"
"ZOL2021_e1","ZOL2021_e1_1","HATRED",774,1,1,"LowImageability",1,1175.4,"Include"
"ZOL2021_e1","ZOL2021_e1_1","CRYPT",775,1,0,"HighImageability",1,708.7,"Include"
"ZOL2021_e1","ZOL2021_e1_1","OTTER",776,1,1,"HighImageability",1,504.1,"Include"
"ZOL2021_e1","ZOL2021_e1_1","SUN",777,1,0,"HighImageability",1,526.8,"Include"
"ZOL2021_e1","ZOL2021_e1_1","LIKE",778,0,0,"LowImageability",1,507.5,"Include"
"ZOL2021_e1","ZOL2021_e1_1","MATTER",779,0,0,"LowImageability",1,598.7,"Include"
"ZOL2021_e1","ZOL2021_e1_1","PEP",780,0,0,"LowImageability",1,494.1,"Include"
"ZOL2021_e1","ZOL2021_e1_1","THORN",781,1,1,"HighImageability",1,2738.2,"Include"
"ZOL2021_e1","ZOL2021_e1_1","SEER",782,0,0,"LowImageability",1,538.3,"Include"
"ZOL2021_e1","ZOL2021_e1_1","LEES",783,0,0,"LowImageability",1,431.7,"Include"
"ZOL2021_e1","ZOL2021_e1_1","GORE",784,1,1,"LowImageability",1,416.7,"Include"
"ZOL2021_e1","ZOL2021_e1_1","TWIG",785,1,0,"HighImageability",4,288.8,"Include"
"ZOL2021_e1","ZOL2021_e1_1","SECOND",786,0,0,"LowImageability",1,572.4,"Include"
"ZOL2021_e1","ZOL2021_e1_1","TOWN",787,1,1,"HighImageability",4,1161.2,"Include"
"ZOL2021_e1","ZOL2021_e1_1","HEIGHT",788,0,0,"LowImageability",1,678.6,"Include"
"ZOL2021_e1","ZOL2021_e1_1","NAVEL",789,1,0,"HighImageability",1,695.9,"Include"
"ZOL2021_e1","ZOL2021_e1_1","DAGGER",790,1,0,"HighImageability",4,828.6,"Include"
"ZOL2021_e1","ZOL2021_e1_1","IRON",791,1,1,"HighImageability",1,650.2,"Include"
"ZOL2021_e1","ZOL2021_e1_1","SAND",792,1,1,"HighImageability",1,675.8,"Include"
"ZOL2021_e1","ZOL2021_e1_1","MEAL",793,1,1,"HighImageability",1,434.7,"Include"
"ZOL2021_e1","ZOL2021_e1_1","BEE",794,1,0,"HighImageability",1,543.2,"Include"
"ZOL2021_e1","ZOL2021_e1_1","MUCH",795,1,1,"LowImageability",1,451.7,"Include"
"ZOL2021_e1","ZOL2021_e1_1","TIDY",796,1,1,"LowImageability",1,646.3,"Include"
"ZOL2021_e1","ZOL2021_e1_1","BUTYL",797,0,0,"LowImageability",1,407.1,"Include"
"ZOL2021_e1","ZOL2021_e1_1","VERB",798,1,1,"LowImageability",1,658.1,"Include"
"ZOL2021_e1","ZOL2021_e1_1","MINK",799,1,0,"HighImageability",5,746.8,"Include"
"ZOL2021_e1","ZOL2021_e1_1","MOUSE",800,1,1,"HighImageability",5,901,"Include"
"ZOL2021_e1","ZOL2021_e1_1","ARTIST",801,1,1,"HighImageability",1,911.8,"Include"
"ZOL2021_e1","ZOL2021_e1_1","HEIR",802,0,0,"LowImageability",1,529.9,"Include"
"ZOL2021_e1","ZOL2021_e1_1","SCENE",803,1,1,"LowImageability",1,380.4,"Include"
"ZOL2021_e1","ZOL2021_e1_1","REGRET",804,1,1,"LowImageability",4,814.2,"Include"
"ZOL2021_e1","ZOL2021_e1_1","FIRE",805,1,0,"HighImageability",1,597.3,"Include"
"ZOL2021_e1","ZOL2021_e1_1","PILLOW",806,1,0,"HighImageability",1,555,"Include"
"ZOL2021_e1","ZOL2021_e1_1","ONLY",807,0,0,"LowImageability",1,517.9,"Include"
"ZOL2021_e1","ZOL2021_e1_1","TOE",808,1,0,"HighImageability",1,467.9,"Include"
"ZOL2021_e1","ZOL2021_e1_1","ANY",809,1,1,"LowImageability",1,891.2,"Include"
"ZOL2021_e1","ZOL2021_e1_1","BLADE",810,1,1,"HighImageability",1,574.5,"Include"
"ZOL2021_e1","ZOL2021_e1_1","PRISON",811,1,1,"HighImageability",1,588.5,"Include"
"ZOL2021_e1","ZOL2021_e1_1","THROAT",812,1,1,"HighImageability",1,693.7,"Include"
"ZOL2021_e1","ZOL2021_e1_1","BUTTER",813,1,1,"HighImageability",4,177.5,"Include"
"ZOL2021_e1","ZOL2021_e1_1","GRAVEL",814,1,0,"HighImageability",1,893.3,"Include"
"ZOL2021_e1","ZOL2021_e1_1","SUGAR",815,1,0,"HighImageability",1,493.4,"Include"
"ZOL2021_e1","ZOL2021_e1_1","THWART",816,0,0,"LowImageability",4,227.9,"Include"
"ZOL2021_e1","ZOL2021_e1_1","ENGINE",817,1,1,"HighImageability",5,360.2,"Include"
"ZOL2021_e1","ZOL2021_e1_1","CLOWN",818,1,0,"HighImageability",1,812.9,"Include"
"ZOL2021_e1","ZOL2021_e1_1","AH",819,1,1,"LowImageability",1,446.3,"Include"
"ZOL2021_e1","ZOL2021_e1_1","OLIVE",820,1,0,"HighImageability",1,491.7,"Include"
"ZOL2021_e1","ZOL2021_e1_1","WHICH",821,1,1,"LowImageability",1,660.3,"Include"
"ZOL2021_e1","ZOL2021_e1_1","PLUG",822,1,1,"HighImageability",1,540.9,"Include"
"ZOL2021_e1","ZOL2021_e1_1","GUN",823,1,0,"HighImageability",1,463.5,"Include"
"ZOL2021_e1","ZOL2021_e1_1","TULIP",824,1,0,"HighImageability",1,484.6,"Include"
"ZOL2021_e1","ZOL2021_e1_1","MUSCLE",825,1,1,"HighImageability",6,570.8,"Include"
"ZOL2021_e1","ZOL2021_e1_1","UNREST",826,0,0,"LowImageability",1,940.3,"Include"
"ZOL2021_e1","ZOL2021_e1_1","IRIS",827,1,1,"HighImageability",6,994.1,"Include"
"ZOL2021_e1","ZOL2021_e1_1","TRUCK",828,1,0,"HighImageability",6,607.2,"Include"
"ZOL2021_e1","ZOL2021_e1_1","AVOWAL",829,1,1,"LowImageability",1,322,"Include"
"ZOL2021_e1","ZOL2021_e1_1","BORNE",830,0,0,"LowImageability",1,556.8,"Include"
"ZOL2021_e1","ZOL2021_e1_1","CAUSE",831,1,1,"LowImageability",1,762.6,"Include"
"ZOL2021_e1","ZOL2021_e1_1","BLOW",832,0,0,"LowImageability",1,2152.9,"Include"
"ZOL2021_e1","ZOL2021_e1_1","MILD",833,1,1,"LowImageability",1,787.3,"Include"
"ZOL2021_e1","ZOL2021_e1_1","KEPT",834,0,0,"LowImageability",1,469.6,"Include"
"ZOL2021_e1","ZOL2021_e1_1","FROST",835,1,0,"HighImageability",1,466.9,"Include"
"ZOL2021_e1","ZOL2021_e1_1","AMITY",836,0,0,"LowImageability",1,1111.2,"Include"
"ZOL2021_e1","ZOL2021_e1_1","HALF",837,1,1,"LowImageability",1,2468.4,"Include"
"ZOL2021_e1","ZOL2021_e1_1","WRONG",838,0,0,"LowImageability",1,598.3,"Include"
"ZOL2021_e1","ZOL2021_e1_1","SATIN",839,1,1,"HighImageability",1,1981.9,"Include"
"ZOL2021_e1","ZOL2021_e1_1","RATION",840,1,1,"LowImageability",1,303.2,"Include"
"ZOL2021_e1","ZOL2021_e1_1","AT",841,1,1,"LowImageability",1,5819.1,"Include"
"ZOL2021_e1","ZOL2021_e1_1","YACHT",842,1,0,"HighImageability",1,635.3,"Include"
"ZOL2021_e1","ZOL2021_e1_1","PEDAL",843,1,1,"HighImageability",1,759,"Include"
"ZOL2021_e1","ZOL2021_e1_1","ALL",844,0,0,"LowImageability",1,891.3,"Include"
"ZOL2021_e1","ZOL2021_e1_1","HEIR",845,0,0,"LowImageability",1,655.1,"Include"
"ZOL2021_e1","ZOL2021_e1_1","AGILE",846,0,0,"LowImageability",1,635.1,"Include"
"ZOL2021_e1","ZOL2021_e1_1","JUST",847,1,1,"LowImageability",6,1499.6,"Include"
"ZOL2021_e1","ZOL2021_e1_1","DECREE",848,1,1,"LowImageability",6,596.2,"Include"
"ZOL2021_e1","ZOL2021_e1_1","GREEDY",849,1,1,"LowImageability",6,588.1,"Include"
"ZOL2021_e1","ZOL2021_e1_1","THANE",850,0,0,"LowImageability",1,640.8,"Include"
"ZOL2021_e1","ZOL2021_e1_1","CAUSE",851,1,1,"LowImageability",1,711.3,"Include"
"ZOL2021_e1","ZOL2021_e1_1","BANDIT",852,1,1,"HighImageability",6,777,"Include"
"ZOL2021_e1","ZOL2021_e1_1","DRINK",853,1,0,"HighImageability",1,768.1,"Include"
"ZOL2021_e1","ZOL2021_e1_1","COW",854,1,0,"HighImageability",6,705.4,"Include"
"ZOL2021_e1","ZOL2021_e1_1","LIAR",855,1,1,"LowImageability",6,521.7,"Include"
"ZOL2021_e1","ZOL2021_e1_1","LAST",856,0,0,"LowImageability",1,516.1,"Include"
"ZOL2021_e1","ZOL2021_e1_1","RAPID",857,1,1,"LowImageability",1,501,"Include"
"ZOL2021_e1","ZOL2021_e1_1","MAKE",858,0,0,"LowImageability",1,468.1,"Include"
"ZOL2021_e1","ZOL2021_e1_1","ALKALI",859,1,1,"LowImageability",6,883.3,"Include"
"ZOL2021_e1","ZOL2021_e1_1","GENIUS",860,0,0,"LowImageability",6,743.1,"Include"
"ZOL2021_e1","ZOL2021_e1_1","VISION",861,0,0,"LowImageability",1,4264,"Include"
"ZOL2021_e1","ZOL2021_e1_1","PEARL",862,1,0,"HighImageability",1,595.8,"Include"
"ZOL2021_e1","ZOL2021_e1_1","PARK",863,1,1,"HighImageability",1,686.7,"Include"
"ZOL2021_e1","ZOL2021_e1_1","POT",864,1,1,"HighImageability",1,920.7,"Include"
"ZOL2021_e1","ZOL2021_e1_1","DREARY",865,0,0,"LowImageability",1,644.1,"Include"
"ZOL2021_e1","ZOL2021_e1_1","CANOE",866,1,0,"HighImageability",1,1106.4,"Include"
"ZOL2021_e1","ZOL2021_e1_1","MOTH",867,1,1,"HighImageability",1,886.7,"Include"
"ZOL2021_e1","ZOL2021_e1_1","REWARD",868,1,1,"LowImageability",6,734,"Include"
"ZOL2021_e1","ZOL2021_e1_1","OKAY",869,0,0,"LowImageability",1,727.6,"Include"
"ZOL2021_e1","ZOL2021_e1_1","COTTON",870,1,1,"HighImageability",1,532.5,"Include"
"ZOL2021_e1","ZOL2021_e1_1","SALOON",871,1,0,"HighImageability",1,723,"Include"
"ZOL2021_e1","ZOL2021_e1_1","CHAPEL",872,1,0,"HighImageability",1,688.1,"Include"
"ZOL2021_e1","ZOL2021_e1_1","TOW",873,1,1,"LowImageability",1,698.2,"Include"
"ZOL2021_e1","ZOL2021_e1_1","BUBBLE",874,1,1,"HighImageability",6,1967.6,"Include"
"ZOL2021_e1","ZOL2021_e1_1","THOSE",875,0,0,"LowImageability",1,937.1,"Include"
"ZOL2021_e1","ZOL2021_e1_1","HARDLY",876,1,1,"LowImageability",6,2504.6,"Include"
"ZOL2021_e1","ZOL2021_e1_1","WEAPON",877,1,1,"HighImageability",1,2132.8,"Include"
"ZOL2021_e1","ZOL2021_e1_1","HOUND",878,1,0,"HighImageability",1,1585.3,"Include"
"ZOL2021_e1","ZOL2021_e1_1","GRAVEL",879,1,0,"HighImageability",1,1614.6,"Include"
"ZOL2021_e1","ZOL2021_e1_1","KNOB",880,1,1,"HighImageability",1,1745.1,"Include"
"ZOL2021_e1","ZOL2021_e1_1","CHAIR",881,1,0,"HighImageability",1,1645.9,"Include"
"ZOL2021_e1","ZOL2021_e1_1","RITUAL",882,0,0,"LowImageability",1,694.5,"Include"
"ZOL2021_e1","ZOL2021_e1_1","SUFFIX",883,1,1,"LowImageability",1,818.1,"Include"
"ZOL2021_e1","ZOL2021_e1_1","DOLL",884,1,1,"HighImageability",1,409.1,"Include"
"ZOL2021_e1","ZOL2021_e1_1","NOPE",885,0,0,"LowImageability",1,720.8,"Include"
"ZOL2021_e1","ZOL2021_e1_1","CURB",886,1,1,"HighImageability",6,1004.6,"Include"
"ZOL2021_e1","ZOL2021_e1_1","BOY",887,1,1,"HighImageability",1,828.7,"Include"
"ZOL2021_e1","ZOL2021_e1_1","FRAUD",888,0,0,"LowImageability",1,643.5,"Include"
"ZOL2021_e1","ZOL2021_e1_1","ENGINE",889,1,1,"HighImageability",1,1569.4,"Include"
"ZOL2021_e1","ZOL2021_e1_1","UPKEEP",890,0,0,"LowImageability",1,595.2,"Include"
"ZOL2021_e1","ZOL2021_e1_1","BOW",891,1,0,"HighImageability",1,1100.6,"Include"
"ZOL2021_e1","ZOL2021_e1_1","GRAPE",892,1,1,"HighImageability",1,1065.3,"Include"
"ZOL2021_e1","ZOL2021_e1_1","WHERRY",893,1,1,"LowImageability",6,794,"Include"
"ZOL2021_e1","ZOL2021_e1_1","ZIPPER",894,1,0,"HighImageability",1,2485.4,"Include"
"ZOL2021_e1","ZOL2021_e1_1","SCAB",895,1,1,"HighImageability",1,646.6,"Include"
"ZOL2021_e1","ZOL2021_e1_1","TIME",896,0,0,"LowImageability",1,1484.5,"Include"
"ZOL2021_e1","ZOL2021_e1_1","FAN",897,1,1,"HighImageability",1,2706.7,"Include"
"ZOL2021_e1","ZOL2021_e1_1","SNAP",898,0,0,"LowImageability",1,4420.5,"Include"
"ZOL2021_e1","ZOL2021_e1_1","THUMB",899,1,0,"HighImageability",1,2185.9,"Include"
"ZOL2021_e1","ZOL2021_e1_1","EMPIRE",900,1,1,"LowImageability",1,947.6,"Include"
"ZOL2021_e1","ZOL2021_e1_1","ROOT",901,1,0,"HighImageability",1,1021,"Include"
"ZOL2021_e1","ZOL2021_e1_1","DAD",902,1,0,"HighImageability",1,856.7,"Include"
"ZOL2021_e1","ZOL2021_e1_1","MISTER",903,1,1,"LowImageability",1,625.7,"Include"
"ZOL2021_e1","ZOL2021_e1_1","PRISON",904,1,0,"HighImageability",1,574.2,"Include"
"ZOL2021_e1","ZOL2021_e1_1","JIBE",905,0,0,"LowImageability",1,623.5,"Include"
"ZOL2021_e1","ZOL2021_e1_1","BRIBE",906,1,1,"LowImageability",6,1710.6,"Include"
"ZOL2021_e1","ZOL2021_e1_1","AN",907,1,1,"LowImageability",1,1057.2,"Include"
"ZOL2021_e1","ZOL2021_e1_1","DIADEM",908,0,0,"LowImageability",1,866,"Include"
"ZOL2021_e1","ZOL2021_e1_1","SORROW",909,1,1,"LowImageability",1,612.3,"Include"
"ZOL2021_e1","ZOL2021_e1_1","HARP",910,1,1,"HighImageability",6,727.6,"Include"
"ZOL2021_e1","ZOL2021_e1_1","WISH",911,1,1,"LowImageability",1,835.5,"Include"
"ZOL2021_e1","ZOL2021_e1_1","APT",912,0,0,"LowImageability",1,857.6,"Include"
"ZOL2021_e1","ZOL2021_e1_1","VANITY",913,0,0,"LowImageability",1,1349.2,"Include"
"ZOL2021_e1","ZOL2021_e1_1","SALE",914,0,0,"LowImageability",1,855.4,"Include"
"ZOL2021_e1","ZOL2021_e1_1","OF",915,0,0,"LowImageability",1,559.2,"Include"
"ZOL2021_e1","ZOL2021_e1_1","BATTLE",916,1,1,"HighImageability",1,832.7,"Include"
"ZOL2021_e1","ZOL2021_e1_1","SMOOTH",917,1,1,"LowImageability",1,1273,"Include"
"ZOL2021_e1","ZOL2021_e1_1","EXCUSE",918,1,1,"LowImageability",6,668.8,"Include"
"ZOL2021_e1","ZOL2021_e1_1","SPADE",919,1,1,"HighImageability",6,545.8,"Include"
"ZOL2021_e1","ZOL2021_e1_1","IGNORE",920,0,0,"LowImageability",1,713.8,"Include"
"ZOL2021_e1","ZOL2021_e1_1","SMART",921,1,1,"LowImageability",1,2987.9,"Include"
"ZOL2021_e1","ZOL2021_e1_1","CRANE",922,1,1,"HighImageability",1,1867.7,"Include"
"ZOL2021_e1","ZOL2021_e1_1","RUSH",923,1,1,"LowImageability",1,626.1,"Include"
"ZOL2021_e1","ZOL2021_e1_1","BYRE",924,1,1,"LowImageability",6,976.6,"Include"
"ZOL2021_e1","ZOL2021_e1_1","LONE",925,0,0,"LowImageability",1,765.1,"Include"
"ZOL2021_e1","ZOL2021_e1_1","CLINCH",926,1,1,"LowImageability",1,608.9,"Include"
"ZOL2021_e1","ZOL2021_e1_1","BOLT",927,1,0,"HighImageability",1,655.3,"Include"
"ZOL2021_e1","ZOL2021_e1_1","THEFT",928,1,1,"LowImageability",6,1085.7,"Include"
"ZOL2021_e1","ZOL2021_e1_1","PALM",929,1,1,"HighImageability",1,812.4,"Include"
"ZOL2021_e1","ZOL2021_e1_1","FLEA",930,1,0,"HighImageability",1,479.7,"Include"
"ZOL2021_e1","ZOL2021_e1_1","ANSWER",931,0,0,"LowImageability",1,548.4,"Include"
"ZOL2021_e1","ZOL2021_e1_1","GRIEF",932,0,0,"LowImageability",1,502.3,"Include"
"ZOL2021_e1","ZOL2021_e1_1","WALLET",933,1,0,"HighImageability",1,934.8,"Include"
"ZOL2021_e1","ZOL2021_e1_1","MEADOW",934,1,1,"HighImageability",1,502.7,"Include"
"ZOL2021_e1","ZOL2021_e1_1","STOOL",935,1,0,"HighImageability",1,602.3,"Include"
"ZOL2021_e1","ZOL2021_e1_1","HAND",936,1,1,"HighImageability",1,533.3,"Include"
"ZOL2021_e1","ZOL2021_e1_1","SWORD",937,1,1,"HighImageability",1,657.4,"Include"
"ZOL2021_e1","ZOL2021_e1_1","INNATE",938,0,0,"LowImageability",1,531.9,"Include"
"ZOL2021_e1","ZOL2021_e1_1","MORE",939,0,0,"LowImageability",1,551.1,"Include"
"ZOL2021_e1","ZOL2021_e1_1","BAT",940,1,0,"HighImageability",1,490.2,"Include"
"ZOL2021_e1","ZOL2021_e1_1","LIKE",941,0,0,"LowImageability",1,1365,"Include"
"ZOL2021_e1","ZOL2021_e1_1","NAVE",942,0,0,"LowImageability",1,2494.3,"Include"
"ZOL2021_e1","ZOL2021_e1_1","HOOD",943,1,0,"HighImageability",1,3570.8,"Include"
"ZOL2021_e1","ZOL2021_e1_1","LESS",944,1,1,"LowImageability",1,497,"Include"
"ZOL2021_e1","ZOL2021_e1_1","DOOR",945,1,1,"HighImageability",1,516.7,"Include"
"ZOL2021_e1","ZOL2021_e1_1","BERRY",946,1,1,"HighImageability",1,513,"Include"
"ZOL2021_e1","ZOL2021_e1_1","FOOT",947,1,0,"HighImageability",1,2124.8,"Include"
"ZOL2021_e1","ZOL2021_e1_1","PROXY",948,1,1,"LowImageability",1,424.4,"Include"
"ZOL2021_e1","ZOL2021_e1_1","WANT",949,1,1,"LowImageability",1,589.3,"Include"
"ZOL2021_e1","ZOL2021_e1_1","HAY",950,1,1,"HighImageability",1,509,"Include"
"ZOL2021_e1","ZOL2021_e1_1","PIG",951,1,0,"HighImageability",1,1065.2,"Include"
"ZOL2021_e1","ZOL2021_e1_1","SPLIT",952,0,0,"LowImageability",1,760.3,"Include"
"ZOL2021_e1","ZOL2021_e1_1","DEAR",953,0,0,"LowImageability",2,0.7,"Include"
"ZOL2021_e1","ZOL2021_e1_1","JAW",954,1,1,"HighImageability",3,490.1,"Include"
"ZOL2021_e1","ZOL2021_e1_1","HABIT",955,0,0,"LowImageability",2,1712.5,"Include"
"ZOL2021_e1","ZOL2021_e1_1","PLAIT",956,0,0,"LowImageability",4,620.1,"Include"
"ZOL2021_e1","ZOL2021_e1_1","HOOF",957,1,1,"HighImageability",2,642.6,"Include"
"ZOL2021_e1","ZOL2021_e1_1","RICH",958,1,1,"LowImageability",3,2423.3,"Include"
"ZOL2021_e1","ZOL2021_e1_1","SUE",959,0,0,"LowImageability",3,8216.1,"Include"
"ZOL2021_e1","ZOL2021_e1_1","PULPIT",960,1,1,"HighImageability",2,3501.3,"Include"
"ZOL2021_e1","ZOL2021_e1_1","ROTE",961,1,1,"LowImageability",1,1209.6,"Include"
"ZOL2021_e1","ZOL2021_e1_1","FORK",962,1,0,"HighImageability",1,14072.5,"Include"
"ZOL2021_e1","ZOL2021_e1_1","FLASK",963,1,0,"HighImageability",1,1642.1,"Include"
"ZOL2021_e1","ZOL2021_e1_1","FOAM",964,1,0,"HighImageability",4,737.6,"Include"
"ZOL2021_e1","ZOL2021_e1_1","AUNT",965,1,1,"HighImageability",2,2917.5,"Include"
"ZOL2021_e1","ZOL2021_e1_1","GRADE",966,0,0,"LowImageability",1,3243.5,"Include"
"ZOL2021_e1","ZOL2021_e1_1","PIGEON",967,1,0,"HighImageability",1,14507.6,"Include"
"ZOL2021_e1","ZOL2021_e1_1","REAPER",968,1,1,"LowImageability",2,2020.1,"Include"
"ZOL2021_e1","ZOL2021_e1_1","UMPIRE",969,1,0,"HighImageability",2,4761.5,"Include"
"ZOL2021_e1","ZOL2021_e1_1","CASH",970,1,1,"HighImageability",1,455.4,"Include"
"ZOL2021_e1","ZOL2021_e1_1","TIE",971,1,1,"HighImageability",1,712.8,"Include"
"ZOL2021_e1","ZOL2021_e1_1","CALM",972,1,1,"LowImageability",2,476.1,"Include"
"ZOL2021_e1","ZOL2021_e1_1","OWN",973,0,0,"LowImageability",2,472.1,"Include"
"ZOL2021_e1","ZOL2021_e1_1","GATE",974,1,1,"HighImageability",4,447.8,"Include"
"ZOL2021_e1","ZOL2021_e1_1","MUST",975,0,0,"LowImageability",1,3182.4,"Include"
"ZOL2021_e1","ZOL2021_e1_1","TIGER",976,1,1,"HighImageability",1,10077.9,"Include"
"ZOL2021_e1","ZOL2021_e1_1","IDIOM",977,1,1,"LowImageability",2,1279.1,"Include"
"ZOL2021_e1","ZOL2021_e1_1","PEN",978,1,0,"HighImageability",1,1364.7,"Include"
"ZOL2021_e1","ZOL2021_e1_1","IF",979,1,1,"LowImageability",4,3064.1,"Include"
"ZOL2021_e1","ZOL2021_e1_1","SADDLE",980,1,0,"HighImageability",1,1932.5,"Include"
"ZOL2021_e1","ZOL2021_e1_1","RATAL",981,1,1,"LowImageability",1,989.3,"Include"
"ZOL2021_e1","ZOL2021_e1_1","WIN",982,1,1,"LowImageability",1,533.9,"Include"
"ZOL2021_e1","ZOL2021_e1_1","KINDLE",983,0,0,"LowImageability",6,1145.3,"Include"
"ZOL2021_e1","ZOL2021_e1_1","ZONE",984,0,0,"LowImageability",2,642.4,"Include"
"ZOL2021_e1","ZOL2021_e1_1","WINDOW",985,1,0,"HighImageability",4,228.7,"Include"
"ZOL2021_e1","ZOL2021_e1_1","JET",986,1,0,"HighImageability",4,393.9,"Include"
"ZOL2021_e1","ZOL2021_e1_1","ADMIRE",987,0,0,"LowImageability",1,460,"Include"
"ZOL2021_e1","ZOL2021_e1_1","FACE",988,1,0,"HighImageability",2,257.3,"Include"
"ZOL2021_e1","ZOL2021_e1_1","TULIP",989,1,1,"HighImageability",2,465.8,"Include"
"ZOL2021_e1","ZOL2021_e1_1","THEY",990,1,1,"LowImageability",1,482.7,"Include"
"ZOL2021_e1","ZOL2021_e1_1","RANCID",991,0,0,"LowImageability",2,767.9,"Include"
"ZOL2021_e1","ZOL2021_e1_1","COOKIE",992,1,0,"HighImageability",3,755.4,"Include"
"ZOL2021_e1","ZOL2021_e1_1","BREAD",993,1,1,"HighImageability",4,782.9,"Include"
"ZOL2021_e1","ZOL2021_e1_1","BLAND",994,0,0,"LowImageability",1,471,"Include"
"ZOL2021_e1","ZOL2021_e1_1","MENACE",995,0,0,"LowImageability",2,601.9,"Include"
"ZOL2021_e1","ZOL2021_e1_1","NEXT",996,1,1,"LowImageability",4,249.9,"Include"
"ZOL2021_e1","ZOL2021_e1_1","ABYSS",997,1,1,"LowImageability",5,491.5,"Include"
"ZOL2021_e1","ZOL2021_e1_1","HOSE",998,1,1,"HighImageability",1,759.2,"Include"
"ZOL2021_e1","ZOL2021_e1_1","HATRED",999,1,1,"LowImageability",5,638.7,"Include"
"ZOL2021_e1","ZOL2021_e1_1","BOMB",1000,1,1,"HighImageability",2,496.4,"Include"
"ZOL2021_e1","ZOL2021_e1_1","VALUE",1001,0,0,"LowImageability",1,2308.1,"Include"
"ZOL2021_e1","ZOL2021_e1_1","ACCORD",1002,1,1,"LowImageability",1,492.2,"Include"
"ZOL2021_e1","ZOL2021_e1_1","OAR",1003,1,0,"HighImageability",1,512.5,"Include"
"ZOL2021_e1","ZOL2021_e1_1","TUBE",1004,1,1,"HighImageability",3,1228.6,"Include"
"ZOL2021_e1","ZOL2021_e1_1","WATT",1005,0,0,"LowImageability",3,658.5,"Include"
"ZOL2021_e1","ZOL2021_e1_1","DISC",1006,1,1,"HighImageability",3,939.4,"Include"
"ZOL2021_e1","ZOL2021_e1_1","WALNUT",1007,1,1,"HighImageability",6,753.2,"Include"
"ZOL2021_e1","ZOL2021_e1_1","NAPKIN",1008,1,0,"HighImageability",3,650.3,"Include"
"ZOL2021_e1","ZOL2021_e1_1","PET",1009,1,1,"HighImageability",3,536.9,"Include"
"ZOL2021_e1","ZOL2021_e1_1","EXCISE",1010,1,1,"LowImageability",3,991.2,"Include"
"ZOL2021_e1","ZOL2021_e1_1","SINK",1011,1,1,"HighImageability",2,619.7,"Include"
"ZOL2021_e1","ZOL2021_e1_1","RUST",1012,1,0,"HighImageability",2,614.6,"Include"
"ZOL2021_e1","ZOL2021_e1_1","BARN",1013,1,1,"HighImageability",3,1872.1,"Include"
"ZOL2021_e1","ZOL2021_e1_1","PLUM",1014,1,0,"HighImageability",2,1817.8,"Include"
"ZOL2021_e1","ZOL2021_e1_1","GUY",1015,1,1,"HighImageability",2,1298.9,"Include"
"ZOL2021_e1","ZOL2021_e1_1","SURTAX",1016,0,0,"LowImageability",2,1355.3,"Include"
"ZOL2021_e1","ZOL2021_e1_1","PSALM",1017,0,0,"LowImageability",4,1844.2,"Include"
"ZOL2021_e1","ZOL2021_e1_1","POPE",1018,1,1,"HighImageability",4,676.4,"Include"
"ZOL2021_e1","ZOL2021_e1_1","SNAIL",1019,1,0,"HighImageability",2,376.6,"Include"
"ZOL2021_e1","ZOL2021_e1_1","GUN",1020,1,0,"HighImageability",2,2011.6,"Include"
"ZOL2021_e1","ZOL2021_e1_1","DOG",1021,1,0,"HighImageability",1,885.6,"Include"
"ZOL2021_e1","ZOL2021_e1_1","RATING",1022,1,1,"LowImageability",2,281.8,"Include"
"ZOL2021_e1","ZOL2021_e1_1","CAMP",1023,1,1,"HighImageability",2,998.6,"Include"
"ZOL2021_e1","ZOL2021_e1_1","BEAVER",1024,1,1,"HighImageability",6,646,"Include"
"ZOL2021_e1","ZOL2021_e1_1","RUM",1025,1,1,"HighImageability",2,730.7,"Include"
"ZOL2021_e1","ZOL2021_e1_1","LISP",1026,1,1,"LowImageability",6,726.5,"Include"
"ZOL2021_e1","ZOL2021_e1_1","SWIFT",1027,1,1,"LowImageability",6,623.8,"Include"
"ZOL2021_e1","ZOL2021_e1_1","BANNER",1028,1,1,"HighImageability",2,707.1,"Include"
"ZOL2021_e1","ZOL2021_e1_1","KNEE",1029,1,0,"HighImageability",2,749.9,"Include"
"ZOL2021_e1","ZOL2021_e1_1","FORCE",1030,0,0,"LowImageability",2,1046.8,"Include"
"ZOL2021_e1","ZOL2021_e1_1","FRUIT",1031,1,0,"HighImageability",2,477.3,"Include"
"ZOL2021_e1","ZOL2021_e1_1","TONGUE",1032,1,0,"HighImageability",6,728.9,"Include"
"ZOL2021_e1","ZOL2021_e1_1","CARROT",1033,1,0,"HighImageability",2,753.9,"Include"
"ZOL2021_e1","ZOL2021_e1_1","DECEIT",1034,0,0,"LowImageability",2,612.1,"Include"
"ZOL2021_e1","ZOL2021_e1_1","DAMAN",1035,1,1,"LowImageability",2,632,"Include"
"ZOL2021_e1","ZOL2021_e1_1","BAWL",1036,0,0,"LowImageability",2,1179,"Include"
"ZOL2021_e1","ZOL2021_e1_1","FOG",1037,1,1,"HighImageability",2,747.3,"Include"
"ZOL2021_e1","ZOL2021_e1_1","SATIN",1038,1,0,"HighImageability",2,649.2,"Include"
"ZOL2021_e1","ZOL2021_e1_1","ENOUGH",1039,0,0,"LowImageability",3,869.7,"Include"
"ZOL2021_e1","ZOL2021_e1_1","THING",1040,1,1,"LowImageability",3,851.5,"Include"
"ZOL2021_e1","ZOL2021_e1_1","LOGOS",1041,1,1,"LowImageability",1,559.8,"Include"
"ZOL2021_e1","ZOL2021_e1_1","QUAICH",1042,0,0,"LowImageability",1,177.7,"Include"
"ZOL2021_e1","ZOL2021_e1_1","CAN",1043,0,0,"LowImageability",1,566.6,"Include"
"ZOL2021_e1","ZOL2021_e1_1","STAR",1044,1,0,"HighImageability",1,1331.7,"Include"
"ZOL2021_e1","ZOL2021_e1_1","MALICE",1045,1,1,"LowImageability",6,1022.2,"Include"
"ZOL2021_e1","ZOL2021_e1_1","CUSTOM",1046,0,0,"LowImageability",1,646.4,"Include"
"ZOL2021_e1","ZOL2021_e1_1","SIMILE",1047,0,0,"LowImageability",1,986.7,"Include"
"ZOL2021_e1","ZOL2021_e1_1","CALF",1048,1,1,"HighImageability",1,539.9,"Include"
"ZOL2021_e1","ZOL2021_e1_1","KEY",1049,1,0,"HighImageability",1,590.2,"Include"
"ZOL2021_e1","ZOL2021_e1_1","CRAB",1050,1,0,"HighImageability",1,1064.5,"Include"
"ZOL2021_e1","ZOL2021_e1_1","BARREL",1051,1,1,"HighImageability",6,1605.4,"Include"
"ZOL2021_e1","ZOL2021_e1_1","CAUGHT",1052,0,0,"LowImageability",1,619.4,"Include"
"ZOL2021_e1","ZOL2021_e1_1","POCKET",1053,1,1,"HighImageability",1,549.5,"Include"
"ZOL2021_e1","ZOL2021_e1_1","BEET",1054,1,0,"HighImageability",1,1626,"Include"
"ZOL2021_e1","ZOL2021_e1_1","ALIEN",1055,1,1,"LowImageability",1,732.4,"Include"
"ZOL2021_e1","ZOL2021_e1_1","PONY",1056,1,1,"HighImageability",6,1119.6,"Include"
"ZOL2021_e1","ZOL2021_e1_1","QUILT",1057,1,0,"HighImageability",3,1487.4,"Include"
"ZOL2021_e1","ZOL2021_e1_1","SWAYED",1058,1,1,"LowImageability",3,673.6,"Include"
"ZOL2021_e1","ZOL2021_e1_1","ANIMAL",1059,1,1,"HighImageability",6,619.2,"Include"
"ZOL2021_e1","ZOL2021_e1_1","CLOCK",1060,1,1,"HighImageability",3,604.7,"Include"
"ZOL2021_e1","ZOL2021_e1_1","LAMENT",1061,1,1,"LowImageability",6,1031,"Include"
"ZOL2021_e1","ZOL2021_e1_1","NAVEL",1062,1,0,"HighImageability",1,614.6,"Include"
"ZOL2021_e1","ZOL2021_e1_1","MOTHER",1063,1,0,"HighImageability",1,549.8,"Include"
"ZOL2021_e1","ZOL2021_e1_1","HERESY",1064,0,0,"LowImageability",1,487,"Include"
"ZOL2021_e1","ZOL2021_e1_1","FIORD",1065,1,0,"HighImageability",1,772.6,"Include"
"ZOL2021_e1","ZOL2021_e1_1","SHELL",1066,1,1,"HighImageability",1,693.6,"Include"
"ZOL2021_e1","ZOL2021_e1_1","MINCE",1067,0,0,"LowImageability",1,520.1,"Include"
"ZOL2021_e1","ZOL2021_e1_1","BELL",1068,1,0,"HighImageability",6,2143.4,"Include"
"ZOL2021_e1","ZOL2021_e1_1","LAIN",1069,1,1,"LowImageability",1,896.1,"Include"
"ZOL2021_e1","ZOL2021_e1_1","BOTHER",1070,0,0,"LowImageability",1,627,"Include"
"ZOL2021_e1","ZOL2021_e1_1","VETO",1071,1,1,"LowImageability",1,703,"Include"
"ZOL2021_e1","ZOL2021_e1_1","WARN",1072,1,1,"LowImageability",1,795.4,"Include"
"ZOL2021_e1","ZOL2021_e1_1","TITLE",1073,1,1,"LowImageability",1,997.4,"Include"
"ZOL2021_e1","ZOL2021_e1_1","TROUT",1074,1,0,"HighImageability",1,1733.9,"Include"
"ZOL2021_e1","ZOL2021_e1_1","GOBLET",1075,1,1,"HighImageability",1,2009.6,"Include"
"ZOL2021_e1","ZOL2021_e1_1","THESE",1076,1,1,"LowImageability",6,990.7,"Include"
"ZOL2021_e1","ZOL2021_e1_1","GYM",1077,1,0,"HighImageability",1,790.5,"Include"
"ZOL2021_e1","ZOL2021_e1_1","SEAR",1078,0,0,"LowImageability",1,759.1,"Include"
"ZOL2021_e1","ZOL2021_e1_1","GARDEN",1079,1,1,"HighImageability",1,960.9,"Include"
"ZOL2021_e1","ZOL2021_e1_1","SHONE",1080,1,1,"LowImageability",1,478.1,"Include"
"ZOL2021_e1","ZOL2021_e1_1","TIDY",1081,0,0,"LowImageability",1,2241.2,"Include"
"ZOL2021_e1","ZOL2021_e1_1","PRIEST",1082,1,0,"HighImageability",1,547.9,"Include"
"ZOL2021_e1","ZOL2021_e1_1","BRED",1083,1,1,"LowImageability",1,494.9,"Include"
"ZOL2021_e1","ZOL2021_e1_1","MIRROR",1084,1,1,"HighImageability",6,925.2,"Include"
"ZOL2021_e1","ZOL2021_e1_1","CORAL",1085,1,0,"HighImageability",6,1873.3,"Include"
"ZOL2021_e1","ZOL2021_e1_1","APATHY",1086,1,1,"LowImageability",1,734.4,"Include"
"ZOL2021_e1","ZOL2021_e1_1","SELL",1087,0,0,"LowImageability",1,799.8,"Include"
"ZOL2021_e1","ZOL2021_e1_1","CLOTH",1088,1,0,"HighImageability",1,1153.5,"Include"
"ZOL2021_e1","ZOL2021_e1_1","PUDDLE",1089,1,0,"HighImageability",1,4168.8,"Include"
"ZOL2021_e1","ZOL2021_e1_1","HOTEL",1090,1,0,"HighImageability",1,1025.8,"Include"
"ZOL2021_e1","ZOL2021_e1_1","WREST",1091,1,1,"LowImageability",1,1407.4,"Include"
"ZOL2021_e1","ZOL2021_e1_1","LIVER",1092,1,1,"HighImageability",1,1074.2,"Include"
"ZOL2021_e1","ZOL2021_e1_1","TREATY",1093,1,1,"LowImageability",1,505.3,"Include"
"ZOL2021_e1","ZOL2021_e1_1","SO",1094,0,0,"LowImageability",1,567.6,"Include"
"ZOL2021_e1","ZOL2021_e1_1","BIN",1095,1,1,"HighImageability",1,808.2,"Include"
"ZOL2021_e1","ZOL2021_e1_1","DENSE",1096,0,0,"LowImageability",1,616.6,"Include"
"ZOL2021_e1","ZOL2021_e1_1","WHEAT",1097,1,0,"HighImageability",1,408.3,"Include"
"ZOL2021_e1","ZOL2021_e1_1","JUPON",1098,1,1,"LowImageability",1,509.5,"Include"
"ZOL2021_e1","ZOL2021_e1_1","STOVE",1099,1,1,"HighImageability",1,349.6,"Include"
"ZOL2021_e1","ZOL2021_e1_1","MISS",1100,1,1,"LowImageability",1,587.5,"Include"
"ZOL2021_e1","ZOL2021_e1_1","PERRY",1101,0,0,"LowImageability",6,1870.5,"Include"
"ZOL2021_e1","ZOL2021_e1_1","LEAST",1102,1,1,"LowImageability",1,616.9,"Include"
"ZOL2021_e1","ZOL2021_e1_1","APPLE",1103,1,0,"HighImageability",1,1491.5,"Include"
"ZOL2021_e1","ZOL2021_e1_1","OCEAN",1104,1,1,"HighImageability",1,541.5,"Include"
"ZOL2021_e1","ZOL2021_e1_1","MAIDEN",1105,1,0,"HighImageability",1,447.3,"Include"
"ZOL2021_e1","ZOL2021_e1_1","CLEAN",1106,0,0,"LowImageability",1,412.5,"Include"
"ZOL2021_e1","ZOL2021_e1_1","ITS",1107,1,1,"LowImageability",1,425.5,"Include"
"ZOL2021_e1","ZOL2021_e1_1","STRIPE",1108,1,1,"HighImageability",1,504.8,"Include"
"ZOL2021_e1","ZOL2021_e1_1","ICE",1109,1,1,"HighImageability",1,407.5,"Include"
"ZOL2021_e1","ZOL2021_e1_1","LEMON",1110,1,0,"HighImageability",1,641.6,"Include"
"ZOL2021_e1","ZOL2021_e1_1","TENNIS",1111,1,1,"HighImageability",1,910.6,"Include"
"ZOL2021_e1","ZOL2021_e1_1","LIMN",1112,1,1,"LowImageability",1,461.1,"Include"
"ZOL2021_e1","ZOL2021_e1_1","PLANT",1113,1,0,"HighImageability",1,424.2,"Include"
"ZOL2021_e1","ZOL2021_e1_1","NEUTER",1114,0,0,"LowImageability",1,579.1,"Include"
"ZOL2021_e1","ZOL2021_e1_1","CEMENT",1115,1,0,"HighImageability",1,468.1,"Include"
"ZOL2021_e1","ZOL2021_e1_1","BAG",1116,1,0,"HighImageability",1,629,"Include"
"ZOL2021_e1","ZOL2021_e1_1","SHIRT",1117,1,1,"HighImageability",1,680.1,"Include"
"ZOL2021_e1","ZOL2021_e1_1","SHOW",1118,1,1,"LowImageability",1,635,"Include"
"ZOL2021_e1","ZOL2021_e1_1","LEES",1119,1,1,"LowImageability",1,873.4,"Include"
"ZOL2021_e1","ZOL2021_e1_1","QUICK",1120,0,0,"LowImageability",1,615.5,"Include"
"ZOL2021_e1","ZOL2021_e1_10","RESULT",1,1,1,"LowImageability",3,11738.7,"Include"
"ZOL2021_e1","ZOL2021_e1_10","SPREE",2,0,0,"LowImageability",6,3942.9,"Include"
"ZOL2021_e1","ZOL2021_e1_10","WIRE",3,1,1,"HighImageability",6,5132.2,"Include"
"ZOL2021_e1","ZOL2021_e1_10","LEAN",4,0,0,"LowImageability",3,6530.2,"Include"
"ZOL2021_e1","ZOL2021_e1_10","RAID",5,1,1,"LowImageability",6,1122,"Include"
"ZOL2021_e1","ZOL2021_e1_10","REGION",6,1,1,"LowImageability",6,2247,"Include"
"ZOL2021_e1","ZOL2021_e1_10","LOSS",7,0,0,"LowImageability",3,4224.2,"Include"
"ZOL2021_e1","ZOL2021_e1_10","LIKE",8,0,0,"LowImageability",3,2948.1,"Include"
"ZOL2021_e1","ZOL2021_e1_10","HEDGE",9,1,1,"HighImageability",6,932.1,"Include"
"ZOL2021_e1","ZOL2021_e1_10","BEAU",10,0,0,"LowImageability",1,2850,"Include"
"ZOL2021_e1","ZOL2021_e1_10","GIRDLE",11,1,1,"HighImageability",6,989.4,"Include"
"ZOL2021_e1","ZOL2021_e1_10","HAND",12,1,1,"HighImageability",4,7526.4,"Include"
"ZOL2021_e1","ZOL2021_e1_10","MULE",13,1,0,"HighImageability",1,2964.5,"Include"
"ZOL2021_e1","ZOL2021_e1_10","MONKEY",14,1,0,"HighImageability",1,1028.2,"Include"
"ZOL2021_e1","ZOL2021_e1_10","USUAL",15,0,0,"LowImageability",1,859.6,"Include"
"ZOL2021_e1","ZOL2021_e1_10","MIMIC",16,1,1,"LowImageability",6,7804.9,"Include"
"ZOL2021_e1","ZOL2021_e1_10","WAX",17,1,0,"HighImageability",1,1267.4,"Include"
"ZOL2021_e1","ZOL2021_e1_10","GROWN",18,0,0,"LowImageability",1,1555.6,"Include"
"ZOL2021_e1","ZOL2021_e1_10","SIGHT",19,1,1,"LowImageability",3,3858.1,"Include"
"ZOL2021_e1","ZOL2021_e1_10","CORK",20,1,1,"HighImageability",4,4048.9,"Include"
"ZOL2021_e1","ZOL2021_e1_10","PUT",21,1,1,"LowImageability",6,4094.6,"Include"
"ZOL2021_e1","ZOL2021_e1_10","GOOF",22,1,1,"LowImageability",6,922.4,"Include"
"ZOL2021_e1","ZOL2021_e1_10","FLAIR",23,0,0,"LowImageability",1,950.3,"Include"
"ZOL2021_e1","ZOL2021_e1_10","TWIG",24,1,0,"HighImageability",1,765.8,"Include"
"ZOL2021_e1","ZOL2021_e1_10","MOTHER",25,1,1,"HighImageability",6,2185.9,"Include"
"ZOL2021_e1","ZOL2021_e1_10","CELLAR",26,1,0,"HighImageability",1,711.7,"Include"
"ZOL2021_e1","ZOL2021_e1_10","RHUMB",27,0,0,"LowImageability",1,572.3,"Include"
"ZOL2021_e1","ZOL2021_e1_10","SOLD",28,0,0,"LowImageability",1,844.4,"Include"
"ZOL2021_e1","ZOL2021_e1_10","COUNT",29,0,0,"LowImageability",1,634.6,"Include"
"ZOL2021_e1","ZOL2021_e1_10","LINKS",30,0,0,"LowImageability",1,573.3,"Include"
"ZOL2021_e1","ZOL2021_e1_10","KEPT",31,1,1,"LowImageability",6,6611.8,"Include"
"ZOL2021_e1","ZOL2021_e1_10","MELEE",32,1,1,"LowImageability",6,838.7,"Include"
"ZOL2021_e1","ZOL2021_e1_10","LADY",33,1,1,"HighImageability",6,967.8,"Include"
"ZOL2021_e1","ZOL2021_e1_10","SAID",34,0,0,"LowImageability",1,1445.9,"Include"
"ZOL2021_e1","ZOL2021_e1_10","ROBIN",35,1,1,"HighImageability",6,1325.7,"Include"
"ZOL2021_e1","ZOL2021_e1_10","CRYPT",36,1,0,"HighImageability",3,6505.8,"Include"
"ZOL2021_e1","ZOL2021_e1_10","TROUT",37,1,1,"HighImageability",6,5848.7,"Include"
"ZOL2021_e1","ZOL2021_e1_10","SANDAL",38,1,1,"HighImageability",6,8322.2,"Include"
"ZOL2021_e1","ZOL2021_e1_10","ALSO",39,0,0,"LowImageability",1,747.1,"Include"
"ZOL2021_e1","ZOL2021_e1_10","DUAL",40,1,1,"LowImageability",6,6371.5,"Include"
"ZOL2021_e1","ZOL2021_e1_10","BRAVE",41,1,1,"LowImageability",6,2358.9,"Include"
"ZOL2021_e1","ZOL2021_e1_10","WASTE",42,0,0,"LowImageability",1,3109.6,"Include"
"ZOL2021_e1","ZOL2021_e1_10","TAPER",43,1,1,"LowImageability",6,2848.7,"Include"
"ZOL2021_e1","ZOL2021_e1_10","CRY",44,0,0,"LowImageability",1,796.1,"Include"
"ZOL2021_e1","ZOL2021_e1_10","TRUISM",45,1,1,"LowImageability",6,12289.5,"Include"
"ZOL2021_e1","ZOL2021_e1_10","TEETH",46,1,0,"HighImageability",1,765.5,"Include"
"ZOL2021_e1","ZOL2021_e1_10","NEUTER",47,0,0,"LowImageability",1,742.3,"Include"
"ZOL2021_e1","ZOL2021_e1_10","BORDER",48,1,1,"LowImageability",6,6265.5,"Include"
"ZOL2021_e1","ZOL2021_e1_10","HEAR",49,0,0,"LowImageability",1,916.7,"Include"
"ZOL2021_e1","ZOL2021_e1_10","HARSH",50,0,0,"LowImageability",1,694.2,"Include"
"ZOL2021_e1","ZOL2021_e1_10","BALLOT",51,1,1,"LowImageability",6,852,"Include"
"ZOL2021_e1","ZOL2021_e1_10","TRASH",52,1,1,"HighImageability",6,1757.1,"Include"
"ZOL2021_e1","ZOL2021_e1_10","ANIMAL",53,1,0,"HighImageability",1,923.2,"Include"
"ZOL2021_e1","ZOL2021_e1_10","HEART",54,1,0,"HighImageability",3,4118,"Include"
"ZOL2021_e1","ZOL2021_e1_10","AVOWAL",55,1,1,"LowImageability",6,834.7,"Include"
"ZOL2021_e1","ZOL2021_e1_10","ASHEN",56,0,0,"LowImageability",1,3773.9,"Include"
"ZOL2021_e1","ZOL2021_e1_10","PITY",57,1,1,"LowImageability",6,4852.7,"Include"
"ZOL2021_e1","ZOL2021_e1_10","FORK",58,1,0,"HighImageability",1,672.2,"Include"
"ZOL2021_e1","ZOL2021_e1_10","POLYP",59,1,1,"LowImageability",6,2353.6,"Include"
"ZOL2021_e1","ZOL2021_e1_10","CYLIX",60,1,1,"LowImageability",6,5336.6,"Include"
"ZOL2021_e1","ZOL2021_e1_10","TURTLE",61,1,1,"HighImageability",6,2947.4,"Include"
"ZOL2021_e1","ZOL2021_e1_10","GRAVEL",62,1,1,"HighImageability",6,5442.3,"Include"
"ZOL2021_e1","ZOL2021_e1_10","POOL",63,1,0,"HighImageability",1,1484.3,"Include"
"ZOL2021_e1","ZOL2021_e1_10","ORIGIN",64,1,1,"LowImageability",6,5434.3,"Include"
"ZOL2021_e1","ZOL2021_e1_10","TENNIS",65,1,1,"HighImageability",1,1956.2,"Include"
"ZOL2021_e1","ZOL2021_e1_10","PROOF",66,1,1,"LowImageability",6,9356.9,"Include"
"ZOL2021_e1","ZOL2021_e1_10","BRA",67,1,0,"HighImageability",1,828.4,"Include"
"ZOL2021_e1","ZOL2021_e1_10","CLOUD",68,1,0,"HighImageability",1,713,"Include"
"ZOL2021_e1","ZOL2021_e1_10","GONE",69,0,0,"LowImageability",1,787.5,"Include"
"ZOL2021_e1","ZOL2021_e1_10","JARGON",70,0,0,"LowImageability",1,628.3,"Include"
"ZOL2021_e1","ZOL2021_e1_10","PEACH",71,1,1,"HighImageability",6,7236.3,"Include"
"ZOL2021_e1","ZOL2021_e1_10","NATION",72,0,0,"LowImageability",1,1590,"Include"
"ZOL2021_e1","ZOL2021_e1_10","ROD",73,1,0,"HighImageability",3,3290.9,"Include"
"ZOL2021_e1","ZOL2021_e1_10","DREARY",74,0,0,"LowImageability",1,1254.8,"Include"
"ZOL2021_e1","ZOL2021_e1_10","REPAIR",75,0,0,"LowImageability",3,1918.2,"Include"
"ZOL2021_e1","ZOL2021_e1_10","FRANK",76,1,1,"LowImageability",6,837,"Include"
"ZOL2021_e1","ZOL2021_e1_10","KNOB",77,1,0,"HighImageability",3,2750.5,"Include"
"ZOL2021_e1","ZOL2021_e1_10","DRAB",78,1,1,"LowImageability",3,1110,"Include"
"ZOL2021_e1","ZOL2021_e1_10","PHONE",79,1,1,"HighImageability",6,8958.8,"Include"
"ZOL2021_e1","ZOL2021_e1_10","BLEAK",80,1,1,"LowImageability",6,10047.2,"Include"
"ZOL2021_e1","ZOL2021_e1_10","AT",81,0,0,"LowImageability",1,4466.7,"Include"
"ZOL2021_e1","ZOL2021_e1_10","HALVE",82,0,0,"LowImageability",1,802.7,"Include"
"ZOL2021_e1","ZOL2021_e1_10","DEFEAT",83,1,1,"LowImageability",6,7730.9,"Include"
"ZOL2021_e1","ZOL2021_e1_10","POOR",84,0,0,"LowImageability",4,6670.5,"Include"
"ZOL2021_e1","ZOL2021_e1_10","RANCID",85,1,1,"LowImageability",6,1122.5,"Include"
"ZOL2021_e1","ZOL2021_e1_10","ONE",86,0,0,"LowImageability",1,3716.8,"Include"
"ZOL2021_e1","ZOL2021_e1_10","OTTER",87,1,0,"HighImageability",1,693.9,"Include"
"ZOL2021_e1","ZOL2021_e1_10","EMPIRE",88,1,1,"LowImageability",6,874.5,"Include"
"ZOL2021_e1","ZOL2021_e1_10","DITCH",89,1,0,"HighImageability",1,1569.8,"Include"
"ZOL2021_e1","ZOL2021_e1_10","LEAF",90,1,1,"HighImageability",6,698,"Include"
"ZOL2021_e1","ZOL2021_e1_10","SELL",91,1,1,"LowImageability",6,844.4,"Include"
"ZOL2021_e1","ZOL2021_e1_10","JUPON",92,1,1,"LowImageability",6,1028.7,"Include"
"ZOL2021_e1","ZOL2021_e1_10","MELT",93,0,0,"LowImageability",1,2001.5,"Include"
"ZOL2021_e1","ZOL2021_e1_10","TULIP",94,1,0,"HighImageability",1,998.8,"Include"
"ZOL2021_e1","ZOL2021_e1_10","RUSH",95,1,1,"LowImageability",6,818.3,"Include"
"ZOL2021_e1","ZOL2021_e1_10","SNUB",96,0,0,"LowImageability",1,1973.6,"Include"
"ZOL2021_e1","ZOL2021_e1_10","WHIP",97,1,1,"HighImageability",6,4629.4,"Include"
"ZOL2021_e1","ZOL2021_e1_10","POT",98,1,1,"HighImageability",6,9283.3,"Include"
"ZOL2021_e1","ZOL2021_e1_10","WENT",99,1,1,"LowImageability",6,4547.1,"Include"
"ZOL2021_e1","ZOL2021_e1_10","ZIPPER",100,1,0,"HighImageability",1,665.8,"Include"
"ZOL2021_e1","ZOL2021_e1_10","RIB",101,1,0,"HighImageability",1,1507.2,"Include"
"ZOL2021_e1","ZOL2021_e1_10","UNREST",102,1,1,"LowImageability",6,10279,"Include"
"ZOL2021_e1","ZOL2021_e1_10","ALWAYS",103,1,1,"LowImageability",6,6821.3,"Include"
"ZOL2021_e1","ZOL2021_e1_10","PLUM",104,1,1,"HighImageability",6,547.1,"Include"
"ZOL2021_e1","ZOL2021_e1_10","TUBE",105,1,1,"HighImageability",6,2521.9,"Include"
"ZOL2021_e1","ZOL2021_e1_10","DUCK",106,1,0,"HighImageability",1,535.2,"Include"
"ZOL2021_e1","ZOL2021_e1_10","GUESS",107,1,1,"LowImageability",6,794.6,"Include"
"ZOL2021_e1","ZOL2021_e1_10","CHILD",108,1,1,"HighImageability",6,671.1,"Include"
"ZOL2021_e1","ZOL2021_e1_10","ELSE",109,0,0,"LowImageability",1,781.4,"Include"
"ZOL2021_e1","ZOL2021_e1_10","HILL",110,1,1,"HighImageability",6,3821.5,"Include"
"ZOL2021_e1","ZOL2021_e1_10","TOY",111,1,1,"HighImageability",6,801,"Include"
"ZOL2021_e1","ZOL2021_e1_10","BYRE",112,0,0,"LowImageability",1,2875.6,"Include"
"ZOL2021_e1","ZOL2021_e1_10","STRIPE",113,1,0,"HighImageability",1,744.5,"Include"
"ZOL2021_e1","ZOL2021_e1_10","BUTYL",114,1,1,"LowImageability",6,1073.4,"Include"
"ZOL2021_e1","ZOL2021_e1_10","NADIR",115,0,0,"LowImageability",1,1040.7,"Include"
"ZOL2021_e1","ZOL2021_e1_10","BOLT",116,1,0,"HighImageability",1,796.2,"Include"
"ZOL2021_e1","ZOL2021_e1_10","PLEDGE",117,0,0,"LowImageability",1,630.9,"Include"
"ZOL2021_e1","ZOL2021_e1_10","PICKLE",118,1,0,"HighImageability",1,589.5,"Include"
"ZOL2021_e1","ZOL2021_e1_10","CANE",119,1,1,"HighImageability",6,739.4,"Include"
"ZOL2021_e1","ZOL2021_e1_10","OX",120,1,0,"HighImageability",1,705.9,"Include"
"ZOL2021_e1","ZOL2021_e1_10","RIBBON",121,1,1,"HighImageability",6,10439.3,"Include"
"ZOL2021_e1","ZOL2021_e1_10","CREAM",122,1,0,"HighImageability",1,911.8,"Include"
