"exp","id","block","trial","isold","condition1","condition2","rating","RT_CONF","RT_ON","excluding"
"ZSB2021_e1","ZSB2021_e1_19",2,35,1,"older","RecogFirst",12,1859,3609,"Include"
"ZSB2021_e1","ZSB2021_e1_19",2,36,0,"older","RecogFirst",11,1303,7996,"Include"
"ZSB2021_e1","ZSB2021_e1_19",2,37,1,"older","RecogFirst",12,1787,2150,"Include"
"ZSB2021_e1","ZSB2021_e1_19",2,38,0,"older","RecogFirst",3,1587,8142,"Include"
"ZSB2021_e1","ZSB2021_e1_19",2,39,1,"older","RecogFirst",12,1531,2175,"Include"
"ZSB2021_e1","ZSB2021_e1_19",2,40,1,"older","RecogFirst",12,1855,2513,"Include"
"ZSB2021_e1","ZSB2021_e1_19",2,41,0,"older","RecogFirst",1,6107,3184,"Include"
"ZSB2021_e1","ZSB2021_e1_19",2,42,0,"older","RecogFirst",10,1219,11450,"Include"
"ZSB2021_e1","ZSB2021_e1_19",2,43,1,"older","RecogFirst",12,1131,2109,"Include"
"ZSB2021_e1","ZSB2021_e1_19",2,44,1,"older","RecogFirst",12,1815,1737,"Include"
"ZSB2021_e1","ZSB2021_e1_19",2,45,1,"older","RecogFirst",9,1902,9145,"Include"
"ZSB2021_e1","ZSB2021_e1_19",2,46,0,"older","RecogFirst",4,1628,4093,"Include"
"ZSB2021_e1","ZSB2021_e1_19",2,47,0,"older","RecogFirst",1,2300,2518,"Include"
"ZSB2021_e1","ZSB2021_e1_19",2,48,1,"older","RecogFirst",12,1531,2051,"Include"
"ZSB2021_e1","ZSB2021_e1_19",2,49,1,"older","RecogFirst",11,683,2409,"Include"
"ZSB2021_e1","ZSB2021_e1_19",2,50,0,"older","RecogFirst",10,1030,8995,"Include"
"ZSB2021_e1","ZSB2021_e1_19",2,51,0,"older","RecogFirst",3,2583,3488,"Include"
"ZSB2021_e1","ZSB2021_e1_19",2,52,1,"older","RecogFirst",12,617,2723,"Include"
"ZSB2021_e1","ZSB2021_e1_19",2,53,0,"older","RecogFirst",3,923,13075,"Include"
"ZSB2021_e1","ZSB2021_e1_19",2,54,1,"older","RecogFirst",12,765,3977,"Include"
"ZSB2021_e1","ZSB2021_e1_19",2,55,0,"older","RecogFirst",3,461,11377,"Include"
"ZSB2021_e1","ZSB2021_e1_19",2,56,0,"older","RecogFirst",3,189,5694,"Include"
"ZSB2021_e1","ZSB2021_e1_19",2,57,1,"older","RecogFirst",3,636,5393,"Include"
"ZSB2021_e1","ZSB2021_e1_19",2,58,1,"older","RecogFirst",12,469,3077,"Include"
"ZSB2021_e1","ZSB2021_e1_19",2,59,0,"older","RecogFirst",4,1832,11805,"Include"
"ZSB2021_e1","ZSB2021_e1_19",2,60,1,"older","RecogFirst",12,617,3473,"Include"
"ZSB2021_e1","ZSB2021_e1_19",2,61,0,"older","RecogFirst",4,635,8075,"Include"
"ZSB2021_e1","ZSB2021_e1_19",2,62,0,"older","RecogFirst",4,1215,3405,"Include"
"ZSB2021_e1","ZSB2021_e1_19",2,63,1,"older","RecogFirst",12,655,1945,"Include"
"ZSB2021_e1","ZSB2021_e1_19",2,64,0,"older","RecogFirst",12,551,4479,"Include"
"ZSB2021_e1","ZSB2021_e1_19",2,65,1,"older","RecogFirst",11,243,11100,"Include"
"ZSB2021_e1","ZSB2021_e1_19",2,66,0,"older","RecogFirst",3,5619,4092,"Include"
"ZSB2021_e1","ZSB2021_e1_19",2,67,1,"older","RecogFirst",12,886,2253,"Include"
"ZSB2021_e1","ZSB2021_e1_19",2,68,0,"older","RecogFirst",3,5759,3421,"Include"
"ZSB2021_e1","ZSB2021_e1_19",2,69,0,"older","RecogFirst",10,1352,5172,"Include"
"ZSB2021_e1","ZSB2021_e1_19",2,70,1,"older","RecogFirst",12,855,2197,"Include"
"ZSB2021_e1","ZSB2021_e1_19",2,71,0,"older","RecogFirst",3,3485,2336,"Include"
"ZSB2021_e1","ZSB2021_e1_19",2,72,1,"older","RecogFirst",12,999,2597,"Include"
"ZSB2021_e1","ZSB2021_e1_19",2,73,0,"older","RecogFirst",11,129,3098,"Include"
"ZSB2021_e1","ZSB2021_e1_19",2,74,1,"older","RecogFirst",12,660,2543,"Include"
"ZSB2021_e1","ZSB2021_e1_19",3,35,0,"older","RecogFirst",3,7,8313,"Include"
"ZSB2021_e1","ZSB2021_e1_19",3,36,1,"older","RecogFirst",12,679,1962,"Include"
"ZSB2021_e1","ZSB2021_e1_19",3,37,0,"older","RecogFirst",1,953,2023,"Include"
"ZSB2021_e1","ZSB2021_e1_19",3,38,0,"older","RecogFirst",3,166,4653,"Include"
"ZSB2021_e1","ZSB2021_e1_19",3,39,0,"older","RecogFirst",3,628,3826,"Include"
"ZSB2021_e1","ZSB2021_e1_19",3,40,1,"older","RecogFirst",12,665,2206,"Include"
"ZSB2021_e1","ZSB2021_e1_19",3,41,1,"older","RecogFirst",10,185,16673,"Include"
"ZSB2021_e1","ZSB2021_e1_19",3,42,1,"older","RecogFirst",12,1045,3844,"Include"
"ZSB2021_e1","ZSB2021_e1_19",3,43,0,"older","RecogFirst",3,671,2279,"Include"
"ZSB2021_e1","ZSB2021_e1_19",3,44,1,"older","RecogFirst",12,747,1551,"Include"
"ZSB2021_e1","ZSB2021_e1_19",3,45,0,"older","RecogFirst",2,4723,10201,"Include"
"ZSB2021_e1","ZSB2021_e1_19",3,46,1,"older","RecogFirst",12,695,1913,"Include"
"ZSB2021_e1","ZSB2021_e1_19",3,47,0,"older","RecogFirst",2,660,5735,"Include"
"ZSB2021_e1","ZSB2021_e1_19",3,48,0,"older","RecogFirst",2,121,5165,"Include"
"ZSB2021_e1","ZSB2021_e1_19",3,49,1,"older","RecogFirst",12,480,2839,"Include"
"ZSB2021_e1","ZSB2021_e1_19",3,50,1,"older","RecogFirst",12,407,2712,"Include"
"ZSB2021_e1","ZSB2021_e1_19",3,51,0,"older","RecogFirst",3,146,9457,"Include"
"ZSB2021_e1","ZSB2021_e1_19",3,52,1,"older","RecogFirst",12,383,1495,"Include"
"ZSB2021_e1","ZSB2021_e1_19",3,53,0,"older","RecogFirst",3,19,8434,"Include"
"ZSB2021_e1","ZSB2021_e1_19",3,54,1,"older","RecogFirst",12,90,2149,"Include"
"ZSB2021_e1","ZSB2021_e1_19",3,55,0,"older","RecogFirst",1,2850,1857,"Include"
"ZSB2021_e1","ZSB2021_e1_19",3,56,0,"older","RecogFirst",11,159,4555,"Include"
"ZSB2021_e1","ZSB2021_e1_19",3,57,0,"older","RecogFirst",3,297,4140,"Include"
"ZSB2021_e1","ZSB2021_e1_19",3,58,0,"older","RecogFirst",12,248,5281,"Include"
"ZSB2021_e1","ZSB2021_e1_19",3,59,0,"older","RecogFirst",11,951,8713,"Include"
"ZSB2021_e1","ZSB2021_e1_19",3,60,1,"older","RecogFirst",12,135,2380,"Include"
"ZSB2021_e1","ZSB2021_e1_19",3,61,1,"older","RecogFirst",12,58,1341,"Include"
"ZSB2021_e1","ZSB2021_e1_19",3,62,0,"older","RecogFirst",11,167,2747,"Include"
"ZSB2021_e1","ZSB2021_e1_19",3,63,1,"older","RecogFirst",3,2473,2315,"Include"
"ZSB2021_e1","ZSB2021_e1_19",3,64,1,"older","RecogFirst",11,1,11481,"Include"
"ZSB2021_e1","ZSB2021_e1_19",3,65,1,"older","RecogFirst",12,91,1675,"Include"
"ZSB2021_e1","ZSB2021_e1_19",3,66,1,"older","RecogFirst",12,36,2235,"Include"
"ZSB2021_e1","ZSB2021_e1_19",3,67,0,"older","RecogFirst",3,553,17365,"Include"
"ZSB2021_e1","ZSB2021_e1_19",3,68,0,"older","RecogFirst",5,1367,5046,"Include"
"ZSB2021_e1","ZSB2021_e1_19",3,69,1,"older","RecogFirst",4,414,7595,"Include"
"ZSB2021_e1","ZSB2021_e1_19",3,70,1,"older","RecogFirst",3,487,6697,"Include"
"ZSB2021_e1","ZSB2021_e1_19",3,71,1,"older","RecogFirst",3,229,11319,"Include"
"ZSB2021_e1","ZSB2021_e1_19",3,72,1,"older","RecogFirst",3,71,9255,"Include"
"ZSB2021_e1","ZSB2021_e1_19",3,73,0,"older","RecogFirst",4,6368,2847,"Include"
"ZSB2021_e1","ZSB2021_e1_19",3,74,0,"older","RecogFirst",11,2911,5812,"Include"
"ZSB2021_e1","ZSB2021_e1_19",1,36,1,"older","RecogFirst",3,1512,6730,"Include"
"ZSB2021_e1","ZSB2021_e1_19",1,37,1,"older","RecogFirst",12,705,2199,"Include"
"ZSB2021_e1","ZSB2021_e1_19",1,38,1,"older","RecogFirst",12,615,1504,"Include"
"ZSB2021_e1","ZSB2021_e1_19",1,39,0,"older","RecogFirst",1,2625,1889,"Include"
"ZSB2021_e1","ZSB2021_e1_19",1,40,1,"older","RecogFirst",3,647,11555,"Include"
"ZSB2021_e1","ZSB2021_e1_19",1,41,1,"older","RecogFirst",3,552,5097,"Include"
"ZSB2021_e1","ZSB2021_e1_19",1,42,0,"older","RecogFirst",12,609,3149,"Include"
"ZSB2021_e1","ZSB2021_e1_19",1,43,0,"older","RecogFirst",3,545,3748,"Include"
"ZSB2021_e1","ZSB2021_e1_19",1,44,1,"older","RecogFirst",12,568,1830,"Include"
"ZSB2021_e1","ZSB2021_e1_19",1,45,0,"older","RecogFirst",1,483,3884,"Include"
"ZSB2021_e1","ZSB2021_e1_19",1,46,1,"older","RecogFirst",12,1425,3139,"Include"
"ZSB2021_e1","ZSB2021_e1_19",1,47,0,"older","RecogFirst",1,1915,2451,"Include"
"ZSB2021_e1","ZSB2021_e1_19",1,48,0,"older","RecogFirst",11,801,4106,"Include"
"ZSB2021_e1","ZSB2021_e1_19",1,49,0,"older","RecogFirst",1,503,1795,"Include"
"ZSB2021_e1","ZSB2021_e1_19",1,50,0,"older","RecogFirst",3,232,8405,"Include"
"ZSB2021_e1","ZSB2021_e1_19",1,51,0,"older","RecogFirst",3,467,7642,"Include"
"ZSB2021_e1","ZSB2021_e1_19",1,52,0,"older","RecogFirst",11,267,3683,"Include"
"ZSB2021_e1","ZSB2021_e1_19",1,53,1,"older","RecogFirst",12,517,3427,"Include"
"ZSB2021_e1","ZSB2021_e1_19",1,54,0,"older","RecogFirst",3,980,14851,"Include"
"ZSB2021_e1","ZSB2021_e1_19",1,55,0,"older","RecogFirst",11,447,4504,"Include"
"ZSB2021_e1","ZSB2021_e1_19",1,56,1,"older","RecogFirst",12,463,4912,"Include"
"ZSB2021_e1","ZSB2021_e1_19",1,57,1,"older","RecogFirst",11,1233,4615,"Include"
"ZSB2021_e1","ZSB2021_e1_19",1,58,1,"older","RecogFirst",11,840,1947,"Include"
"ZSB2021_e1","ZSB2021_e1_19",1,59,0,"older","RecogFirst",3,49,15473,"Include"
"ZSB2021_e1","ZSB2021_e1_19",1,60,0,"older","RecogFirst",3,3950,3178,"Include"
"ZSB2021_e1","ZSB2021_e1_19",1,61,1,"older","RecogFirst",12,1496,3731,"Include"
"ZSB2021_e1","ZSB2021_e1_19",1,62,0,"older","RecogFirst",3,621,11335,"Include"
"ZSB2021_e1","ZSB2021_e1_19",1,63,0,"older","RecogFirst",11,184,5231,"Include"
"ZSB2021_e1","ZSB2021_e1_19",1,64,1,"older","RecogFirst",3,148,8851,"Include"
"ZSB2021_e1","ZSB2021_e1_19",1,65,1,"older","RecogFirst",12,254,2953,"Include"
"ZSB2021_e1","ZSB2021_e1_19",1,66,0,"older","RecogFirst",12,112,1847,"Include"
"ZSB2021_e1","ZSB2021_e1_19",1,67,1,"older","RecogFirst",12,175,1663,"Include"
"ZSB2021_e1","ZSB2021_e1_19",1,68,0,"older","RecogFirst",2,1928,4363,"Include"
"ZSB2021_e1","ZSB2021_e1_19",1,69,1,"older","RecogFirst",11,137,3806,"Include"
"ZSB2021_e1","ZSB2021_e1_19",1,70,1,"older","RecogFirst",3,1702,18870,"Include"
"ZSB2021_e1","ZSB2021_e1_19",1,71,1,"older","RecogFirst",11,310,13845,"Include"
"ZSB2021_e1","ZSB2021_e1_19",1,72,1,"older","RecogFirst",3,1401,7557,"Include"
"ZSB2021_e1","ZSB2021_e1_19",1,73,0,"older","RecogFirst",11,135,6796,"Include"
"ZSB2021_e1","ZSB2021_e1_19",1,74,0,"older","RecogFirst",12,2284,2285,"Include"
"ZSB2021_e1","ZSB2021_e1_19",1,75,1,"older","RecogFirst",12,82,1307,"Include"
"ZSB2021_e1","ZSB2021_e1_19",2,35,0,"older","RecogFirst",12,1523,3267,"Include"
"ZSB2021_e1","ZSB2021_e1_19",2,36,1,"older","RecogFirst",12,503,1529,"Include"
"ZSB2021_e1","ZSB2021_e1_19",2,37,0,"older","RecogFirst",3,803,2750,"Include"
"ZSB2021_e1","ZSB2021_e1_19",2,38,0,"older","RecogFirst",3,293,9085,"Include"
"ZSB2021_e1","ZSB2021_e1_19",2,39,1,"older","RecogFirst",12,473,1732,"Include"
"ZSB2021_e1","ZSB2021_e1_19",2,40,1,"older","RecogFirst",12,296,2105,"Include"
"ZSB2021_e1","ZSB2021_e1_19",2,41,0,"older","RecogFirst",3,623,10487,"Include"
"ZSB2021_e1","ZSB2021_e1_19",2,42,0,"older","RecogFirst",11,352,4089,"Include"
"ZSB2021_e1","ZSB2021_e1_19",2,43,1,"older","RecogFirst",3,2776,4789,"Include"
"ZSB2021_e1","ZSB2021_e1_19",2,44,1,"older","RecogFirst",10,131,5100,"Include"
"ZSB2021_e1","ZSB2021_e1_19",2,45,0,"older","RecogFirst",1,781,2369,"Include"
"ZSB2021_e1","ZSB2021_e1_19",2,46,1,"older","RecogFirst",10,657,11649,"Include"
"ZSB2021_e1","ZSB2021_e1_19",2,47,0,"older","RecogFirst",1,931,2258,"Include"
"ZSB2021_e1","ZSB2021_e1_19",2,48,1,"older","RecogFirst",12,153,1865,"Include"
"ZSB2021_e1","ZSB2021_e1_19",2,49,0,"older","RecogFirst",12,77,1477,"Include"
"ZSB2021_e1","ZSB2021_e1_19",2,50,1,"older","RecogFirst",12,133,1493,"Include"
"ZSB2021_e1","ZSB2021_e1_19",2,51,1,"older","RecogFirst",12,85,2194,"Include"
"ZSB2021_e1","ZSB2021_e1_19",2,52,0,"older","RecogFirst",1,653,2453,"Include"
"ZSB2021_e1","ZSB2021_e1_19",2,53,0,"older","RecogFirst",3,583,2038,"Include"
"ZSB2021_e1","ZSB2021_e1_19",2,54,1,"older","RecogFirst",11,169,4099,"Include"
"ZSB2021_e1","ZSB2021_e1_19",2,55,0,"older","RecogFirst",2,2265,1573,"Include"
"ZSB2021_e1","ZSB2021_e1_19",2,56,0,"older","RecogFirst",11,84,3026,"Include"
"ZSB2021_e1","ZSB2021_e1_19",2,57,0,"older","RecogFirst",3,174,4003,"Include"
"ZSB2021_e1","ZSB2021_e1_19",2,58,1,"older","RecogFirst",12,142,1378,"Include"
"ZSB2021_e1","ZSB2021_e1_19",2,59,1,"older","RecogFirst",12,103,1587,"Include"
"ZSB2021_e1","ZSB2021_e1_19",2,60,1,"older","RecogFirst",10,47,11629,"Include"
"ZSB2021_e1","ZSB2021_e1_19",2,61,0,"older","RecogFirst",1,1303,2113,"Include"
"ZSB2021_e1","ZSB2021_e1_19",2,62,0,"older","RecogFirst",10,706,4166,"Include"
"ZSB2021_e1","ZSB2021_e1_19",2,63,0,"older","RecogFirst",3,715,6425,"Include"
"ZSB2021_e1","ZSB2021_e1_19",2,64,1,"older","RecogFirst",12,48,2305,"Include"
"ZSB2021_e1","ZSB2021_e1_19",2,65,0,"older","RecogFirst",1,3983,1937,"Include"
"ZSB2021_e1","ZSB2021_e1_19",2,66,1,"older","RecogFirst",3,75,4842,"Include"
"ZSB2021_e1","ZSB2021_e1_19",2,67,1,"older","RecogFirst",12,225,1739,"Include"
"ZSB2021_e1","ZSB2021_e1_19",2,68,0,"older","RecogFirst",11,55,3779,"Include"
"ZSB2021_e1","ZSB2021_e1_19",2,69,1,"older","RecogFirst",12,41,1423,"Include"
"ZSB2021_e1","ZSB2021_e1_19",2,70,0,"older","RecogFirst",2,839,2171,"Include"
"ZSB2021_e1","ZSB2021_e1_19",2,71,0,"older","RecogFirst",12,118,1520,"Include"
"ZSB2021_e1","ZSB2021_e1_19",2,72,1,"older","RecogFirst",12,132,1468,"Include"
"ZSB2021_e1","ZSB2021_e1_19",2,73,1,"older","RecogFirst",3,127,7562,"Include"
"ZSB2021_e1","ZSB2021_e1_19",2,74,1,"older","RecogFirst",11,25,1573,"Include"
"ZSB2021_e1","ZSB2021_e1_37",2,59,1,"older","AssocMemFirst",10,458,6149,"Include"
"ZSB2021_e1","ZSB2021_e1_37",2,60,1,"older","AssocMemFirst",3,895,7155,"Include"
"ZSB2021_e1","ZSB2021_e1_37",2,61,0,"older","AssocMemFirst",3,1128,8239,"Include"
"ZSB2021_e1","ZSB2021_e1_37",2,62,0,"older","AssocMemFirst",4,1990,4470,"Include"
"ZSB2021_e1","ZSB2021_e1_37",2,63,1,"older","AssocMemFirst",11,1639,5545,"Include"
"ZSB2021_e1","ZSB2021_e1_37",2,64,1,"older","AssocMemFirst",10,198,4728,"Include"
"ZSB2021_e1","ZSB2021_e1_37",2,65,1,"older","AssocMemFirst",3,879,4745,"Include"
"ZSB2021_e1","ZSB2021_e1_37",2,66,0,"older","AssocMemFirst",4,1165,6519,"Include"
"ZSB2021_e1","ZSB2021_e1_37",2,67,0,"older","AssocMemFirst",10,2747,4217,"Include"
"ZSB2021_e1","ZSB2021_e1_37",2,68,1,"older","AssocMemFirst",3,2611,2825,"Include"
"ZSB2021_e1","ZSB2021_e1_37",2,69,0,"older","AssocMemFirst",3,1559,4229,"Include"
"ZSB2021_e1","ZSB2021_e1_37",2,70,0,"older","AssocMemFirst",3,1536,2980,"Include"
"ZSB2021_e1","ZSB2021_e1_37",2,71,0,"older","AssocMemFirst",3,1276,4109,"Include"
"ZSB2021_e1","ZSB2021_e1_37",2,72,0,"older","AssocMemFirst",11,2611,3484,"Include"
"ZSB2021_e1","ZSB2021_e1_37",2,73,1,"older","AssocMemFirst",10,457,3598,"Include"
"ZSB2021_e1","ZSB2021_e1_37",2,74,1,"older","AssocMemFirst",12,404,5009,"Include"
"ZSB2021_e1","ZSB2021_e1_37",2,75,1,"older","AssocMemFirst",11,565,3919,"Include"
"ZSB2021_e1","ZSB2021_e1_37",2,76,0,"older","AssocMemFirst",2,3145,2465,"Include"
"ZSB2021_e1","ZSB2021_e1_37",2,77,1,"older","AssocMemFirst",4,2317,3527,"Include"
"ZSB2021_e1","ZSB2021_e1_37",2,78,0,"older","AssocMemFirst",3,144,3331,"Include"
"ZSB2021_e1","ZSB2021_e1_37",2,79,0,"older","AssocMemFirst",11,1232,3613,"Include"
"ZSB2021_e1","ZSB2021_e1_37",2,80,1,"older","AssocMemFirst",10,1991,3737,"Include"
"ZSB2021_e1","ZSB2021_e1_37",2,81,1,"older","AssocMemFirst",3,1163,3450,"Include"
"ZSB2021_e1","ZSB2021_e1_37",2,82,0,"older","AssocMemFirst",4,1921,8431,"Include"
"ZSB2021_e1","ZSB2021_e1_37",2,83,1,"older","AssocMemFirst",11,968,3639,"Include"
"ZSB2021_e1","ZSB2021_e1_37",2,84,0,"older","AssocMemFirst",4,1997,2844,"Include"
"ZSB2021_e1","ZSB2021_e1_37",2,85,1,"older","AssocMemFirst",3,1957,4969,"Include"
"ZSB2021_e1","ZSB2021_e1_37",2,86,1,"older","AssocMemFirst",11,216,3697,"Include"
"ZSB2021_e1","ZSB2021_e1_37",2,87,0,"older","AssocMemFirst",4,1469,5219,"Include"
"ZSB2021_e1","ZSB2021_e1_37",2,88,1,"older","AssocMemFirst",2,1413,5877,"Include"
"ZSB2021_e1","ZSB2021_e1_37",2,89,1,"older","AssocMemFirst",10,685,5127,"Include"
"ZSB2021_e1","ZSB2021_e1_37",2,90,0,"older","AssocMemFirst",4,1825,3573,"Include"
"ZSB2021_e1","ZSB2021_e1_37",2,91,0,"older","AssocMemFirst",10,2265,7099,"Include"
"ZSB2021_e1","ZSB2021_e1_37",2,92,1,"older","AssocMemFirst",11,372,4209,"Include"
"ZSB2021_e1","ZSB2021_e1_37",2,93,0,"older","AssocMemFirst",12,419,4392,"Include"
"ZSB2021_e1","ZSB2021_e1_37",2,94,0,"older","AssocMemFirst",4,2174,4261,"Include"
"ZSB2021_e1","ZSB2021_e1_37",2,95,1,"older","AssocMemFirst",4,1501,7410,"Include"
"ZSB2021_e1","ZSB2021_e1_37",2,96,0,"older","AssocMemFirst",3,897,4531,"Include"
"ZSB2021_e1","ZSB2021_e1_37",2,97,1,"older","AssocMemFirst",3,1245,5344,"Include"
"ZSB2021_e1","ZSB2021_e1_37",2,98,0,"older","AssocMemFirst",3,493,2703,"Include"
"ZSB2021_e1","ZSB2021_e1_37",3,58,0,"older","AssocMemFirst",10,1729,3938,"Include"
"ZSB2021_e1","ZSB2021_e1_37",3,59,1,"older","AssocMemFirst",10,1187,6567,"Include"
"ZSB2021_e1","ZSB2021_e1_37",3,60,1,"older","AssocMemFirst",3,2333,3494,"Include"
"ZSB2021_e1","ZSB2021_e1_37",3,61,0,"older","AssocMemFirst",10,2929,4499,"Include"
"ZSB2021_e1","ZSB2021_e1_37",3,62,1,"older","AssocMemFirst",10,1434,4399,"Include"
"ZSB2021_e1","ZSB2021_e1_37",3,63,1,"older","AssocMemFirst",12,1523,3475,"Include"
"ZSB2021_e1","ZSB2021_e1_37",3,64,1,"older","AssocMemFirst",12,1072,2113,"Include"
"ZSB2021_e1","ZSB2021_e1_37",3,65,0,"older","AssocMemFirst",11,1600,2680,"Include"
"ZSB2021_e1","ZSB2021_e1_37",3,66,1,"older","AssocMemFirst",10,1560,4346,"Include"
"ZSB2021_e1","ZSB2021_e1_37",3,67,0,"older","AssocMemFirst",3,1811,2309,"Include"
"ZSB2021_e1","ZSB2021_e1_37",3,68,1,"older","AssocMemFirst",3,1192,3014,"Include"
"ZSB2021_e1","ZSB2021_e1_37",3,69,0,"older","AssocMemFirst",3,424,2547,"Include"
"ZSB2021_e1","ZSB2021_e1_37",3,70,0,"older","AssocMemFirst",11,1166,8962,"Include"
"ZSB2021_e1","ZSB2021_e1_37",3,71,1,"older","AssocMemFirst",2,2403,4875,"Include"
"ZSB2021_e1","ZSB2021_e1_37",3,72,0,"older","AssocMemFirst",3,1477,4085,"Include"
"ZSB2021_e1","ZSB2021_e1_37",3,73,0,"older","AssocMemFirst",11,1984,4765,"Include"
"ZSB2021_e1","ZSB2021_e1_37",3,74,0,"older","AssocMemFirst",3,1283,3284,"Include"
"ZSB2021_e1","ZSB2021_e1_37",3,75,1,"older","AssocMemFirst",10,1727,5978,"Include"
"ZSB2021_e1","ZSB2021_e1_37",3,76,1,"older","AssocMemFirst",11,2131,4100,"Include"
"ZSB2021_e1","ZSB2021_e1_37",3,77,0,"older","AssocMemFirst",2,1710,2361,"Include"
"ZSB2021_e1","ZSB2021_e1_37",3,78,0,"older","AssocMemFirst",12,1300,2069,"Include"
"ZSB2021_e1","ZSB2021_e1_37",3,79,1,"older","AssocMemFirst",12,1465,2323,"Include"
"ZSB2021_e1","ZSB2021_e1_37",3,80,1,"older","AssocMemFirst",10,880,3305,"Include"
"ZSB2021_e1","ZSB2021_e1_37",3,81,1,"older","AssocMemFirst",10,1418,5824,"Include"
"ZSB2021_e1","ZSB2021_e1_37",3,82,0,"older","AssocMemFirst",3,1338,2300,"Include"
"ZSB2021_e1","ZSB2021_e1_37",3,83,0,"older","AssocMemFirst",2,634,2416,"Include"
"ZSB2021_e1","ZSB2021_e1_37",3,84,1,"older","AssocMemFirst",12,168,2139,"Include"
"ZSB2021_e1","ZSB2021_e1_37",3,85,1,"older","AssocMemFirst",11,394,4732,"Include"
"ZSB2021_e1","ZSB2021_e1_37",3,86,1,"older","AssocMemFirst",4,1423,3413,"Include"
"ZSB2021_e1","ZSB2021_e1_37",3,87,1,"older","AssocMemFirst",4,370,4233,"Include"
"ZSB2021_e1","ZSB2021_e1_37",3,88,1,"older","AssocMemFirst",12,330,2166,"Include"
"ZSB2021_e1","ZSB2021_e1_37",3,89,0,"older","AssocMemFirst",4,2632,4072,"Include"
"ZSB2021_e1","ZSB2021_e1_37",3,90,0,"older","AssocMemFirst",3,2833,3706,"Include"
"ZSB2021_e1","ZSB2021_e1_37",3,91,0,"older","AssocMemFirst",2,2161,2898,"Include"
"ZSB2021_e1","ZSB2021_e1_37",3,92,0,"older","AssocMemFirst",11,2575,2446,"Include"
"ZSB2021_e1","ZSB2021_e1_37",3,93,1,"older","AssocMemFirst",10,1723,3267,"Include"
"ZSB2021_e1","ZSB2021_e1_37",3,94,1,"older","AssocMemFirst",10,1332,4185,"Include"
"ZSB2021_e1","ZSB2021_e1_37",3,95,0,"older","AssocMemFirst",10,1366,3186,"Include"
"ZSB2021_e1","ZSB2021_e1_37",3,96,0,"older","AssocMemFirst",2,2641,2906,"Include"
"ZSB2021_e1","ZSB2021_e1_37",3,97,0,"older","AssocMemFirst",4,1247,3963,"Include"
"ZSB2021_e1","ZSB2021_e1_37",1,60,0,"older","AssocMemFirst",4,2265,6023,"Include"
"ZSB2021_e1","ZSB2021_e1_37",1,61,1,"older","AssocMemFirst",12,671,1945,"Include"
"ZSB2021_e1","ZSB2021_e1_37",1,62,0,"older","AssocMemFirst",9,659,5775,"Include"
"ZSB2021_e1","ZSB2021_e1_37",1,63,0,"older","AssocMemFirst",4,1995,3283,"Include"
"ZSB2021_e1","ZSB2021_e1_37",1,64,0,"older","AssocMemFirst",9,1714,3774,"Include"
"ZSB2021_e1","ZSB2021_e1_37",1,65,1,"older","AssocMemFirst",12,1059,2201,"Include"
"ZSB2021_e1","ZSB2021_e1_37",1,66,0,"older","AssocMemFirst",11,1648,3697,"Include"
"ZSB2021_e1","ZSB2021_e1_37",1,67,0,"older","AssocMemFirst",9,807,8897,"Include"
"ZSB2021_e1","ZSB2021_e1_37",1,68,1,"older","AssocMemFirst",12,48,2682,"Include"
"ZSB2021_e1","ZSB2021_e1_37",1,69,1,"older","AssocMemFirst",4,972,6193,"Include"
"ZSB2021_e1","ZSB2021_e1_37",1,70,1,"older","AssocMemFirst",12,201,2032,"Include"
"ZSB2021_e1","ZSB2021_e1_37",1,71,0,"older","AssocMemFirst",3,1641,4156,"Include"
"ZSB2021_e1","ZSB2021_e1_37",1,72,1,"older","AssocMemFirst",11,703,3154,"Include"
"ZSB2021_e1","ZSB2021_e1_37",1,73,0,"older","AssocMemFirst",2,1507,3133,"Include"
"ZSB2021_e1","ZSB2021_e1_37",1,74,0,"older","AssocMemFirst",10,235,4817,"Include"
"ZSB2021_e1","ZSB2021_e1_37",1,75,0,"older","AssocMemFirst",2,1653,2452,"Include"
"ZSB2021_e1","ZSB2021_e1_37",1,76,0,"older","AssocMemFirst",2,1451,2309,"Include"
"ZSB2021_e1","ZSB2021_e1_37",1,77,0,"older","AssocMemFirst",2,1434,5100,"Include"
"ZSB2021_e1","ZSB2021_e1_37",1,78,0,"older","AssocMemFirst",10,729,4339,"Include"
"ZSB2021_e1","ZSB2021_e1_37",1,79,1,"older","AssocMemFirst",3,2375,6255,"Include"
"ZSB2021_e1","ZSB2021_e1_37",1,80,1,"older","AssocMemFirst",3,1246,3803,"Include"
"ZSB2021_e1","ZSB2021_e1_37",1,81,0,"older","AssocMemFirst",1,1346,2983,"Include"
"ZSB2021_e1","ZSB2021_e1_37",1,82,1,"older","AssocMemFirst",4,1687,4671,"Include"
"ZSB2021_e1","ZSB2021_e1_37",1,83,1,"older","AssocMemFirst",12,874,2174,"Include"
"ZSB2021_e1","ZSB2021_e1_37",1,84,1,"older","AssocMemFirst",3,1891,5642,"Include"
"ZSB2021_e1","ZSB2021_e1_37",1,85,1,"older","AssocMemFirst",4,2204,4818,"Include"
"ZSB2021_e1","ZSB2021_e1_37",1,86,1,"older","AssocMemFirst",12,1115,1950,"Include"
"ZSB2021_e1","ZSB2021_e1_37",1,87,1,"older","AssocMemFirst",12,199,2313,"Include"
"ZSB2021_e1","ZSB2021_e1_37",1,88,1,"older","AssocMemFirst",3,2656,3914,"Include"
"ZSB2021_e1","ZSB2021_e1_37",1,89,0,"older","AssocMemFirst",3,602,5641,"Include"
"ZSB2021_e1","ZSB2021_e1_37",1,90,0,"older","AssocMemFirst",4,610,2733,"Include"
"ZSB2021_e1","ZSB2021_e1_37",1,91,1,"older","AssocMemFirst",2,903,5205,"Include"
"ZSB2021_e1","ZSB2021_e1_37",1,92,0,"older","AssocMemFirst",3,1510,5871,"Include"
"ZSB2021_e1","ZSB2021_e1_37",1,93,1,"older","AssocMemFirst",9,1607,5813,"Include"
"ZSB2021_e1","ZSB2021_e1_37",1,94,0,"older","AssocMemFirst",3,1220,2602,"Include"
"ZSB2021_e1","ZSB2021_e1_37",1,95,0,"older","AssocMemFirst",4,1570,3374,"Include"
"ZSB2021_e1","ZSB2021_e1_37",1,96,1,"older","AssocMemFirst",10,702,6278,"Include"
"ZSB2021_e1","ZSB2021_e1_37",1,97,0,"older","AssocMemFirst",3,1639,2830,"Include"
"ZSB2021_e1","ZSB2021_e1_37",1,98,1,"older","AssocMemFirst",3,2107,4808,"Include"
"ZSB2021_e1","ZSB2021_e1_37",1,99,1,"older","AssocMemFirst",10,1529,4073,"Include"
"ZSB2021_e1","ZSB2021_e1_37",2,61,1,"older","AssocMemFirst",12,1204,3459,"Include"
"ZSB2021_e1","ZSB2021_e1_37",2,62,0,"older","AssocMemFirst",3,961,4023,"Include"
"ZSB2021_e1","ZSB2021_e1_37",2,63,1,"older","AssocMemFirst",10,1349,4677,"Include"
"ZSB2021_e1","ZSB2021_e1_37",2,64,0,"older","AssocMemFirst",11,461,5386,"Include"
"ZSB2021_e1","ZSB2021_e1_37",2,65,1,"older","AssocMemFirst",4,1175,3446,"Include"
"ZSB2021_e1","ZSB2021_e1_37",2,66,1,"older","AssocMemFirst",11,595,2267,"Include"
"ZSB2021_e1","ZSB2021_e1_37",2,67,0,"older","AssocMemFirst",1,315,3159,"Include"
"ZSB2021_e1","ZSB2021_e1_37",2,68,0,"older","AssocMemFirst",11,966,4353,"Include"
"ZSB2021_e1","ZSB2021_e1_37",2,69,0,"older","AssocMemFirst",3,1379,2842,"Include"
"ZSB2021_e1","ZSB2021_e1_37",2,70,0,"older","AssocMemFirst",3,1328,4647,"Include"
"ZSB2021_e1","ZSB2021_e1_37",2,71,1,"older","AssocMemFirst",3,1522,4974,"Include"
"ZSB2021_e1","ZSB2021_e1_37",2,72,0,"older","AssocMemFirst",10,713,2632,"Include"
"ZSB2021_e1","ZSB2021_e1_37",2,73,0,"older","AssocMemFirst",3,1335,2304,"Include"
"ZSB2021_e1","ZSB2021_e1_37",2,74,1,"older","AssocMemFirst",3,1261,5252,"Include"
"ZSB2021_e1","ZSB2021_e1_37",2,75,0,"older","AssocMemFirst",4,1844,5101,"Include"
"ZSB2021_e1","ZSB2021_e1_37",2,76,1,"older","AssocMemFirst",3,2481,2573,"Include"
"ZSB2021_e1","ZSB2021_e1_37",2,77,1,"older","AssocMemFirst",12,1443,3433,"Include"
"ZSB2021_e1","ZSB2021_e1_37",2,78,0,"older","AssocMemFirst",11,1281,3740,"Include"
"ZSB2021_e1","ZSB2021_e1_37",2,79,1,"older","AssocMemFirst",3,2343,4513,"Include"
"ZSB2021_e1","ZSB2021_e1_37",2,80,1,"older","AssocMemFirst",11,658,5933,"Include"
"ZSB2021_e1","ZSB2021_e1_37",2,81,0,"older","AssocMemFirst",3,1861,2219,"Include"
"ZSB2021_e1","ZSB2021_e1_37",2,82,1,"older","AssocMemFirst",11,1016,4197,"Include"
"ZSB2021_e1","ZSB2021_e1_37",2,83,1,"older","AssocMemFirst",2,2999,1930,"Include"
"ZSB2021_e1","ZSB2021_e1_37",2,84,0,"older","AssocMemFirst",12,761,2282,"Include"
"ZSB2021_e1","ZSB2021_e1_37",2,85,0,"older","AssocMemFirst",12,551,2030,"Include"
"ZSB2021_e1","ZSB2021_e1_37",2,86,1,"older","AssocMemFirst",11,137,4940,"Include"
"ZSB2021_e1","ZSB2021_e1_37",2,87,1,"older","AssocMemFirst",12,15,2247,"Include"
"ZSB2021_e1","ZSB2021_e1_37",2,88,1,"older","AssocMemFirst",12,65,1865,"Include"
"ZSB2021_e1","ZSB2021_e1_37",2,89,1,"older","AssocMemFirst",12,1777,3065,"Include"
"ZSB2021_e1","ZSB2021_e1_37",2,90,1,"older","AssocMemFirst",4,1174,3453,"Include"
"ZSB2021_e1","ZSB2021_e1_37",2,91,1,"older","AssocMemFirst",12,527,2562,"Include"
"ZSB2021_e1","ZSB2021_e1_37",2,92,0,"older","AssocMemFirst",3,3207,2397,"Include"
"ZSB2021_e1","ZSB2021_e1_37",2,93,1,"older","AssocMemFirst",12,14,2570,"Include"
"ZSB2021_e1","ZSB2021_e1_37",2,94,0,"older","AssocMemFirst",3,4157,5153,"Include"
"ZSB2021_e1","ZSB2021_e1_37",2,95,0,"older","AssocMemFirst",10,1671,4146,"Include"
"ZSB2021_e1","ZSB2021_e1_37",2,96,0,"older","AssocMemFirst",4,1342,3311,"Include"
"ZSB2021_e1","ZSB2021_e1_37",2,97,0,"older","AssocMemFirst",3,2307,2675,"Include"
"ZSB2021_e1","ZSB2021_e1_37",2,98,0,"older","AssocMemFirst",12,2111,3154,"Include"
"ZSB2021_e1","ZSB2021_e1_37",2,99,0,"older","AssocMemFirst",11,806,3853,"Include"
"ZSB2021_e1","ZSB2021_e1_37",2,100,1,"older","AssocMemFirst",11,483,5825,"Include"
"ZSB2021_e1","ZSB2021_e1_39",2,58,0,"older","AssocMemFirst",10,1781,6293,"Include"
"ZSB2021_e1","ZSB2021_e1_39",2,59,0,"older","AssocMemFirst",3,3537,2257,"Include"
"ZSB2021_e1","ZSB2021_e1_39",2,60,0,"older","AssocMemFirst",3,1669,2503,"Include"
"ZSB2021_e1","ZSB2021_e1_39",2,61,0,"older","AssocMemFirst",3,2855,1821,"Include"
"ZSB2021_e1","ZSB2021_e1_39",2,62,1,"older","AssocMemFirst",9,1255,4712,"Include"
"ZSB2021_e1","ZSB2021_e1_39",2,63,1,"older","AssocMemFirst",11,1587,2175,"Include"
"ZSB2021_e1","ZSB2021_e1_39",2,64,1,"older","AssocMemFirst",12,710,1687,"Include"
"ZSB2021_e1","ZSB2021_e1_39",2,65,1,"older","AssocMemFirst",9,891,6317,"Include"
"ZSB2021_e1","ZSB2021_e1_39",2,66,0,"older","AssocMemFirst",2,1489,1882,"Include"
"ZSB2021_e1","ZSB2021_e1_39",2,67,0,"older","AssocMemFirst",11,1693,1977,"Include"
"ZSB2021_e1","ZSB2021_e1_39",2,68,1,"older","AssocMemFirst",3,2391,1812,"Include"
"ZSB2021_e1","ZSB2021_e1_39",2,69,0,"older","AssocMemFirst",3,2579,3858,"Include"
"ZSB2021_e1","ZSB2021_e1_39",2,70,1,"older","AssocMemFirst",4,1551,3063,"Include"
"ZSB2021_e1","ZSB2021_e1_39",2,71,1,"older","AssocMemFirst",11,1194,1716,"Include"
"ZSB2021_e1","ZSB2021_e1_39",2,72,0,"older","AssocMemFirst",4,1505,4189,"Include"
"ZSB2021_e1","ZSB2021_e1_39",2,73,0,"older","AssocMemFirst",9,1079,4487,"Include"
"ZSB2021_e1","ZSB2021_e1_39",2,74,1,"older","AssocMemFirst",12,1102,1887,"Include"
"ZSB2021_e1","ZSB2021_e1_39",2,75,1,"older","AssocMemFirst",11,652,1885,"Include"
"ZSB2021_e1","ZSB2021_e1_39",2,76,1,"older","AssocMemFirst",10,927,3629,"Include"
"ZSB2021_e1","ZSB2021_e1_39",2,77,0,"older","AssocMemFirst",9,1323,3709,"Include"
"ZSB2021_e1","ZSB2021_e1_39",2,78,1,"older","AssocMemFirst",12,1381,1577,"Include"
"ZSB2021_e1","ZSB2021_e1_39",2,79,1,"older","AssocMemFirst",11,1227,1817,"Include"
"ZSB2021_e1","ZSB2021_e1_39",2,80,0,"older","AssocMemFirst",10,814,4461,"Include"
"ZSB2021_e1","ZSB2021_e1_39",2,81,0,"older","AssocMemFirst",4,2695,2505,"Include"
"ZSB2021_e1","ZSB2021_e1_39",2,82,1,"older","AssocMemFirst",4,2535,3655,"Include"
"ZSB2021_e1","ZSB2021_e1_39",2,83,0,"older","AssocMemFirst",4,1755,3109,"Include"
"ZSB2021_e1","ZSB2021_e1_39",2,84,0,"older","AssocMemFirst",4,929,4240,"Include"
"ZSB2021_e1","ZSB2021_e1_39",2,85,1,"older","AssocMemFirst",10,1753,1823,"Include"
"ZSB2021_e1","ZSB2021_e1_39",2,86,0,"older","AssocMemFirst",11,1959,2662,"Include"
"ZSB2021_e1","ZSB2021_e1_39",2,87,1,"older","AssocMemFirst",11,1723,2067,"Include"
"ZSB2021_e1","ZSB2021_e1_39",2,88,0,"older","AssocMemFirst",10,733,4985,"Include"
"ZSB2021_e1","ZSB2021_e1_39",2,89,1,"older","AssocMemFirst",10,663,2946,"Include"
"ZSB2021_e1","ZSB2021_e1_39",2,90,1,"older","AssocMemFirst",10,1527,2488,"Include"
"ZSB2021_e1","ZSB2021_e1_39",2,91,0,"older","AssocMemFirst",4,1702,3853,"Include"
"ZSB2021_e1","ZSB2021_e1_39",2,92,0,"older","AssocMemFirst",4,2462,2037,"Include"
"ZSB2021_e1","ZSB2021_e1_39",2,93,1,"older","AssocMemFirst",11,1005,3527,"Include"
"ZSB2021_e1","ZSB2021_e1_39",2,94,0,"older","AssocMemFirst",3,1573,1935,"Include"
"ZSB2021_e1","ZSB2021_e1_39",2,95,1,"older","AssocMemFirst",4,1581,3353,"Include"
"ZSB2021_e1","ZSB2021_e1_39",2,96,0,"older","AssocMemFirst",3,1726,1961,"Include"
"ZSB2021_e1","ZSB2021_e1_39",2,97,1,"older","AssocMemFirst",10,1313,4532,"Include"
"ZSB2021_e1","ZSB2021_e1_39",3,58,0,"older","AssocMemFirst",1,3820,2668,"Include"
"ZSB2021_e1","ZSB2021_e1_39",3,59,1,"older","AssocMemFirst",12,1999,2654,"Include"
"ZSB2021_e1","ZSB2021_e1_39",3,60,1,"older","AssocMemFirst",12,1337,1689,"Include"
"ZSB2021_e1","ZSB2021_e1_39",3,61,1,"older","AssocMemFirst",12,733,2094,"Include"
"ZSB2021_e1","ZSB2021_e1_39",3,62,0,"older","AssocMemFirst",3,1734,2995,"Include"
"ZSB2021_e1","ZSB2021_e1_39",3,63,1,"older","AssocMemFirst",3,1452,2051,"Include"
"ZSB2021_e1","ZSB2021_e1_39",3,64,1,"older","AssocMemFirst",12,1226,1541,"Include"
"ZSB2021_e1","ZSB2021_e1_39",3,65,1,"older","AssocMemFirst",11,1018,2116,"Include"
"ZSB2021_e1","ZSB2021_e1_39",3,66,0,"older","AssocMemFirst",4,923,6300,"Include"
"ZSB2021_e1","ZSB2021_e1_39",3,67,0,"older","AssocMemFirst",2,3052,1793,"Include"
"ZSB2021_e1","ZSB2021_e1_39",3,68,1,"older","AssocMemFirst",12,1071,1605,"Include"
"ZSB2021_e1","ZSB2021_e1_39",3,69,0,"older","AssocMemFirst",4,1008,2855,"Include"
"ZSB2021_e1","ZSB2021_e1_39",3,70,1,"older","AssocMemFirst",11,1196,1435,"Include"
"ZSB2021_e1","ZSB2021_e1_39",3,71,0,"older","AssocMemFirst",2,4310,1703,"Include"
"ZSB2021_e1","ZSB2021_e1_39",3,72,1,"older","AssocMemFirst",3,1983,3397,"Include"
"ZSB2021_e1","ZSB2021_e1_39",3,73,1,"older","AssocMemFirst",3,1651,1851,"Include"
"ZSB2021_e1","ZSB2021_e1_39",3,74,1,"older","AssocMemFirst",3,1613,3244,"Include"
"ZSB2021_e1","ZSB2021_e1_39",3,75,0,"older","AssocMemFirst",3,2095,2304,"Include"
"ZSB2021_e1","ZSB2021_e1_39",3,76,1,"older","AssocMemFirst",3,1933,1702,"Include"
"ZSB2021_e1","ZSB2021_e1_39",3,77,0,"older","AssocMemFirst",3,1351,3538,"Include"
"ZSB2021_e1","ZSB2021_e1_39",3,78,0,"older","AssocMemFirst",10,1521,2932,"Include"
"ZSB2021_e1","ZSB2021_e1_39",3,79,0,"older","AssocMemFirst",3,1779,1791,"Include"
"ZSB2021_e1","ZSB2021_e1_39",3,80,0,"older","AssocMemFirst",10,1325,4503,"Include"
"ZSB2021_e1","ZSB2021_e1_39",3,81,0,"older","AssocMemFirst",11,895,2395,"Include"
"ZSB2021_e1","ZSB2021_e1_39",3,82,1,"older","AssocMemFirst",12,1015,2830,"Include"
"ZSB2021_e1","ZSB2021_e1_39",3,83,1,"older","AssocMemFirst",3,2019,1625,"Include"
"ZSB2021_e1","ZSB2021_e1_39",3,84,0,"older","AssocMemFirst",2,2379,1525,"Include"
"ZSB2021_e1","ZSB2021_e1_39",3,85,1,"older","AssocMemFirst",3,2297,2415,"Include"
"ZSB2021_e1","ZSB2021_e1_39",3,86,0,"older","AssocMemFirst",10,1114,3441,"Include"
"ZSB2021_e1","ZSB2021_e1_39",3,87,0,"older","AssocMemFirst",3,1507,1625,"Include"
"ZSB2021_e1","ZSB2021_e1_39",3,88,1,"older","AssocMemFirst",4,2327,3145,"Include"
"ZSB2021_e1","ZSB2021_e1_39",3,89,1,"older","AssocMemFirst",3,1980,2893,"Include"
"ZSB2021_e1","ZSB2021_e1_39",3,90,0,"older","AssocMemFirst",3,1297,1640,"Include"
"ZSB2021_e1","ZSB2021_e1_39",3,91,0,"older","AssocMemFirst",3,1392,5297,"Include"
"ZSB2021_e1","ZSB2021_e1_39",3,92,0,"older","AssocMemFirst",4,1743,1779,"Include"
"ZSB2021_e1","ZSB2021_e1_39",3,93,0,"older","AssocMemFirst",11,1962,1541,"Include"
"ZSB2021_e1","ZSB2021_e1_39",3,94,1,"older","AssocMemFirst",10,1585,3615,"Include"
"ZSB2021_e1","ZSB2021_e1_39",3,95,0,"older","AssocMemFirst",3,1807,1380,"Include"
"ZSB2021_e1","ZSB2021_e1_39",3,96,1,"older","AssocMemFirst",2,1331,1658,"Include"
"ZSB2021_e1","ZSB2021_e1_39",3,97,1,"older","AssocMemFirst",4,1152,3497,"Include"
"ZSB2021_e1","ZSB2021_e1_39",1,59,1,"older","AssocMemFirst",2,1396,5376,"Include"
"ZSB2021_e1","ZSB2021_e1_39",1,60,0,"older","AssocMemFirst",11,1015,2695,"Include"
"ZSB2021_e1","ZSB2021_e1_39",1,61,0,"older","AssocMemFirst",2,1496,2097,"Include"
"ZSB2021_e1","ZSB2021_e1_39",1,62,0,"older","AssocMemFirst",2,1157,4136,"Include"
"ZSB2021_e1","ZSB2021_e1_39",1,63,1,"older","AssocMemFirst",9,622,3753,"Include"
"ZSB2021_e1","ZSB2021_e1_39",1,64,1,"older","AssocMemFirst",11,1164,2168,"Include"
"ZSB2021_e1","ZSB2021_e1_39",1,65,1,"older","AssocMemFirst",12,1845,1569,"Include"
"ZSB2021_e1","ZSB2021_e1_39",1,66,0,"older","AssocMemFirst",3,1513,1798,"Include"
"ZSB2021_e1","ZSB2021_e1_39",1,67,1,"older","AssocMemFirst",10,1337,4015,"Include"
"ZSB2021_e1","ZSB2021_e1_39",1,68,0,"older","AssocMemFirst",3,1239,2671,"Include"
"ZSB2021_e1","ZSB2021_e1_39",1,69,0,"older","AssocMemFirst",3,1828,1976,"Include"
"ZSB2021_e1","ZSB2021_e1_39",1,70,1,"older","AssocMemFirst",3,1259,2134,"Include"
"ZSB2021_e1","ZSB2021_e1_39",1,71,1,"older","AssocMemFirst",4,1413,2636,"Include"
"ZSB2021_e1","ZSB2021_e1_39",1,72,0,"older","AssocMemFirst",11,1288,2288,"Include"
"ZSB2021_e1","ZSB2021_e1_39",1,73,1,"older","AssocMemFirst",3,1626,2983,"Include"
"ZSB2021_e1","ZSB2021_e1_39",1,74,0,"older","AssocMemFirst",3,2587,3100,"Include"
"ZSB2021_e1","ZSB2021_e1_39",1,75,0,"older","AssocMemFirst",11,1150,1470,"Include"
"ZSB2021_e1","ZSB2021_e1_39",1,76,1,"older","AssocMemFirst",10,1835,2451,"Include"
"ZSB2021_e1","ZSB2021_e1_39",1,77,1,"older","AssocMemFirst",12,593,1373,"Include"
"ZSB2021_e1","ZSB2021_e1_39",1,78,0,"older","AssocMemFirst",2,1217,2332,"Include"
"ZSB2021_e1","ZSB2021_e1_39",1,79,0,"older","AssocMemFirst",11,1266,1307,"Include"
"ZSB2021_e1","ZSB2021_e1_39",1,80,1,"older","AssocMemFirst",12,975,1730,"Include"
"ZSB2021_e1","ZSB2021_e1_39",1,81,1,"older","AssocMemFirst",11,594,1499,"Include"
"ZSB2021_e1","ZSB2021_e1_39",1,82,1,"older","AssocMemFirst",10,865,5589,"Include"
"ZSB2021_e1","ZSB2021_e1_39",1,83,0,"older","AssocMemFirst",2,1308,1609,"Include"
"ZSB2021_e1","ZSB2021_e1_39",1,84,1,"older","AssocMemFirst",10,1043,1459,"Include"
"ZSB2021_e1","ZSB2021_e1_39",1,85,0,"older","AssocMemFirst",3,1802,2333,"Include"
"ZSB2021_e1","ZSB2021_e1_39",1,86,0,"older","AssocMemFirst",3,1353,1557,"Include"
"ZSB2021_e1","ZSB2021_e1_39",1,87,1,"older","AssocMemFirst",3,1375,1854,"Include"
"ZSB2021_e1","ZSB2021_e1_39",1,88,0,"older","AssocMemFirst",3,1418,2283,"Include"
"ZSB2021_e1","ZSB2021_e1_39",1,89,1,"older","AssocMemFirst",3,2494,3028,"Include"
"ZSB2021_e1","ZSB2021_e1_39",1,90,0,"older","AssocMemFirst",3,637,2269,"Include"
"ZSB2021_e1","ZSB2021_e1_39",1,91,1,"older","AssocMemFirst",3,2332,1935,"Include"
"ZSB2021_e1","ZSB2021_e1_39",1,92,1,"older","AssocMemFirst",4,1081,3665,"Include"
"ZSB2021_e1","ZSB2021_e1_39",1,93,1,"older","AssocMemFirst",3,2173,2993,"Include"
"ZSB2021_e1","ZSB2021_e1_39",1,94,0,"older","AssocMemFirst",10,809,3649,"Include"
"ZSB2021_e1","ZSB2021_e1_39",1,95,0,"older","AssocMemFirst",3,1815,1588,"Include"
"ZSB2021_e1","ZSB2021_e1_39",1,96,0,"older","AssocMemFirst",4,2442,3257,"Include"
"ZSB2021_e1","ZSB2021_e1_39",1,97,0,"older","AssocMemFirst",11,1033,1515,"Include"
"ZSB2021_e1","ZSB2021_e1_39",1,98,1,"older","AssocMemFirst",3,1913,1707,"Include"
"ZSB2021_e1","ZSB2021_e1_39",2,59,0,"older","AssocMemFirst",12,1916,2434,"Include"
"ZSB2021_e1","ZSB2021_e1_39",2,60,0,"older","AssocMemFirst",2,2090,2466,"Include"
"ZSB2021_e1","ZSB2021_e1_39",2,61,1,"older","AssocMemFirst",12,963,1425,"Include"
"ZSB2021_e1","ZSB2021_e1_39",2,62,1,"older","AssocMemFirst",12,593,1432,"Include"
"ZSB2021_e1","ZSB2021_e1_39",2,63,0,"older","AssocMemFirst",12,1051,1501,"Include"
"ZSB2021_e1","ZSB2021_e1_39",2,64,0,"older","AssocMemFirst",3,1017,4940,"Include"
"ZSB2021_e1","ZSB2021_e1_39",2,65,1,"older","AssocMemFirst",12,639,1187,"Include"
"ZSB2021_e1","ZSB2021_e1_39",2,66,0,"older","AssocMemFirst",11,723,2000,"Include"
"ZSB2021_e1","ZSB2021_e1_39",2,67,0,"older","AssocMemFirst",3,1670,2937,"Include"
"ZSB2021_e1","ZSB2021_e1_39",2,68,1,"older","AssocMemFirst",3,1767,2454,"Include"
"ZSB2021_e1","ZSB2021_e1_39",2,69,1,"older","AssocMemFirst",10,605,1627,"Include"
"ZSB2021_e1","ZSB2021_e1_39",2,70,1,"older","AssocMemFirst",12,1135,1879,"Include"
"ZSB2021_e1","ZSB2021_e1_39",2,71,1,"older","AssocMemFirst",10,1236,2293,"Include"
"ZSB2021_e1","ZSB2021_e1_39",2,72,1,"older","AssocMemFirst",10,801,2165,"Include"
"ZSB2021_e1","ZSB2021_e1_39",2,73,1,"older","AssocMemFirst",10,1968,1372,"Include"
"ZSB2021_e1","ZSB2021_e1_39",2,74,0,"older","AssocMemFirst",11,1343,1212,"Include"
"ZSB2021_e1","ZSB2021_e1_39",2,75,0,"older","AssocMemFirst",3,1658,3116,"Include"
"ZSB2021_e1","ZSB2021_e1_39",2,76,1,"older","AssocMemFirst",4,1378,4291,"Include"
"ZSB2021_e1","ZSB2021_e1_39",2,77,0,"older","AssocMemFirst",3,2019,2358,"Include"
"ZSB2021_e1","ZSB2021_e1_39",2,78,0,"older","AssocMemFirst",3,1363,2101,"Include"
"ZSB2021_e1","ZSB2021_e1_39",2,79,0,"older","AssocMemFirst",2,1420,3376,"Include"
"ZSB2021_e1","ZSB2021_e1_39",2,80,0,"older","AssocMemFirst",2,1310,1870,"Include"
"ZSB2021_e1","ZSB2021_e1_39",2,81,1,"older","AssocMemFirst",12,749,1453,"Include"
"ZSB2021_e1","ZSB2021_e1_39",2,82,1,"older","AssocMemFirst",2,1317,1810,"Include"
"ZSB2021_e1","ZSB2021_e1_39",2,83,1,"older","AssocMemFirst",11,1123,1451,"Include"
"ZSB2021_e1","ZSB2021_e1_39",2,84,1,"older","AssocMemFirst",12,638,1761,"Include"
"ZSB2021_e1","ZSB2021_e1_39",2,85,1,"older","AssocMemFirst",11,760,1655,"Include"
"ZSB2021_e1","ZSB2021_e1_39",2,86,1,"older","AssocMemFirst",3,2129,2565,"Include"
"ZSB2021_e1","ZSB2021_e1_39",2,87,1,"older","AssocMemFirst",3,2273,1823,"Include"
"ZSB2021_e1","ZSB2021_e1_39",2,88,1,"older","AssocMemFirst",3,1177,3257,"Include"
"ZSB2021_e1","ZSB2021_e1_39",2,89,0,"older","AssocMemFirst",2,1224,1597,"Include"
"ZSB2021_e1","ZSB2021_e1_39",2,90,0,"older","AssocMemFirst",3,3671,1562,"Include"
"ZSB2021_e1","ZSB2021_e1_39",2,91,0,"older","AssocMemFirst",4,1709,3311,"Include"
"ZSB2021_e1","ZSB2021_e1_39",2,92,1,"older","AssocMemFirst",12,1526,1420,"Include"
"ZSB2021_e1","ZSB2021_e1_39",2,93,1,"older","AssocMemFirst",3,1367,5412,"Include"
"ZSB2021_e1","ZSB2021_e1_39",2,94,0,"older","AssocMemFirst",3,1442,1683,"Include"
"ZSB2021_e1","ZSB2021_e1_39",2,95,0,"older","AssocMemFirst",4,1603,4083,"Include"
"ZSB2021_e1","ZSB2021_e1_39",2,96,0,"older","AssocMemFirst",11,1179,1141,"Include"
"ZSB2021_e1","ZSB2021_e1_39",2,97,0,"older","AssocMemFirst",11,1453,3103,"Include"
"ZSB2021_e1","ZSB2021_e1_39",2,98,0,"older","AssocMemFirst",3,1757,1302,"Include"
"ZSB2021_e1","ZSB2021_e1_40",2,39,0,"older","RecogFirst",3,1505,4599,"Include"
"ZSB2021_e1","ZSB2021_e1_40",2,40,1,"older","RecogFirst",12,1236,1976,"Include"
"ZSB2021_e1","ZSB2021_e1_40",2,41,1,"older","RecogFirst",10,1595,1741,"Include"
"ZSB2021_e1","ZSB2021_e1_40",2,42,0,"older","RecogFirst",10,1301,2094,"Include"
"ZSB2021_e1","ZSB2021_e1_40",2,43,1,"older","RecogFirst",11,1757,1836,"Include"
"ZSB2021_e1","ZSB2021_e1_40",2,44,1,"older","RecogFirst",10,1141,2794,"Include"
"ZSB2021_e1","ZSB2021_e1_40",2,45,1,"older","RecogFirst",12,1205,1419,"Include"
"ZSB2021_e1","ZSB2021_e1_40",2,46,0,"older","RecogFirst",3,962,2399,"Include"
"ZSB2021_e1","ZSB2021_e1_40",2,47,0,"older","RecogFirst",3,1041,2415,"Include"
"ZSB2021_e1","ZSB2021_e1_40",2,48,1,"older","RecogFirst",12,1113,1506,"Include"
"ZSB2021_e1","ZSB2021_e1_40",2,49,0,"older","RecogFirst",2,1023,2271,"Include"
"ZSB2021_e1","ZSB2021_e1_40",2,50,0,"older","RecogFirst",2,1157,2393,"Include"
"ZSB2021_e1","ZSB2021_e1_40",2,51,1,"older","RecogFirst",12,1184,1697,"Include"
"ZSB2021_e1","ZSB2021_e1_40",2,52,0,"older","RecogFirst",2,967,2371,"Include"
"ZSB2021_e1","ZSB2021_e1_40",2,53,1,"older","RecogFirst",3,1241,2123,"Include"
"ZSB2021_e1","ZSB2021_e1_40",2,54,1,"older","RecogFirst",3,995,3651,"Include"
"ZSB2021_e1","ZSB2021_e1_40",2,55,1,"older","RecogFirst",10,921,2415,"Include"
"ZSB2021_e1","ZSB2021_e1_40",2,56,1,"older","RecogFirst",10,1071,2247,"Include"
"ZSB2021_e1","ZSB2021_e1_40",2,57,0,"older","RecogFirst",3,961,2015,"Include"
"ZSB2021_e1","ZSB2021_e1_40",2,58,1,"older","RecogFirst",3,1006,2278,"Include"
"ZSB2021_e1","ZSB2021_e1_40",2,59,1,"older","RecogFirst",3,984,2089,"Include"
"ZSB2021_e1","ZSB2021_e1_40",2,60,0,"older","RecogFirst",3,1057,2115,"Include"
"ZSB2021_e1","ZSB2021_e1_40",2,61,0,"older","RecogFirst",9,995,3050,"Include"
"ZSB2021_e1","ZSB2021_e1_40",2,62,1,"older","RecogFirst",10,1097,2190,"Include"
"ZSB2021_e1","ZSB2021_e1_40",2,63,1,"older","RecogFirst",11,1109,1977,"Include"
"ZSB2021_e1","ZSB2021_e1_40",2,64,0,"older","RecogFirst",10,970,3299,"Include"
"ZSB2021_e1","ZSB2021_e1_40",2,65,1,"older","RecogFirst",12,1101,1910,"Include"
"ZSB2021_e1","ZSB2021_e1_40",2,66,0,"older","RecogFirst",3,957,1443,"Include"
"ZSB2021_e1","ZSB2021_e1_40",2,67,1,"older","RecogFirst",11,1201,1465,"Include"
"ZSB2021_e1","ZSB2021_e1_40",2,68,1,"older","RecogFirst",3,1041,2756,"Include"
"ZSB2021_e1","ZSB2021_e1_40",2,69,0,"older","RecogFirst",3,1151,1938,"Include"
"ZSB2021_e1","ZSB2021_e1_40",2,70,0,"older","RecogFirst",3,1045,1436,"Include"
"ZSB2021_e1","ZSB2021_e1_40",2,71,0,"older","RecogFirst",10,936,1647,"Include"
"ZSB2021_e1","ZSB2021_e1_40",2,72,0,"older","RecogFirst",10,893,2477,"Include"
"ZSB2021_e1","ZSB2021_e1_40",2,73,1,"older","RecogFirst",10,929,3549,"Include"
"ZSB2021_e1","ZSB2021_e1_40",2,74,0,"older","RecogFirst",3,901,1919,"Include"
"ZSB2021_e1","ZSB2021_e1_40",2,75,0,"older","RecogFirst",4,1629,2044,"Include"
"ZSB2021_e1","ZSB2021_e1_40",2,76,1,"older","RecogFirst",10,1379,2167,"Include"
"ZSB2021_e1","ZSB2021_e1_40",2,77,0,"older","RecogFirst",3,1029,2135,"Include"
"ZSB2021_e1","ZSB2021_e1_40",2,78,0,"older","RecogFirst",2,1961,1399,"Include"
"ZSB2021_e1","ZSB2021_e1_40",3,39,1,"older","RecogFirst",10,1123,3659,"Include"
"ZSB2021_e1","ZSB2021_e1_40",3,40,0,"older","RecogFirst",10,711,1545,"Include"
"ZSB2021_e1","ZSB2021_e1_40",3,41,1,"older","RecogFirst",12,527,1621,"Include"
"ZSB2021_e1","ZSB2021_e1_40",3,42,1,"older","RecogFirst",3,1009,2565,"Include"
"ZSB2021_e1","ZSB2021_e1_40",3,43,0,"older","RecogFirst",3,1080,3172,"Include"
"ZSB2021_e1","ZSB2021_e1_40",3,44,0,"older","RecogFirst",3,2213,2144,"Include"
"ZSB2021_e1","ZSB2021_e1_40",3,45,0,"older","RecogFirst",2,1102,1528,"Include"
"ZSB2021_e1","ZSB2021_e1_40",3,46,0,"older","RecogFirst",11,1007,3421,"Include"
"ZSB2021_e1","ZSB2021_e1_40",3,47,1,"older","RecogFirst",11,895,2121,"Include"
"ZSB2021_e1","ZSB2021_e1_40",3,48,1,"older","RecogFirst",3,1043,2767,"Include"
"ZSB2021_e1","ZSB2021_e1_40",3,49,0,"older","RecogFirst",3,1039,3212,"Include"
"ZSB2021_e1","ZSB2021_e1_40",3,50,0,"older","RecogFirst",1,957,1536,"Include"
"ZSB2021_e1","ZSB2021_e1_40",3,51,0,"older","RecogFirst",1,969,1290,"Include"
"ZSB2021_e1","ZSB2021_e1_40",3,52,1,"older","RecogFirst",12,939,1717,"Include"
"ZSB2021_e1","ZSB2021_e1_40",3,53,0,"older","RecogFirst",12,867,1425,"Include"
"ZSB2021_e1","ZSB2021_e1_40",3,54,0,"older","RecogFirst",3,982,2187,"Include"
"ZSB2021_e1","ZSB2021_e1_40",3,55,1,"older","RecogFirst",11,1237,1736,"Include"
"ZSB2021_e1","ZSB2021_e1_40",3,56,0,"older","RecogFirst",2,2002,2383,"Include"
"ZSB2021_e1","ZSB2021_e1_40",3,57,1,"older","RecogFirst",10,937,4948,"Include"
"ZSB2021_e1","ZSB2021_e1_40",3,58,1,"older","RecogFirst",11,1075,2734,"Include"
"ZSB2021_e1","ZSB2021_e1_40",3,59,1,"older","RecogFirst",11,1073,1523,"Include"
"ZSB2021_e1","ZSB2021_e1_40",3,60,1,"older","RecogFirst",11,1009,1889,"Include"
"ZSB2021_e1","ZSB2021_e1_40",3,61,1,"older","RecogFirst",2,1723,2867,"Include"
"ZSB2021_e1","ZSB2021_e1_40",3,62,1,"older","RecogFirst",2,1227,2241,"Include"
"ZSB2021_e1","ZSB2021_e1_40",3,63,1,"older","RecogFirst",11,963,1709,"Include"
"ZSB2021_e1","ZSB2021_e1_40",3,64,0,"older","RecogFirst",3,1237,4552,"Include"
"ZSB2021_e1","ZSB2021_e1_40",3,65,1,"older","RecogFirst",3,951,2038,"Include"
"ZSB2021_e1","ZSB2021_e1_40",3,66,1,"older","RecogFirst",10,1257,2548,"Include"
"ZSB2021_e1","ZSB2021_e1_40",3,67,1,"older","RecogFirst",3,1469,3385,"Include"
"ZSB2021_e1","ZSB2021_e1_40",3,68,0,"older","RecogFirst",2,940,2093,"Include"
"ZSB2021_e1","ZSB2021_e1_40",3,69,0,"older","RecogFirst",2,985,1673,"Include"
"ZSB2021_e1","ZSB2021_e1_40",3,70,0,"older","RecogFirst",10,1187,1917,"Include"
"ZSB2021_e1","ZSB2021_e1_40",3,71,0,"older","RecogFirst",2,1265,2998,"Include"
"ZSB2021_e1","ZSB2021_e1_40",3,72,0,"older","RecogFirst",2,1027,1625,"Include"
"ZSB2021_e1","ZSB2021_e1_40",3,73,1,"older","RecogFirst",12,367,2445,"Include"
"ZSB2021_e1","ZSB2021_e1_40",3,74,1,"older","RecogFirst",12,301,1419,"Include"
"ZSB2021_e1","ZSB2021_e1_40",3,75,0,"older","RecogFirst",1,547,1475,"Include"
"ZSB2021_e1","ZSB2021_e1_40",3,76,0,"older","RecogFirst",3,442,1841,"Include"
"ZSB2021_e1","ZSB2021_e1_40",3,77,1,"older","RecogFirst",10,969,3123,"Include"
"ZSB2021_e1","ZSB2021_e1_40",3,78,0,"older","RecogFirst",3,1161,1589,"Include"
"ZSB2021_e1","ZSB2021_e1_40",1,39,0,"older","RecogFirst",9,295,5554,"Include"
"ZSB2021_e1","ZSB2021_e1_40",1,40,0,"older","RecogFirst",1,439,2262,"Include"
"ZSB2021_e1","ZSB2021_e1_40",1,41,1,"older","RecogFirst",10,980,2976,"Include"
"ZSB2021_e1","ZSB2021_e1_40",1,42,1,"older","RecogFirst",12,409,1856,"Include"
"ZSB2021_e1","ZSB2021_e1_40",1,43,0,"older","RecogFirst",3,226,3299,"Include"
"ZSB2021_e1","ZSB2021_e1_40",1,44,0,"older","RecogFirst",10,853,3860,"Include"
"ZSB2021_e1","ZSB2021_e1_40",1,45,1,"older","RecogFirst",10,373,2877,"Include"
"ZSB2021_e1","ZSB2021_e1_40",1,46,0,"older","RecogFirst",3,633,2465,"Include"
"ZSB2021_e1","ZSB2021_e1_40",1,47,1,"older","RecogFirst",12,407,1547,"Include"
"ZSB2021_e1","ZSB2021_e1_40",1,48,0,"older","RecogFirst",1,74,2074,"Include"
"ZSB2021_e1","ZSB2021_e1_40",1,49,0,"older","RecogFirst",1,25,1506,"Include"
"ZSB2021_e1","ZSB2021_e1_40",1,50,1,"older","RecogFirst",12,359,1355,"Include"
"ZSB2021_e1","ZSB2021_e1_40",1,51,1,"older","RecogFirst",10,520,3364,"Include"
"ZSB2021_e1","ZSB2021_e1_40",1,52,0,"older","RecogFirst",10,565,2686,"Include"
"ZSB2021_e1","ZSB2021_e1_40",1,53,1,"older","RecogFirst",12,900,1081,"Include"
"ZSB2021_e1","ZSB2021_e1_40",1,54,1,"older","RecogFirst",10,540,2151,"Include"
"ZSB2021_e1","ZSB2021_e1_40",1,55,0,"older","RecogFirst",10,383,4338,"Include"
"ZSB2021_e1","ZSB2021_e1_40",1,56,1,"older","RecogFirst",11,399,2930,"Include"
"ZSB2021_e1","ZSB2021_e1_40",1,57,1,"older","RecogFirst",1,393,1915,"Include"
"ZSB2021_e1","ZSB2021_e1_40",1,58,0,"older","RecogFirst",2,557,2452,"Include"
"ZSB2021_e1","ZSB2021_e1_40",1,59,1,"older","RecogFirst",3,442,2249,"Include"
"ZSB2021_e1","ZSB2021_e1_40",1,60,0,"older","RecogFirst",3,411,2091,"Include"
"ZSB2021_e1","ZSB2021_e1_40",1,61,0,"older","RecogFirst",11,669,1877,"Include"
"ZSB2021_e1","ZSB2021_e1_40",1,62,0,"older","RecogFirst",11,536,1405,"Include"
"ZSB2021_e1","ZSB2021_e1_40",1,63,0,"older","RecogFirst",3,366,2853,"Include"
"ZSB2021_e1","ZSB2021_e1_40",1,64,1,"older","RecogFirst",3,398,1995,"Include"
"ZSB2021_e1","ZSB2021_e1_40",1,65,0,"older","RecogFirst",3,382,2561,"Include"
"ZSB2021_e1","ZSB2021_e1_40",1,66,1,"older","RecogFirst",10,374,2361,"Include"
"ZSB2021_e1","ZSB2021_e1_40",1,67,0,"older","RecogFirst",11,485,4394,"Include"
"ZSB2021_e1","ZSB2021_e1_40",1,68,0,"older","RecogFirst",3,417,1557,"Include"
"ZSB2021_e1","ZSB2021_e1_40",1,69,1,"older","RecogFirst",11,377,2515,"Include"
"ZSB2021_e1","ZSB2021_e1_40",1,70,0,"older","RecogFirst",10,369,2381,"Include"
"ZSB2021_e1","ZSB2021_e1_40",1,71,1,"older","RecogFirst",12,353,1365,"Include"
"ZSB2021_e1","ZSB2021_e1_40",1,72,1,"older","RecogFirst",12,322,1189,"Include"
"ZSB2021_e1","ZSB2021_e1_40",1,73,0,"older","RecogFirst",2,408,1431,"Include"
"ZSB2021_e1","ZSB2021_e1_40",1,74,1,"older","RecogFirst",11,586,2291,"Include"
"ZSB2021_e1","ZSB2021_e1_40",1,75,1,"older","RecogFirst",11,613,1877,"Include"
"ZSB2021_e1","ZSB2021_e1_40",1,76,1,"older","RecogFirst",10,251,7784,"Include"
"ZSB2021_e1","ZSB2021_e1_40",1,77,0,"older","RecogFirst",10,251,2908,"Include"
"ZSB2021_e1","ZSB2021_e1_40",1,78,1,"older","RecogFirst",2,393,1915,"Include"
"ZSB2021_e1","ZSB2021_e1_40",2,40,1,"older","RecogFirst",10,1141,2377,"Include"
"ZSB2021_e1","ZSB2021_e1_40",2,41,1,"older","RecogFirst",3,516,3043,"Include"
"ZSB2021_e1","ZSB2021_e1_40",2,42,0,"older","RecogFirst",3,489,1523,"Include"
"ZSB2021_e1","ZSB2021_e1_40",2,43,0,"older","RecogFirst",3,457,2048,"Include"
"ZSB2021_e1","ZSB2021_e1_40",2,44,0,"older","RecogFirst",10,439,1729,"Include"
"ZSB2021_e1","ZSB2021_e1_40",2,45,1,"older","RecogFirst",10,689,2665,"Include"
"ZSB2021_e1","ZSB2021_e1_40",2,46,1,"older","RecogFirst",10,371,2600,"Include"
"ZSB2021_e1","ZSB2021_e1_40",2,47,1,"older","RecogFirst",3,521,1799,"Include"
"ZSB2021_e1","ZSB2021_e1_40",2,48,0,"older","RecogFirst",3,361,2039,"Include"
"ZSB2021_e1","ZSB2021_e1_40",2,49,1,"older","RecogFirst",10,435,2517,"Include"
"ZSB2021_e1","ZSB2021_e1_40",2,50,0,"older","RecogFirst",10,705,1957,"Include"
"ZSB2021_e1","ZSB2021_e1_40",2,51,1,"older","RecogFirst",1,656,2264,"Include"
"ZSB2021_e1","ZSB2021_e1_40",2,52,1,"older","RecogFirst",10,508,1785,"Include"
"ZSB2021_e1","ZSB2021_e1_40",2,53,1,"older","RecogFirst",12,453,1819,"Include"
"ZSB2021_e1","ZSB2021_e1_40",2,54,1,"older","RecogFirst",12,575,1221,"Include"
"ZSB2021_e1","ZSB2021_e1_40",2,55,0,"older","RecogFirst",3,661,2419,"Include"
"ZSB2021_e1","ZSB2021_e1_40",2,56,0,"older","RecogFirst",3,602,1566,"Include"
"ZSB2021_e1","ZSB2021_e1_40",2,57,1,"older","RecogFirst",3,385,2373,"Include"
"ZSB2021_e1","ZSB2021_e1_40",2,58,1,"older","RecogFirst",10,577,1348,"Include"
"ZSB2021_e1","ZSB2021_e1_40",2,59,0,"older","RecogFirst",3,462,2837,"Include"
"ZSB2021_e1","ZSB2021_e1_40",2,60,0,"older","RecogFirst",9,759,4455,"Include"
"ZSB2021_e1","ZSB2021_e1_40",2,61,0,"older","RecogFirst",3,658,1716,"Include"
"ZSB2021_e1","ZSB2021_e1_40",2,62,1,"older","RecogFirst",3,599,3779,"Include"
"ZSB2021_e1","ZSB2021_e1_40",2,63,1,"older","RecogFirst",10,539,1417,"Include"
"ZSB2021_e1","ZSB2021_e1_40",2,64,1,"older","RecogFirst",10,765,1177,"Include"
"ZSB2021_e1","ZSB2021_e1_40",2,65,0,"older","RecogFirst",3,708,1601,"Include"
"ZSB2021_e1","ZSB2021_e1_40",2,66,0,"older","RecogFirst",3,598,1587,"Include"
"ZSB2021_e1","ZSB2021_e1_40",2,67,0,"older","RecogFirst",2,510,1561,"Include"
"ZSB2021_e1","ZSB2021_e1_40",2,68,0,"older","RecogFirst",10,1067,1301,"Include"
"ZSB2021_e1","ZSB2021_e1_40",2,69,1,"older","RecogFirst",12,1408,1549,"Include"
"ZSB2021_e1","ZSB2021_e1_40",2,70,0,"older","RecogFirst",3,607,1379,"Include"
"ZSB2021_e1","ZSB2021_e1_40",2,71,1,"older","RecogFirst",12,569,1865,"Include"
"ZSB2021_e1","ZSB2021_e1_40",2,72,0,"older","RecogFirst",10,485,1677,"Include"
"ZSB2021_e1","ZSB2021_e1_40",2,73,0,"older","RecogFirst",3,471,3013,"Include"
"ZSB2021_e1","ZSB2021_e1_40",2,74,0,"older","RecogFirst",10,471,2071,"Include"
"ZSB2021_e1","ZSB2021_e1_40",2,75,0,"older","RecogFirst",3,448,4047,"Include"
"ZSB2021_e1","ZSB2021_e1_40",2,76,0,"older","RecogFirst",3,425,1481,"Include"
"ZSB2021_e1","ZSB2021_e1_40",2,77,1,"older","RecogFirst",10,605,1419,"Include"
"ZSB2021_e1","ZSB2021_e1_40",2,78,1,"older","RecogFirst",10,469,2135,"Include"
"ZSB2021_e1","ZSB2021_e1_40",2,79,1,"older","RecogFirst",3,460,3885,"Include"
"ZSB2021_e1","ZSB2021_e1_42",2,60,0,"older","AssocMemFirst",3,824,3014,"Include"
"ZSB2021_e1","ZSB2021_e1_42",2,61,1,"older","AssocMemFirst",12,272,1538,"Include"
"ZSB2021_e1","ZSB2021_e1_42",2,62,0,"older","AssocMemFirst",4,494,2904,"Include"
"ZSB2021_e1","ZSB2021_e1_42",2,63,0,"older","AssocMemFirst",4,367,1446,"Include"
"ZSB2021_e1","ZSB2021_e1_42",2,64,1,"older","AssocMemFirst",12,140,1251,"Include"
"ZSB2021_e1","ZSB2021_e1_42",2,65,1,"older","AssocMemFirst",4,499,2017,"Include"
"ZSB2021_e1","ZSB2021_e1_42",2,66,1,"older","AssocMemFirst",12,131,1234,"Include"
"ZSB2021_e1","ZSB2021_e1_42",2,67,1,"older","AssocMemFirst",12,230,1537,"Include"
"ZSB2021_e1","ZSB2021_e1_42",2,68,1,"older","AssocMemFirst",12,121,1256,"Include"
"ZSB2021_e1","ZSB2021_e1_42",2,69,1,"older","AssocMemFirst",4,10,3199,"Include"
"ZSB2021_e1","ZSB2021_e1_42",2,70,0,"older","AssocMemFirst",4,2579,3051,"Include"
"ZSB2021_e1","ZSB2021_e1_42",2,71,0,"older","AssocMemFirst",4,1279,2871,"Include"
"ZSB2021_e1","ZSB2021_e1_42",2,72,1,"older","AssocMemFirst",10,687,2079,"Include"
"ZSB2021_e1","ZSB2021_e1_42",2,73,0,"older","AssocMemFirst",4,49,2606,"Include"
"ZSB2021_e1","ZSB2021_e1_42",2,74,1,"older","AssocMemFirst",10,156,4026,"Include"
"ZSB2021_e1","ZSB2021_e1_42",2,75,0,"older","AssocMemFirst",4,678,2136,"Include"
"ZSB2021_e1","ZSB2021_e1_42",2,76,0,"older","AssocMemFirst",3,468,2710,"Include"
"ZSB2021_e1","ZSB2021_e1_42",2,77,1,"older","AssocMemFirst",10,690,2124,"Include"
"ZSB2021_e1","ZSB2021_e1_42",2,78,0,"older","AssocMemFirst",4,686,1778,"Include"
"ZSB2021_e1","ZSB2021_e1_42",2,79,1,"older","AssocMemFirst",10,685,2245,"Include"
"ZSB2021_e1","ZSB2021_e1_42",2,80,0,"older","AssocMemFirst",9,820,5702,"Include"
"ZSB2021_e1","ZSB2021_e1_42",2,81,0,"older","AssocMemFirst",4,42,2782,"Include"
"ZSB2021_e1","ZSB2021_e1_42",2,82,1,"older","AssocMemFirst",10,652,1659,"Include"
"ZSB2021_e1","ZSB2021_e1_42",2,83,0,"older","AssocMemFirst",4,426,3588,"Include"
"ZSB2021_e1","ZSB2021_e1_42",2,84,1,"older","AssocMemFirst",10,522,1850,"Include"
"ZSB2021_e1","ZSB2021_e1_42",2,85,0,"older","AssocMemFirst",3,480,3264,"Include"
"ZSB2021_e1","ZSB2021_e1_42",2,86,1,"older","AssocMemFirst",11,971,1400,"Include"
"ZSB2021_e1","ZSB2021_e1_42",2,87,1,"older","AssocMemFirst",12,560,1247,"Include"
"ZSB2021_e1","ZSB2021_e1_42",2,88,0,"older","AssocMemFirst",4,675,1884,"Include"
"ZSB2021_e1","ZSB2021_e1_42",2,89,1,"older","AssocMemFirst",12,959,1321,"Include"
"ZSB2021_e1","ZSB2021_e1_42",2,90,1,"older","AssocMemFirst",12,456,1380,"Include"
"ZSB2021_e1","ZSB2021_e1_42",2,91,0,"older","AssocMemFirst",10,873,3256,"Include"
"ZSB2021_e1","ZSB2021_e1_42",2,92,1,"older","AssocMemFirst",10,504,1697,"Include"
"ZSB2021_e1","ZSB2021_e1_42",2,93,0,"older","AssocMemFirst",10,484,4542,"Include"
"ZSB2021_e1","ZSB2021_e1_42",2,94,0,"older","AssocMemFirst",3,442,2083,"Include"
"ZSB2021_e1","ZSB2021_e1_42",2,95,0,"older","AssocMemFirst",3,443,1292,"Include"
"ZSB2021_e1","ZSB2021_e1_42",2,96,1,"older","AssocMemFirst",12,816,1588,"Include"
"ZSB2021_e1","ZSB2021_e1_42",2,97,1,"older","AssocMemFirst",11,842,2658,"Include"
"ZSB2021_e1","ZSB2021_e1_42",2,98,0,"older","AssocMemFirst",4,715,2692,"Include"
"ZSB2021_e1","ZSB2021_e1_42",2,99,0,"older","AssocMemFirst",4,440,2914,"Include"
"ZSB2021_e1","ZSB2021_e1_42",3,60,0,"older","AssocMemFirst",4,594,3107,"Include"
"ZSB2021_e1","ZSB2021_e1_42",3,61,0,"older","AssocMemFirst",4,438,3837,"Include"
"ZSB2021_e1","ZSB2021_e1_42",3,62,1,"older","AssocMemFirst",12,360,1448,"Include"
"ZSB2021_e1","ZSB2021_e1_42",3,63,0,"older","AssocMemFirst",4,449,1565,"Include"
"ZSB2021_e1","ZSB2021_e1_42",3,64,0,"older","AssocMemFirst",11,722,2450,"Include"
"ZSB2021_e1","ZSB2021_e1_42",3,65,1,"older","AssocMemFirst",12,488,1688,"Include"
"ZSB2021_e1","ZSB2021_e1_42",3,66,1,"older","AssocMemFirst",12,430,1111,"Include"
"ZSB2021_e1","ZSB2021_e1_42",3,67,1,"older","AssocMemFirst",12,392,1080,"Include"
"ZSB2021_e1","ZSB2021_e1_42",3,68,1,"older","AssocMemFirst",4,66,3099,"Include"
"ZSB2021_e1","ZSB2021_e1_42",3,69,1,"older","AssocMemFirst",12,479,1338,"Include"
"ZSB2021_e1","ZSB2021_e1_42",3,70,0,"older","AssocMemFirst",4,460,2159,"Include"
"ZSB2021_e1","ZSB2021_e1_42",3,71,1,"older","AssocMemFirst",10,529,4156,"Include"
"ZSB2021_e1","ZSB2021_e1_42",3,72,0,"older","AssocMemFirst",10,477,2327,"Include"
"ZSB2021_e1","ZSB2021_e1_42",3,73,1,"older","AssocMemFirst",11,432,1213,"Include"
"ZSB2021_e1","ZSB2021_e1_42",3,74,0,"older","AssocMemFirst",9,362,4066,"Include"
"ZSB2021_e1","ZSB2021_e1_42",3,75,0,"older","AssocMemFirst",9,332,3534,"Include"
"ZSB2021_e1","ZSB2021_e1_42",3,76,1,"older","AssocMemFirst",4,346,1850,"Include"
"ZSB2021_e1","ZSB2021_e1_42",3,77,1,"older","AssocMemFirst",4,314,4200,"Include"
"ZSB2021_e1","ZSB2021_e1_42",3,78,1,"older","AssocMemFirst",12,410,1249,"Include"
"ZSB2021_e1","ZSB2021_e1_42",3,79,0,"older","AssocMemFirst",4,446,1244,"Include"
"ZSB2021_e1","ZSB2021_e1_42",3,80,1,"older","AssocMemFirst",11,404,1343,"Include"
"ZSB2021_e1","ZSB2021_e1_42",3,81,1,"older","AssocMemFirst",11,374,1111,"Include"
"ZSB2021_e1","ZSB2021_e1_42",3,82,1,"older","AssocMemFirst",11,399,946,"Include"
"ZSB2021_e1","ZSB2021_e1_42",3,83,0,"older","AssocMemFirst",4,460,1418,"Include"
"ZSB2021_e1","ZSB2021_e1_42",3,84,0,"older","AssocMemFirst",10,386,2516,"Include"
"ZSB2021_e1","ZSB2021_e1_42",3,85,0,"older","AssocMemFirst",10,423,3046,"Include"
"ZSB2021_e1","ZSB2021_e1_42",3,86,1,"older","AssocMemFirst",10,356,1209,"Include"
"ZSB2021_e1","ZSB2021_e1_42",3,87,1,"older","AssocMemFirst",9,458,3616,"Include"
"ZSB2021_e1","ZSB2021_e1_42",3,88,0,"older","AssocMemFirst",11,431,2771,"Include"
"ZSB2021_e1","ZSB2021_e1_42",3,89,1,"older","AssocMemFirst",9,136,2081,"Include"
"ZSB2021_e1","ZSB2021_e1_42",3,90,1,"older","AssocMemFirst",9,389,1094,"Include"
"ZSB2021_e1","ZSB2021_e1_42",3,91,0,"older","AssocMemFirst",4,419,3200,"Include"
"ZSB2021_e1","ZSB2021_e1_42",3,92,0,"older","AssocMemFirst",8,358,5261,"Include"
"ZSB2021_e1","ZSB2021_e1_42",3,93,0,"older","AssocMemFirst",4,438,3978,"Include"
"ZSB2021_e1","ZSB2021_e1_42",3,94,0,"older","AssocMemFirst",4,624,3048,"Include"
"ZSB2021_e1","ZSB2021_e1_42",3,95,0,"older","AssocMemFirst",4,348,3418,"Include"
"ZSB2021_e1","ZSB2021_e1_42",3,96,1,"older","AssocMemFirst",12,398,1354,"Include"
"ZSB2021_e1","ZSB2021_e1_42",3,97,0,"older","AssocMemFirst",4,324,4418,"Include"
"ZSB2021_e1","ZSB2021_e1_42",3,98,1,"older","AssocMemFirst",9,340,2018,"Include"
"ZSB2021_e1","ZSB2021_e1_42",3,99,0,"older","AssocMemFirst",4,349,2569,"Include"
"ZSB2021_e1","ZSB2021_e1_42",1,59,0,"older","AssocMemFirst",1,2235,3083,"Include"
"ZSB2021_e1","ZSB2021_e1_42",1,60,1,"older","AssocMemFirst",1,192,4372,"Include"
"ZSB2021_e1","ZSB2021_e1_42",1,61,1,"older","AssocMemFirst",11,1352,1563,"Include"
"ZSB2021_e1","ZSB2021_e1_42",1,62,1,"older","AssocMemFirst",12,1191,1229,"Include"
"ZSB2021_e1","ZSB2021_e1_42",1,63,1,"older","AssocMemFirst",12,491,1242,"Include"
"ZSB2021_e1","ZSB2021_e1_42",1,64,0,"older","AssocMemFirst",3,312,2947,"Include"
"ZSB2021_e1","ZSB2021_e1_42",1,65,1,"older","AssocMemFirst",12,282,1191,"Include"
"ZSB2021_e1","ZSB2021_e1_42",1,66,0,"older","AssocMemFirst",3,542,3361,"Include"
"ZSB2021_e1","ZSB2021_e1_42",1,67,0,"older","AssocMemFirst",11,1106,2507,"Include"
"ZSB2021_e1","ZSB2021_e1_42",1,68,1,"older","AssocMemFirst",11,414,1145,"Include"
"ZSB2021_e1","ZSB2021_e1_42",1,69,1,"older","AssocMemFirst",11,311,1121,"Include"
"ZSB2021_e1","ZSB2021_e1_42",1,70,1,"older","AssocMemFirst",11,323,1917,"Include"
"ZSB2021_e1","ZSB2021_e1_42",1,71,0,"older","AssocMemFirst",4,387,3425,"Include"
"ZSB2021_e1","ZSB2021_e1_42",1,72,0,"older","AssocMemFirst",11,364,3143,"Include"
"ZSB2021_e1","ZSB2021_e1_42",1,73,0,"older","AssocMemFirst",3,484,2793,"Include"
"ZSB2021_e1","ZSB2021_e1_42",1,74,1,"older","AssocMemFirst",12,179,1691,"Include"
"ZSB2021_e1","ZSB2021_e1_42",1,75,1,"older","AssocMemFirst",4,123,2751,"Include"
"ZSB2021_e1","ZSB2021_e1_42",1,76,1,"older","AssocMemFirst",10,445,1569,"Include"
"ZSB2021_e1","ZSB2021_e1_42",1,77,0,"older","AssocMemFirst",10,259,2551,"Include"
"ZSB2021_e1","ZSB2021_e1_42",1,78,1,"older","AssocMemFirst",10,148,1268,"Include"
"ZSB2021_e1","ZSB2021_e1_42",1,79,1,"older","AssocMemFirst",5,673,6665,"Include"
"ZSB2021_e1","ZSB2021_e1_42",1,80,0,"older","AssocMemFirst",4,643,4233,"Include"
"ZSB2021_e1","ZSB2021_e1_42",1,81,0,"older","AssocMemFirst",10,275,2500,"Include"
"ZSB2021_e1","ZSB2021_e1_42",1,82,1,"older","AssocMemFirst",10,364,3035,"Include"
"ZSB2021_e1","ZSB2021_e1_42",1,83,0,"older","AssocMemFirst",3,551,1505,"Include"
"ZSB2021_e1","ZSB2021_e1_42",1,84,0,"older","AssocMemFirst",4,332,7076,"Include"
"ZSB2021_e1","ZSB2021_e1_42",1,85,1,"older","AssocMemFirst",11,243,1425,"Include"
"ZSB2021_e1","ZSB2021_e1_42",1,86,0,"older","AssocMemFirst",3,51,2501,"Include"
"ZSB2021_e1","ZSB2021_e1_42",1,87,0,"older","AssocMemFirst",3,1178,2324,"Include"
"ZSB2021_e1","ZSB2021_e1_42",1,88,0,"older","AssocMemFirst",3,417,3990,"Include"
"ZSB2021_e1","ZSB2021_e1_42",1,89,1,"older","AssocMemFirst",11,1940,1259,"Include"
"ZSB2021_e1","ZSB2021_e1_42",1,90,0,"older","AssocMemFirst",3,329,2865,"Include"
"ZSB2021_e1","ZSB2021_e1_42",1,91,0,"older","AssocMemFirst",3,305,1639,"Include"
"ZSB2021_e1","ZSB2021_e1_42",1,92,1,"older","AssocMemFirst",12,157,1335,"Include"
"ZSB2021_e1","ZSB2021_e1_42",1,93,1,"older","AssocMemFirst",12,277,2977,"Include"
"ZSB2021_e1","ZSB2021_e1_42",1,94,0,"older","AssocMemFirst",4,79,4645,"Include"
"ZSB2021_e1","ZSB2021_e1_42",1,95,0,"older","AssocMemFirst",4,450,1391,"Include"
"ZSB2021_e1","ZSB2021_e1_42",1,96,1,"older","AssocMemFirst",4,54,2587,"Include"
"ZSB2021_e1","ZSB2021_e1_42",1,97,1,"older","AssocMemFirst",4,416,2247,"Include"
"ZSB2021_e1","ZSB2021_e1_42",1,98,0,"older","AssocMemFirst",9,33,5699,"Include"
"ZSB2021_e1","ZSB2021_e1_42",2,60,0,"older","AssocMemFirst",3,571,2933,"Include"
"ZSB2021_e1","ZSB2021_e1_42",2,61,0,"older","AssocMemFirst",9,171,4359,"Include"
"ZSB2021_e1","ZSB2021_e1_42",2,62,0,"older","AssocMemFirst",9,297,1631,"Include"
"ZSB2021_e1","ZSB2021_e1_42",2,63,0,"older","AssocMemFirst",4,399,1688,"Include"
"ZSB2021_e1","ZSB2021_e1_42",2,64,0,"older","AssocMemFirst",4,131,2859,"Include"
"ZSB2021_e1","ZSB2021_e1_42",2,65,1,"older","AssocMemFirst",12,545,1489,"Include"
"ZSB2021_e1","ZSB2021_e1_42",2,66,1,"older","AssocMemFirst",12,443,1550,"Include"
"ZSB2021_e1","ZSB2021_e1_42",2,67,0,"older","AssocMemFirst",4,393,1532,"Include"
"ZSB2021_e1","ZSB2021_e1_42",2,68,1,"older","AssocMemFirst",12,385,1357,"Include"
"ZSB2021_e1","ZSB2021_e1_42",2,69,0,"older","AssocMemFirst",10,133,4253,"Include"
"ZSB2021_e1","ZSB2021_e1_42",2,70,0,"older","AssocMemFirst",9,256,4547,"Include"
"ZSB2021_e1","ZSB2021_e1_42",2,71,0,"older","AssocMemFirst",3,400,1481,"Include"
"ZSB2021_e1","ZSB2021_e1_42",2,72,1,"older","AssocMemFirst",10,204,1435,"Include"
"ZSB2021_e1","ZSB2021_e1_42",2,73,1,"older","AssocMemFirst",9,127,2679,"Include"
"ZSB2021_e1","ZSB2021_e1_42",2,74,0,"older","AssocMemFirst",9,360,1381,"Include"
"ZSB2021_e1","ZSB2021_e1_42",2,75,1,"older","AssocMemFirst",9,472,4389,"Include"
"ZSB2021_e1","ZSB2021_e1_42",2,76,1,"older","AssocMemFirst",11,301,1136,"Include"
"ZSB2021_e1","ZSB2021_e1_42",2,77,1,"older","AssocMemFirst",9,116,3276,"Include"
"ZSB2021_e1","ZSB2021_e1_42",2,78,1,"older","AssocMemFirst",11,355,1051,"Include"
"ZSB2021_e1","ZSB2021_e1_42",2,79,1,"older","AssocMemFirst",8,108,3768,"Include"
"ZSB2021_e1","ZSB2021_e1_42",2,80,1,"older","AssocMemFirst",10,471,1379,"Include"
"ZSB2021_e1","ZSB2021_e1_42",2,81,1,"older","AssocMemFirst",11,325,1119,"Include"
"ZSB2021_e1","ZSB2021_e1_42",2,82,0,"older","AssocMemFirst",3,229,3203,"Include"
"ZSB2021_e1","ZSB2021_e1_42",2,83,1,"older","AssocMemFirst",8,276,3959,"Include"
"ZSB2021_e1","ZSB2021_e1_42",2,84,0,"older","AssocMemFirst",3,347,2300,"Include"
"ZSB2021_e1","ZSB2021_e1_42",2,85,1,"older","AssocMemFirst",11,383,1288,"Include"
"ZSB2021_e1","ZSB2021_e1_42",2,86,1,"older","AssocMemFirst",3,179,2275,"Include"
"ZSB2021_e1","ZSB2021_e1_42",2,87,0,"older","AssocMemFirst",9,285,2303,"Include"
"ZSB2021_e1","ZSB2021_e1_42",2,88,1,"older","AssocMemFirst",9,327,2405,"Include"
"ZSB2021_e1","ZSB2021_e1_42",2,89,1,"older","AssocMemFirst",9,283,2333,"Include"
"ZSB2021_e1","ZSB2021_e1_42",2,90,1,"older","AssocMemFirst",11,465,1123,"Include"
"ZSB2021_e1","ZSB2021_e1_42",2,91,0,"older","AssocMemFirst",4,366,3961,"Include"
"ZSB2021_e1","ZSB2021_e1_42",2,92,0,"older","AssocMemFirst",4,437,5003,"Include"
"ZSB2021_e1","ZSB2021_e1_42",2,93,0,"older","AssocMemFirst",4,199,6471,"Include"
"ZSB2021_e1","ZSB2021_e1_42",2,94,1,"older","AssocMemFirst",11,472,1697,"Include"
"ZSB2021_e1","ZSB2021_e1_42",2,95,0,"older","AssocMemFirst",10,87,2488,"Include"
"ZSB2021_e1","ZSB2021_e1_42",2,96,0,"older","AssocMemFirst",10,275,2751,"Include"
"ZSB2021_e1","ZSB2021_e1_42",2,97,1,"older","AssocMemFirst",3,345,1339,"Include"
"ZSB2021_e1","ZSB2021_e1_42",2,98,0,"older","AssocMemFirst",3,369,2182,"Include"
"ZSB2021_e1","ZSB2021_e1_42",2,99,0,"older","AssocMemFirst",3,293,1293,"Include"
"ZSB2021_e1","ZSB2021_e1_44",2,41,0,"older","RecogFirst",12,131,3275,"Include"
"ZSB2021_e1","ZSB2021_e1_44",2,42,0,"older","RecogFirst",4,717,3377,"Include"
"ZSB2021_e1","ZSB2021_e1_44",2,43,1,"older","RecogFirst",4,1447,2779,"Include"
"ZSB2021_e1","ZSB2021_e1_44",2,44,1,"older","RecogFirst",10,881,4273,"Include"
"ZSB2021_e1","ZSB2021_e1_44",2,45,1,"older","RecogFirst",12,996,2585,"Include"
"ZSB2021_e1","ZSB2021_e1_44",2,46,1,"older","RecogFirst",12,793,3223,"Include"
"ZSB2021_e1","ZSB2021_e1_44",2,47,0,"older","RecogFirst",1,1037,3053,"Include"
"ZSB2021_e1","ZSB2021_e1_44",2,48,0,"older","RecogFirst",10,1365,3711,"Include"
"ZSB2021_e1","ZSB2021_e1_44",2,49,0,"older","RecogFirst",2,646,2378,"Include"
"ZSB2021_e1","ZSB2021_e1_44",2,50,0,"older","RecogFirst",9,1333,3143,"Include"
"ZSB2021_e1","ZSB2021_e1_44",2,51,1,"older","RecogFirst",5,1717,6002,"Include"
"ZSB2021_e1","ZSB2021_e1_44",2,52,1,"older","RecogFirst",4,1613,4419,"Include"
"ZSB2021_e1","ZSB2021_e1_44",2,53,1,"older","RecogFirst",11,952,3663,"Include"
"ZSB2021_e1","ZSB2021_e1_44",2,54,1,"older","RecogFirst",6,2600,5981,"Include"
"ZSB2021_e1","ZSB2021_e1_44",2,55,0,"older","RecogFirst",8,1134,3587,"Include"
"ZSB2021_e1","ZSB2021_e1_44",2,56,0,"older","RecogFirst",4,1020,3059,"Include"
"ZSB2021_e1","ZSB2021_e1_44",2,57,1,"older","RecogFirst",11,823,3446,"Include"
"ZSB2021_e1","ZSB2021_e1_44",2,58,1,"older","RecogFirst",3,1479,4321,"Include"
"ZSB2021_e1","ZSB2021_e1_44",2,59,0,"older","RecogFirst",4,1056,5463,"Include"
"ZSB2021_e1","ZSB2021_e1_44",2,60,0,"older","RecogFirst",1,902,2937,"Include"
"ZSB2021_e1","ZSB2021_e1_44",2,61,0,"older","RecogFirst",3,1476,2285,"Include"
"ZSB2021_e1","ZSB2021_e1_44",2,62,0,"older","RecogFirst",1,1181,1860,"Include"
"ZSB2021_e1","ZSB2021_e1_44",2,63,1,"older","RecogFirst",12,816,3281,"Include"
"ZSB2021_e1","ZSB2021_e1_44",2,64,1,"older","RecogFirst",12,1905,2290,"Include"
"ZSB2021_e1","ZSB2021_e1_44",2,65,1,"older","RecogFirst",5,689,3840,"Include"
"ZSB2021_e1","ZSB2021_e1_44",2,66,1,"older","RecogFirst",6,2184,3497,"Include"
"ZSB2021_e1","ZSB2021_e1_44",2,67,1,"older","RecogFirst",5,1720,5555,"Include"
"ZSB2021_e1","ZSB2021_e1_44",2,68,1,"older","RecogFirst",12,1104,2230,"Include"
"ZSB2021_e1","ZSB2021_e1_44",2,69,0,"older","RecogFirst",1,871,1855,"Include"
"ZSB2021_e1","ZSB2021_e1_44",2,70,1,"older","RecogFirst",1,881,2431,"Include"
"ZSB2021_e1","ZSB2021_e1_44",2,71,0,"older","RecogFirst",8,720,3489,"Include"
"ZSB2021_e1","ZSB2021_e1_44",2,72,0,"older","RecogFirst",3,886,2270,"Include"
"ZSB2021_e1","ZSB2021_e1_44",2,73,0,"older","RecogFirst",1,959,2245,"Include"
"ZSB2021_e1","ZSB2021_e1_44",2,74,1,"older","RecogFirst",11,957,2819,"Include"
"ZSB2021_e1","ZSB2021_e1_44",2,75,0,"older","RecogFirst",3,1152,3514,"Include"
"ZSB2021_e1","ZSB2021_e1_44",2,76,0,"older","RecogFirst",3,1025,3573,"Include"
"ZSB2021_e1","ZSB2021_e1_44",2,77,1,"older","RecogFirst",3,1609,2099,"Include"
"ZSB2021_e1","ZSB2021_e1_44",2,78,0,"older","RecogFirst",3,1341,3260,"Include"
"ZSB2021_e1","ZSB2021_e1_44",2,79,0,"older","RecogFirst",4,2590,3370,"Include"
"ZSB2021_e1","ZSB2021_e1_44",2,80,1,"older","RecogFirst",9,1287,2945,"Include"
"ZSB2021_e1","ZSB2021_e1_44",3,42,1,"older","RecogFirst",12,899,2692,"Include"
"ZSB2021_e1","ZSB2021_e1_44",3,43,1,"older","RecogFirst",12,2053,2186,"Include"
"ZSB2021_e1","ZSB2021_e1_44",3,44,0,"older","RecogFirst",9,1147,2534,"Include"
"ZSB2021_e1","ZSB2021_e1_44",3,45,1,"older","RecogFirst",12,960,1896,"Include"
"ZSB2021_e1","ZSB2021_e1_44",3,46,1,"older","RecogFirst",10,1179,1900,"Include"
"ZSB2021_e1","ZSB2021_e1_44",3,47,1,"older","RecogFirst",10,1061,3327,"Include"
"ZSB2021_e1","ZSB2021_e1_44",3,48,1,"older","RecogFirst",12,855,1838,"Include"
"ZSB2021_e1","ZSB2021_e1_44",3,49,1,"older","RecogFirst",9,1114,3424,"Include"
"ZSB2021_e1","ZSB2021_e1_44",3,50,1,"older","RecogFirst",12,902,1528,"Include"
"ZSB2021_e1","ZSB2021_e1_44",3,51,0,"older","RecogFirst",11,1027,2517,"Include"
"ZSB2021_e1","ZSB2021_e1_44",3,52,0,"older","RecogFirst",5,1328,3997,"Include"
"ZSB2021_e1","ZSB2021_e1_44",3,53,1,"older","RecogFirst",11,1680,2814,"Include"
"ZSB2021_e1","ZSB2021_e1_44",3,54,1,"older","RecogFirst",9,791,3488,"Include"
"ZSB2021_e1","ZSB2021_e1_44",3,55,0,"older","RecogFirst",10,1334,3570,"Include"
"ZSB2021_e1","ZSB2021_e1_44",3,56,1,"older","RecogFirst",12,1012,1876,"Include"
"ZSB2021_e1","ZSB2021_e1_44",3,57,1,"older","RecogFirst",11,915,3950,"Include"
"ZSB2021_e1","ZSB2021_e1_44",3,58,0,"older","RecogFirst",4,2370,2066,"Include"
"ZSB2021_e1","ZSB2021_e1_44",3,59,0,"older","RecogFirst",4,1334,3478,"Include"
"ZSB2021_e1","ZSB2021_e1_44",3,60,0,"older","RecogFirst",5,1438,2803,"Include"
"ZSB2021_e1","ZSB2021_e1_44",3,61,0,"older","RecogFirst",4,1692,2735,"Include"
"ZSB2021_e1","ZSB2021_e1_44",3,62,1,"older","RecogFirst",4,1408,3156,"Include"
"ZSB2021_e1","ZSB2021_e1_44",3,63,1,"older","RecogFirst",11,916,2235,"Include"
"ZSB2021_e1","ZSB2021_e1_44",3,64,1,"older","RecogFirst",5,1660,5018,"Include"
"ZSB2021_e1","ZSB2021_e1_44",3,65,0,"older","RecogFirst",10,902,3829,"Include"
"ZSB2021_e1","ZSB2021_e1_44",3,66,0,"older","RecogFirst",4,2790,1853,"Include"
"ZSB2021_e1","ZSB2021_e1_44",3,67,0,"older","RecogFirst",11,1331,2825,"Include"
"ZSB2021_e1","ZSB2021_e1_44",3,68,1,"older","RecogFirst",12,1156,2409,"Include"
"ZSB2021_e1","ZSB2021_e1_44",3,69,0,"older","RecogFirst",6,1338,3640,"Include"
"ZSB2021_e1","ZSB2021_e1_44",3,70,0,"older","RecogFirst",4,852,6551,"Include"
"ZSB2021_e1","ZSB2021_e1_44",3,71,0,"older","RecogFirst",11,1029,3052,"Include"
"ZSB2021_e1","ZSB2021_e1_44",3,72,1,"older","RecogFirst",10,1345,3223,"Include"
"ZSB2021_e1","ZSB2021_e1_44",3,73,0,"older","RecogFirst",9,1449,5998,"Include"
"ZSB2021_e1","ZSB2021_e1_44",3,74,0,"older","RecogFirst",5,1444,5618,"Include"
"ZSB2021_e1","ZSB2021_e1_44",3,75,1,"older","RecogFirst",11,1053,2869,"Include"
"ZSB2021_e1","ZSB2021_e1_44",3,76,1,"older","RecogFirst",5,1196,2318,"Include"
"ZSB2021_e1","ZSB2021_e1_44",3,77,0,"older","RecogFirst",2,1776,2047,"Include"
"ZSB2021_e1","ZSB2021_e1_44",3,78,0,"older","RecogFirst",3,1324,4468,"Include"
"ZSB2021_e1","ZSB2021_e1_44",3,79,0,"older","RecogFirst",1,1371,2034,"Include"
"ZSB2021_e1","ZSB2021_e1_44",3,80,0,"older","RecogFirst",1,1718,1695,"Include"
"ZSB2021_e1","ZSB2021_e1_44",3,81,1,"older","RecogFirst",12,1118,2244,"Include"
"ZSB2021_e1","ZSB2021_e1_44",1,41,1,"older","RecogFirst",12,864,3913,"Include"
"ZSB2021_e1","ZSB2021_e1_44",1,42,0,"older","RecogFirst",12,1026,2232,"Include"
"ZSB2021_e1","ZSB2021_e1_44",1,43,0,"older","RecogFirst",5,1751,2388,"Include"
"ZSB2021_e1","ZSB2021_e1_44",1,44,1,"older","RecogFirst",12,916,2068,"Include"
"ZSB2021_e1","ZSB2021_e1_44",1,45,1,"older","RecogFirst",12,826,1282,"Include"
"ZSB2021_e1","ZSB2021_e1_44",1,46,0,"older","RecogFirst",3,1152,1772,"Include"
"ZSB2021_e1","ZSB2021_e1_44",1,47,0,"older","RecogFirst",12,822,1620,"Include"
"ZSB2021_e1","ZSB2021_e1_44",1,48,1,"older","RecogFirst",12,702,1520,"Include"
"ZSB2021_e1","ZSB2021_e1_44",1,49,1,"older","RecogFirst",12,712,1581,"Include"
"ZSB2021_e1","ZSB2021_e1_44",1,50,0,"older","RecogFirst",11,844,2735,"Include"
"ZSB2021_e1","ZSB2021_e1_44",1,51,0,"older","RecogFirst",5,920,3614,"Include"
"ZSB2021_e1","ZSB2021_e1_44",1,52,0,"older","RecogFirst",5,855,3630,"Include"
"ZSB2021_e1","ZSB2021_e1_44",1,53,1,"older","RecogFirst",11,742,2304,"Include"
"ZSB2021_e1","ZSB2021_e1_44",1,54,1,"older","RecogFirst",10,1163,2292,"Include"
"ZSB2021_e1","ZSB2021_e1_44",1,55,1,"older","RecogFirst",12,1140,1552,"Include"
"ZSB2021_e1","ZSB2021_e1_44",1,56,1,"older","RecogFirst",6,1844,4418,"Include"
"ZSB2021_e1","ZSB2021_e1_44",1,57,0,"older","RecogFirst",9,738,3533,"Include"
"ZSB2021_e1","ZSB2021_e1_44",1,58,0,"older","RecogFirst",3,1734,4704,"Include"
"ZSB2021_e1","ZSB2021_e1_44",1,59,0,"older","RecogFirst",12,1773,1836,"Include"
"ZSB2021_e1","ZSB2021_e1_44",1,60,0,"older","RecogFirst",5,1014,4553,"Include"
"ZSB2021_e1","ZSB2021_e1_44",1,61,1,"older","RecogFirst",3,2099,2800,"Include"
"ZSB2021_e1","ZSB2021_e1_44",1,62,0,"older","RecogFirst",3,2090,3490,"Include"
"ZSB2021_e1","ZSB2021_e1_44",1,63,0,"older","RecogFirst",5,1508,4785,"Include"
"ZSB2021_e1","ZSB2021_e1_44",1,64,0,"older","RecogFirst",10,824,3347,"Include"
"ZSB2021_e1","ZSB2021_e1_44",1,65,0,"older","RecogFirst",4,2086,3962,"Include"
"ZSB2021_e1","ZSB2021_e1_44",1,66,1,"older","RecogFirst",9,1033,3790,"Include"
"ZSB2021_e1","ZSB2021_e1_44",1,67,1,"older","RecogFirst",9,1374,3570,"Include"
"ZSB2021_e1","ZSB2021_e1_44",1,68,0,"older","RecogFirst",9,1166,3570,"Include"
"ZSB2021_e1","ZSB2021_e1_44",1,69,0,"older","RecogFirst",3,1026,1690,"Include"
"ZSB2021_e1","ZSB2021_e1_44",1,70,1,"older","RecogFirst",12,1506,1724,"Include"
"ZSB2021_e1","ZSB2021_e1_44",1,71,0,"older","RecogFirst",11,1022,2336,"Include"
"ZSB2021_e1","ZSB2021_e1_44",1,72,1,"older","RecogFirst",12,895,1896,"Include"
"ZSB2021_e1","ZSB2021_e1_44",1,73,1,"older","RecogFirst",10,1360,2838,"Include"
"ZSB2021_e1","ZSB2021_e1_44",1,74,1,"older","RecogFirst",12,1055,2412,"Include"
"ZSB2021_e1","ZSB2021_e1_44",1,75,0,"older","RecogFirst",9,892,1952,"Include"
"ZSB2021_e1","ZSB2021_e1_44",1,76,1,"older","RecogFirst",5,2310,3228,"Include"
"ZSB2021_e1","ZSB2021_e1_44",1,77,1,"older","RecogFirst",5,1231,1996,"Include"
"ZSB2021_e1","ZSB2021_e1_44",1,78,1,"older","RecogFirst",11,898,2849,"Include"
"ZSB2021_e1","ZSB2021_e1_44",1,79,1,"older","RecogFirst",12,1133,3369,"Include"
"ZSB2021_e1","ZSB2021_e1_44",1,80,0,"older","RecogFirst",3,1349,4402,"Include"
"ZSB2021_e1","ZSB2021_e1_44",2,39,1,"older","RecogFirst",12,847,2930,"Include"
"ZSB2021_e1","ZSB2021_e1_44",2,40,1,"older","RecogFirst",12,1018,1440,"Include"
"ZSB2021_e1","ZSB2021_e1_44",2,41,0,"older","RecogFirst",9,976,3364,"Include"
"ZSB2021_e1","ZSB2021_e1_44",2,42,1,"older","RecogFirst",12,976,1365,"Include"
"ZSB2021_e1","ZSB2021_e1_44",2,43,0,"older","RecogFirst",4,1732,2460,"Include"
"ZSB2021_e1","ZSB2021_e1_44",2,44,0,"older","RecogFirst",2,1155,2659,"Include"
"ZSB2021_e1","ZSB2021_e1_44",2,45,0,"older","RecogFirst",8,1282,5808,"Include"
"ZSB2021_e1","ZSB2021_e1_44",2,46,0,"older","RecogFirst",2,2826,2666,"Include"
"ZSB2021_e1","ZSB2021_e1_44",2,47,1,"older","RecogFirst",3,1758,3044,"Include"
"ZSB2021_e1","ZSB2021_e1_44",2,48,1,"older","RecogFirst",12,952,1530,"Include"
"ZSB2021_e1","ZSB2021_e1_44",2,49,1,"older","RecogFirst",4,1731,6308,"Include"
"ZSB2021_e1","ZSB2021_e1_44",2,50,1,"older","RecogFirst",4,3071,2929,"Include"
"ZSB2021_e1","ZSB2021_e1_44",2,51,0,"older","RecogFirst",5,2165,3935,"Include"
"ZSB2021_e1","ZSB2021_e1_44",2,52,1,"older","RecogFirst",7,1821,7188,"Include"
"ZSB2021_e1","ZSB2021_e1_44",2,53,1,"older","RecogFirst",3,2144,4022,"Include"
"ZSB2021_e1","ZSB2021_e1_44",2,54,0,"older","RecogFirst",2,1303,3230,"Include"
"ZSB2021_e1","ZSB2021_e1_44",2,55,0,"older","RecogFirst",2,1256,1814,"Include"
"ZSB2021_e1","ZSB2021_e1_44",2,56,0,"older","RecogFirst",12,3652,2785,"Include"
"ZSB2021_e1","ZSB2021_e1_44",2,57,0,"older","RecogFirst",10,944,3572,"Include"
"ZSB2021_e1","ZSB2021_e1_44",2,58,0,"older","RecogFirst",10,1212,2103,"Include"
"ZSB2021_e1","ZSB2021_e1_44",2,59,0,"older","RecogFirst",2,2054,2711,"Include"
"ZSB2021_e1","ZSB2021_e1_44",2,60,0,"older","RecogFirst",3,2605,2934,"Include"
"ZSB2021_e1","ZSB2021_e1_44",2,61,1,"older","RecogFirst",12,1690,3406,"Include"
"ZSB2021_e1","ZSB2021_e1_44",2,62,1,"older","RecogFirst",3,1204,4377,"Include"
"ZSB2021_e1","ZSB2021_e1_44",2,63,1,"older","RecogFirst",3,3084,4135,"Include"
"ZSB2021_e1","ZSB2021_e1_44",2,64,1,"older","RecogFirst",12,1008,2772,"Include"
"ZSB2021_e1","ZSB2021_e1_44",2,65,1,"older","RecogFirst",6,1059,8858,"Include"
"ZSB2021_e1","ZSB2021_e1_44",2,66,1,"older","RecogFirst",12,1201,2372,"Include"
"ZSB2021_e1","ZSB2021_e1_44",2,67,0,"older","RecogFirst",4,1530,3082,"Include"
"ZSB2021_e1","ZSB2021_e1_44",2,68,0,"older","RecogFirst",2,972,3568,"Include"
"ZSB2021_e1","ZSB2021_e1_44",2,69,0,"older","RecogFirst",2,1560,2864,"Include"
"ZSB2021_e1","ZSB2021_e1_44",2,70,0,"older","RecogFirst",3,1939,3701,"Include"
"ZSB2021_e1","ZSB2021_e1_44",2,71,0,"older","RecogFirst",2,1724,3785,"Include"
"ZSB2021_e1","ZSB2021_e1_44",2,72,0,"older","RecogFirst",1,3901,3202,"Include"
"ZSB2021_e1","ZSB2021_e1_44",2,73,1,"older","RecogFirst",4,1057,4739,"Include"
"ZSB2021_e1","ZSB2021_e1_44",2,74,1,"older","RecogFirst",12,945,1906,"Include"
"ZSB2021_e1","ZSB2021_e1_44",2,75,1,"older","RecogFirst",12,804,1718,"Include"
"ZSB2021_e1","ZSB2021_e1_44",2,76,1,"older","RecogFirst",4,1375,3254,"Include"
"ZSB2021_e1","ZSB2021_e1_44",2,77,1,"older","RecogFirst",12,991,4755,"Include"
"ZSB2021_e1","ZSB2021_e1_44",2,78,0,"older","RecogFirst",9,873,5123,"Include"
"ZSB2021_e1","ZSB2021_e1_46",2,58,1,"older","AssocMemFirst",12,2072,2389,"Include"
"ZSB2021_e1","ZSB2021_e1_46",2,59,1,"older","AssocMemFirst",12,1304,2072,"Include"
"ZSB2021_e1","ZSB2021_e1_46",2,60,0,"older","AssocMemFirst",11,3460,1759,"Include"
"ZSB2021_e1","ZSB2021_e1_46",2,61,1,"older","AssocMemFirst",3,1262,6644,"Include"
"ZSB2021_e1","ZSB2021_e1_46",2,62,1,"older","AssocMemFirst",12,1369,1798,"Include"
"ZSB2021_e1","ZSB2021_e1_46",2,63,1,"older","AssocMemFirst",11,2466,1757,"Include"
"ZSB2021_e1","ZSB2021_e1_46",2,64,1,"older","AssocMemFirst",10,1708,11402,"Include"
"ZSB2021_e1","ZSB2021_e1_46",2,65,1,"older","AssocMemFirst",10,2890,4891,"Include"
"ZSB2021_e1","ZSB2021_e1_46",2,66,0,"older","AssocMemFirst",9,1019,14834,"Include"
"ZSB2021_e1","ZSB2021_e1_46",2,67,0,"older","AssocMemFirst",1,1365,1869,"Include"
"ZSB2021_e1","ZSB2021_e1_46",2,68,1,"older","AssocMemFirst",11,1748,1810,"Include"
"ZSB2021_e1","ZSB2021_e1_46",2,69,0,"older","AssocMemFirst",2,2704,4322,"Include"
"ZSB2021_e1","ZSB2021_e1_46",2,70,1,"older","AssocMemFirst",11,1138,2390,"Include"
"ZSB2021_e1","ZSB2021_e1_46",2,71,1,"older","AssocMemFirst",12,715,2175,"Include"
"ZSB2021_e1","ZSB2021_e1_46",2,72,1,"older","AssocMemFirst",12,521,1682,"Include"
"ZSB2021_e1","ZSB2021_e1_46",2,73,0,"older","AssocMemFirst",10,4517,2719,"Include"
"ZSB2021_e1","ZSB2021_e1_46",2,74,0,"older","AssocMemFirst",11,1066,1883,"Include"
"ZSB2021_e1","ZSB2021_e1_46",2,75,1,"older","AssocMemFirst",10,686,5786,"Include"
"ZSB2021_e1","ZSB2021_e1_46",2,76,0,"older","AssocMemFirst",11,534,2637,"Include"
"ZSB2021_e1","ZSB2021_e1_46",2,77,0,"older","AssocMemFirst",3,1248,2772,"Include"
"ZSB2021_e1","ZSB2021_e1_46",2,78,1,"older","AssocMemFirst",11,846,1561,"Include"
"ZSB2021_e1","ZSB2021_e1_46",2,79,0,"older","AssocMemFirst",6,1725,8719,"Include"
"ZSB2021_e1","ZSB2021_e1_46",2,80,0,"older","AssocMemFirst",11,739,1875,"Include"
"ZSB2021_e1","ZSB2021_e1_46",2,81,0,"older","AssocMemFirst",3,2254,1944,"Include"
"ZSB2021_e1","ZSB2021_e1_46",2,82,0,"older","AssocMemFirst",11,1724,2334,"Include"
"ZSB2021_e1","ZSB2021_e1_46",2,83,0,"older","AssocMemFirst",11,2108,4418,"Include"
"ZSB2021_e1","ZSB2021_e1_46",2,84,0,"older","AssocMemFirst",11,596,4618,"Include"
"ZSB2021_e1","ZSB2021_e1_46",2,85,1,"older","AssocMemFirst",5,1362,4808,"Include"
"ZSB2021_e1","ZSB2021_e1_46",2,86,1,"older","AssocMemFirst",12,922,2191,"Include"
"ZSB2021_e1","ZSB2021_e1_46",2,87,0,"older","AssocMemFirst",12,630,1744,"Include"
"ZSB2021_e1","ZSB2021_e1_46",2,88,1,"older","AssocMemFirst",11,648,1648,"Include"
"ZSB2021_e1","ZSB2021_e1_46",2,89,1,"older","AssocMemFirst",12,570,1650,"Include"
"ZSB2021_e1","ZSB2021_e1_46",2,90,0,"older","AssocMemFirst",9,5994,4790,"Include"
"ZSB2021_e1","ZSB2021_e1_46",2,91,0,"older","AssocMemFirst",11,644,1701,"Include"
"ZSB2021_e1","ZSB2021_e1_46",2,92,0,"older","AssocMemFirst",10,2314,1933,"Include"
"ZSB2021_e1","ZSB2021_e1_46",2,93,1,"older","AssocMemFirst",11,591,1521,"Include"
"ZSB2021_e1","ZSB2021_e1_46",2,94,1,"older","AssocMemFirst",11,606,1778,"Include"
"ZSB2021_e1","ZSB2021_e1_46",2,95,1,"older","AssocMemFirst",11,1112,1689,"Include"
"ZSB2021_e1","ZSB2021_e1_46",2,96,0,"older","AssocMemFirst",3,2095,2279,"Include"
"ZSB2021_e1","ZSB2021_e1_46",2,97,0,"older","AssocMemFirst",11,1048,1846,"Include"
"ZSB2021_e1","ZSB2021_e1_46",3,57,0,"older","AssocMemFirst",11,700,4935,"Include"
"ZSB2021_e1","ZSB2021_e1_46",3,58,0,"older","AssocMemFirst",10,492,3035,"Include"
"ZSB2021_e1","ZSB2021_e1_46",3,59,1,"older","AssocMemFirst",10,1328,2148,"Include"
"ZSB2021_e1","ZSB2021_e1_46",3,60,1,"older","AssocMemFirst",12,700,1742,"Include"
"ZSB2021_e1","ZSB2021_e1_46",3,61,0,"older","AssocMemFirst",12,458,1474,"Include"
"ZSB2021_e1","ZSB2021_e1_46",3,62,1,"older","AssocMemFirst",12,826,1883,"Include"
"ZSB2021_e1","ZSB2021_e1_46",3,63,1,"older","AssocMemFirst",12,602,1540,"Include"
"ZSB2021_e1","ZSB2021_e1_46",3,64,1,"older","AssocMemFirst",10,1854,4420,"Include"
"ZSB2021_e1","ZSB2021_e1_46",3,65,0,"older","AssocMemFirst",11,515,1567,"Include"
"ZSB2021_e1","ZSB2021_e1_46",3,66,1,"older","AssocMemFirst",12,513,1290,"Include"
"ZSB2021_e1","ZSB2021_e1_46",3,67,0,"older","AssocMemFirst",11,535,2863,"Include"
"ZSB2021_e1","ZSB2021_e1_46",3,68,0,"older","AssocMemFirst",11,1502,2245,"Include"
"ZSB2021_e1","ZSB2021_e1_46",3,69,0,"older","AssocMemFirst",11,453,1677,"Include"
"ZSB2021_e1","ZSB2021_e1_46",3,70,0,"older","AssocMemFirst",4,1582,3670,"Include"
"ZSB2021_e1","ZSB2021_e1_46",3,71,1,"older","AssocMemFirst",12,820,1602,"Include"
"ZSB2021_e1","ZSB2021_e1_46",3,72,1,"older","AssocMemFirst",10,1216,2046,"Include"
"ZSB2021_e1","ZSB2021_e1_46",3,73,0,"older","AssocMemFirst",12,481,1681,"Include"
"ZSB2021_e1","ZSB2021_e1_46",3,74,0,"older","AssocMemFirst",4,3842,8433,"Include"
"ZSB2021_e1","ZSB2021_e1_46",3,75,1,"older","AssocMemFirst",12,452,1652,"Include"
"ZSB2021_e1","ZSB2021_e1_46",3,76,1,"older","AssocMemFirst",12,429,1469,"Include"
"ZSB2021_e1","ZSB2021_e1_46",3,77,0,"older","AssocMemFirst",11,456,2063,"Include"
"ZSB2021_e1","ZSB2021_e1_46",3,78,0,"older","AssocMemFirst",10,1905,3840,"Include"
"ZSB2021_e1","ZSB2021_e1_46",3,79,1,"older","AssocMemFirst",12,634,1216,"Include"
"ZSB2021_e1","ZSB2021_e1_46",3,80,1,"older","AssocMemFirst",12,538,1708,"Include"
"ZSB2021_e1","ZSB2021_e1_46",3,81,1,"older","AssocMemFirst",12,449,1239,"Include"
"ZSB2021_e1","ZSB2021_e1_46",3,82,1,"older","AssocMemFirst",12,554,1457,"Include"
"ZSB2021_e1","ZSB2021_e1_46",3,83,1,"older","AssocMemFirst",10,745,2199,"Include"
"ZSB2021_e1","ZSB2021_e1_46",3,84,0,"older","AssocMemFirst",2,1694,2695,"Include"
"ZSB2021_e1","ZSB2021_e1_46",3,85,1,"older","AssocMemFirst",11,823,1214,"Include"
"ZSB2021_e1","ZSB2021_e1_46",3,86,0,"older","AssocMemFirst",12,821,1394,"Include"
"ZSB2021_e1","ZSB2021_e1_46",3,87,1,"older","AssocMemFirst",11,523,1767,"Include"
"ZSB2021_e1","ZSB2021_e1_46",3,88,0,"older","AssocMemFirst",12,534,1337,"Include"
"ZSB2021_e1","ZSB2021_e1_46",3,89,0,"older","AssocMemFirst",4,870,5628,"Include"
"ZSB2021_e1","ZSB2021_e1_46",3,90,1,"older","AssocMemFirst",12,545,1381,"Include"
"ZSB2021_e1","ZSB2021_e1_46",3,91,0,"older","AssocMemFirst",11,457,2390,"Include"
"ZSB2021_e1","ZSB2021_e1_46",3,92,1,"older","AssocMemFirst",12,503,1330,"Include"
"ZSB2021_e1","ZSB2021_e1_46",3,93,1,"older","AssocMemFirst",8,784,11814,"Include"
"ZSB2021_e1","ZSB2021_e1_46",3,94,0,"older","AssocMemFirst",9,919,2195,"Include"
"ZSB2021_e1","ZSB2021_e1_46",3,95,0,"older","AssocMemFirst",4,2370,2933,"Include"
"ZSB2021_e1","ZSB2021_e1_46",3,96,0,"older","AssocMemFirst",11,1030,1670,"Include"
"ZSB2021_e1","ZSB2021_e1_46",1,58,0,"older","AssocMemFirst",11,1315,3683,"Include"
"ZSB2021_e1","ZSB2021_e1_46",1,59,1,"older","AssocMemFirst",12,559,1746,"Include"
"ZSB2021_e1","ZSB2021_e1_46",1,60,0,"older","AssocMemFirst",4,1839,6596,"Include"
"ZSB2021_e1","ZSB2021_e1_46",1,61,0,"older","AssocMemFirst",11,1128,1280,"Include"
"ZSB2021_e1","ZSB2021_e1_46",1,62,0,"older","AssocMemFirst",11,1120,1814,"Include"
"ZSB2021_e1","ZSB2021_e1_46",1,63,0,"older","AssocMemFirst",3,1188,5918,"Include"
"ZSB2021_e1","ZSB2021_e1_46",1,64,1,"older","AssocMemFirst",10,1640,1656,"Include"
"ZSB2021_e1","ZSB2021_e1_46",1,65,1,"older","AssocMemFirst",12,539,1642,"Include"
"ZSB2021_e1","ZSB2021_e1_46",1,66,1,"older","AssocMemFirst",12,918,1328,"Include"
"ZSB2021_e1","ZSB2021_e1_46",1,67,0,"older","AssocMemFirst",11,486,2620,"Include"
"ZSB2021_e1","ZSB2021_e1_46",1,68,1,"older","AssocMemFirst",11,712,1814,"Include"
"ZSB2021_e1","ZSB2021_e1_46",1,69,0,"older","AssocMemFirst",11,1806,1103,"Include"
"ZSB2021_e1","ZSB2021_e1_46",1,70,0,"older","AssocMemFirst",10,570,2832,"Include"
"ZSB2021_e1","ZSB2021_e1_46",1,71,1,"older","AssocMemFirst",9,571,3734,"Include"
"ZSB2021_e1","ZSB2021_e1_46",1,72,1,"older","AssocMemFirst",12,509,1519,"Include"
"ZSB2021_e1","ZSB2021_e1_46",1,73,0,"older","AssocMemFirst",11,649,2932,"Include"
"ZSB2021_e1","ZSB2021_e1_46",1,74,1,"older","AssocMemFirst",12,722,1258,"Include"
"ZSB2021_e1","ZSB2021_e1_46",1,75,0,"older","AssocMemFirst",11,782,3128,"Include"
"ZSB2021_e1","ZSB2021_e1_46",1,76,0,"older","AssocMemFirst",12,1148,1202,"Include"
"ZSB2021_e1","ZSB2021_e1_46",1,77,1,"older","AssocMemFirst",11,698,7866,"Include"
"ZSB2021_e1","ZSB2021_e1_46",1,78,0,"older","AssocMemFirst",8,607,7729,"Include"
"ZSB2021_e1","ZSB2021_e1_46",1,79,1,"older","AssocMemFirst",10,1457,1490,"Include"
"ZSB2021_e1","ZSB2021_e1_46",1,80,1,"older","AssocMemFirst",11,731,1234,"Include"
"ZSB2021_e1","ZSB2021_e1_46",1,81,1,"older","AssocMemFirst",9,764,11985,"Include"
"ZSB2021_e1","ZSB2021_e1_46",1,82,1,"older","AssocMemFirst",3,1922,2241,"Include"
"ZSB2021_e1","ZSB2021_e1_46",1,83,0,"older","AssocMemFirst",11,692,1168,"Include"
"ZSB2021_e1","ZSB2021_e1_46",1,84,1,"older","AssocMemFirst",10,669,3036,"Include"
"ZSB2021_e1","ZSB2021_e1_46",1,85,0,"older","AssocMemFirst",3,983,2821,"Include"
"ZSB2021_e1","ZSB2021_e1_46",1,86,1,"older","AssocMemFirst",12,645,1819,"Include"
"ZSB2021_e1","ZSB2021_e1_46",1,87,1,"older","AssocMemFirst",12,580,1326,"Include"
"ZSB2021_e1","ZSB2021_e1_46",1,88,0,"older","AssocMemFirst",10,558,1920,"Include"
"ZSB2021_e1","ZSB2021_e1_46",1,89,0,"older","AssocMemFirst",10,926,3195,"Include"
"ZSB2021_e1","ZSB2021_e1_46",1,90,0,"older","AssocMemFirst",10,581,2852,"Include"
"ZSB2021_e1","ZSB2021_e1_46",1,91,1,"older","AssocMemFirst",11,585,1265,"Include"
"ZSB2021_e1","ZSB2021_e1_46",1,92,1,"older","AssocMemFirst",11,1808,1380,"Include"
"ZSB2021_e1","ZSB2021_e1_46",1,93,1,"older","AssocMemFirst",11,558,1587,"Include"
"ZSB2021_e1","ZSB2021_e1_46",1,94,0,"older","AssocMemFirst",12,788,1435,"Include"
"ZSB2021_e1","ZSB2021_e1_46",1,95,0,"older","AssocMemFirst",12,1199,2888,"Include"
"ZSB2021_e1","ZSB2021_e1_46",1,96,1,"older","AssocMemFirst",9,3032,2714,"Include"
"ZSB2021_e1","ZSB2021_e1_46",1,97,0,"older","AssocMemFirst",11,556,1418,"Include"
"ZSB2021_e1","ZSB2021_e1_46",2,57,1,"older","AssocMemFirst",11,820,2602,"Include"
"ZSB2021_e1","ZSB2021_e1_46",2,58,0,"older","AssocMemFirst",3,1041,2406,"Include"
"ZSB2021_e1","ZSB2021_e1_46",2,59,1,"older","AssocMemFirst",4,880,6322,"Include"
"ZSB2021_e1","ZSB2021_e1_46",2,60,1,"older","AssocMemFirst",11,925,2160,"Include"
"ZSB2021_e1","ZSB2021_e1_46",2,61,0,"older","AssocMemFirst",3,987,6875,"Include"
"ZSB2021_e1","ZSB2021_e1_46",2,62,1,"older","AssocMemFirst",11,508,1502,"Include"
"ZSB2021_e1","ZSB2021_e1_46",2,63,0,"older","AssocMemFirst",11,488,1331,"Include"
"ZSB2021_e1","ZSB2021_e1_46",2,64,1,"older","AssocMemFirst",11,574,1304,"Include"
"ZSB2021_e1","ZSB2021_e1_46",2,65,0,"older","AssocMemFirst",10,454,3978,"Include"
"ZSB2021_e1","ZSB2021_e1_46",2,66,1,"older","AssocMemFirst",10,678,1495,"Include"
"ZSB2021_e1","ZSB2021_e1_46",2,67,0,"older","AssocMemFirst",11,569,1406,"Include"
"ZSB2021_e1","ZSB2021_e1_46",2,68,0,"older","AssocMemFirst",9,806,2653,"Include"
"ZSB2021_e1","ZSB2021_e1_46",2,69,1,"older","AssocMemFirst",11,328,5064,"Include"
"ZSB2021_e1","ZSB2021_e1_46",2,70,1,"older","AssocMemFirst",4,2143,6446,"Include"
"ZSB2021_e1","ZSB2021_e1_46",2,71,0,"older","AssocMemFirst",10,612,2092,"Include"
"ZSB2021_e1","ZSB2021_e1_46",2,72,1,"older","AssocMemFirst",9,1478,1678,"Include"
"ZSB2021_e1","ZSB2021_e1_46",2,73,0,"older","AssocMemFirst",9,1756,1326,"Include"
"ZSB2021_e1","ZSB2021_e1_46",2,74,0,"older","AssocMemFirst",9,628,1585,"Include"
"ZSB2021_e1","ZSB2021_e1_46",2,75,0,"older","AssocMemFirst",3,2698,4374,"Include"
"ZSB2021_e1","ZSB2021_e1_46",2,76,1,"older","AssocMemFirst",12,742,1537,"Include"
"ZSB2021_e1","ZSB2021_e1_46",2,77,1,"older","AssocMemFirst",12,512,1156,"Include"
"ZSB2021_e1","ZSB2021_e1_46",2,78,0,"older","AssocMemFirst",3,1484,2543,"Include"
"ZSB2021_e1","ZSB2021_e1_46",2,79,0,"older","AssocMemFirst",9,1385,5732,"Include"
"ZSB2021_e1","ZSB2021_e1_46",2,80,1,"older","AssocMemFirst",12,680,1188,"Include"
"ZSB2021_e1","ZSB2021_e1_46",2,81,1,"older","AssocMemFirst",12,828,1136,"Include"
"ZSB2021_e1","ZSB2021_e1_46",2,82,1,"older","AssocMemFirst",12,592,1246,"Include"
"ZSB2021_e1","ZSB2021_e1_46",2,83,0,"older","AssocMemFirst",11,535,1963,"Include"
"ZSB2021_e1","ZSB2021_e1_46",2,84,0,"older","AssocMemFirst",11,764,1109,"Include"
"ZSB2021_e1","ZSB2021_e1_46",2,85,0,"older","AssocMemFirst",3,912,3264,"Include"
"ZSB2021_e1","ZSB2021_e1_46",2,86,0,"older","AssocMemFirst",8,669,3927,"Include"
"ZSB2021_e1","ZSB2021_e1_46",2,87,0,"older","AssocMemFirst",11,772,1309,"Include"
"ZSB2021_e1","ZSB2021_e1_46",2,88,1,"older","AssocMemFirst",10,793,1223,"Include"
"ZSB2021_e1","ZSB2021_e1_46",2,89,0,"older","AssocMemFirst",10,441,1548,"Include"
"ZSB2021_e1","ZSB2021_e1_46",2,90,1,"older","AssocMemFirst",12,582,1370,"Include"
"ZSB2021_e1","ZSB2021_e1_46",2,91,1,"older","AssocMemFirst",10,1608,1489,"Include"
"ZSB2021_e1","ZSB2021_e1_46",2,92,1,"older","AssocMemFirst",11,736,1163,"Include"
"ZSB2021_e1","ZSB2021_e1_46",2,93,1,"older","AssocMemFirst",11,3108,1909,"Include"
"ZSB2021_e1","ZSB2021_e1_46",2,94,0,"older","AssocMemFirst",3,1102,4769,"Include"
"ZSB2021_e1","ZSB2021_e1_46",2,95,0,"older","AssocMemFirst",10,566,1644,"Include"
"ZSB2021_e1","ZSB2021_e1_46",2,96,1,"older","AssocMemFirst",12,417,1682,"Include"
"ZSB2021_e1","ZSB2021_e1_48",2,40,1,"older","RecogFirst",11,1634,4991,"Include"
"ZSB2021_e1","ZSB2021_e1_48",2,41,1,"older","RecogFirst",11,1415,3795,"Include"
"ZSB2021_e1","ZSB2021_e1_48",2,42,1,"older","RecogFirst",12,1581,2377,"Include"
"ZSB2021_e1","ZSB2021_e1_48",2,43,1,"older","RecogFirst",11,689,2889,"Include"
"ZSB2021_e1","ZSB2021_e1_48",2,44,0,"older","RecogFirst",2,1474,2616,"Include"
"ZSB2021_e1","ZSB2021_e1_48",2,45,0,"older","RecogFirst",3,2323,3234,"Include"
"ZSB2021_e1","ZSB2021_e1_48",2,46,0,"older","RecogFirst",1,744,2513,"Include"
"ZSB2021_e1","ZSB2021_e1_48",2,47,1,"older","RecogFirst",3,1249,4565,"Include"
"ZSB2021_e1","ZSB2021_e1_48",2,48,0,"older","RecogFirst",1,643,2250,"Include"
"ZSB2021_e1","ZSB2021_e1_48",2,49,1,"older","RecogFirst",12,1929,1540,"Include"
"ZSB2021_e1","ZSB2021_e1_48",2,50,1,"older","RecogFirst",12,544,1647,"Include"
"ZSB2021_e1","ZSB2021_e1_48",2,51,0,"older","RecogFirst",1,1483,1917,"Include"
"ZSB2021_e1","ZSB2021_e1_48",2,52,1,"older","RecogFirst",12,929,1315,"Include"
"ZSB2021_e1","ZSB2021_e1_48",2,53,1,"older","RecogFirst",12,187,2159,"Include"
"ZSB2021_e1","ZSB2021_e1_48",2,54,0,"older","RecogFirst",3,974,3695,"Include"
"ZSB2021_e1","ZSB2021_e1_48",2,55,1,"older","RecogFirst",3,599,2746,"Include"
"ZSB2021_e1","ZSB2021_e1_48",2,56,0,"older","RecogFirst",3,696,3131,"Include"
"ZSB2021_e1","ZSB2021_e1_48",2,57,0,"older","RecogFirst",3,1098,1999,"Include"
"ZSB2021_e1","ZSB2021_e1_48",2,58,1,"older","RecogFirst",4,1671,3921,"Include"
"ZSB2021_e1","ZSB2021_e1_48",2,59,1,"older","RecogFirst",11,845,2319,"Include"
"ZSB2021_e1","ZSB2021_e1_48",2,60,1,"older","RecogFirst",12,679,1655,"Include"
"ZSB2021_e1","ZSB2021_e1_48",2,61,1,"older","RecogFirst",12,595,1175,"Include"
"ZSB2021_e1","ZSB2021_e1_48",2,62,0,"older","RecogFirst",3,684,2943,"Include"
"ZSB2021_e1","ZSB2021_e1_48",2,63,0,"older","RecogFirst",3,519,1395,"Include"
"ZSB2021_e1","ZSB2021_e1_48",2,64,0,"older","RecogFirst",1,455,1621,"Include"
"ZSB2021_e1","ZSB2021_e1_48",2,65,1,"older","RecogFirst",12,1967,1271,"Include"
"ZSB2021_e1","ZSB2021_e1_48",2,66,0,"older","RecogFirst",3,942,1611,"Include"
"ZSB2021_e1","ZSB2021_e1_48",2,67,0,"older","RecogFirst",3,517,2219,"Include"
"ZSB2021_e1","ZSB2021_e1_48",2,68,0,"older","RecogFirst",10,1101,1643,"Include"
"ZSB2021_e1","ZSB2021_e1_48",2,69,0,"older","RecogFirst",3,726,5211,"Include"
"ZSB2021_e1","ZSB2021_e1_48",2,70,0,"older","RecogFirst",1,363,1884,"Include"
"ZSB2021_e1","ZSB2021_e1_48",2,71,1,"older","RecogFirst",3,729,2632,"Include"
"ZSB2021_e1","ZSB2021_e1_48",2,72,0,"older","RecogFirst",3,476,1359,"Include"
"ZSB2021_e1","ZSB2021_e1_48",2,73,1,"older","RecogFirst",9,841,1332,"Include"
"ZSB2021_e1","ZSB2021_e1_48",2,74,0,"older","RecogFirst",2,999,3979,"Include"
"ZSB2021_e1","ZSB2021_e1_48",2,75,0,"older","RecogFirst",1,452,1401,"Include"
"ZSB2021_e1","ZSB2021_e1_48",2,76,0,"older","RecogFirst",3,698,1733,"Include"
"ZSB2021_e1","ZSB2021_e1_48",2,77,1,"older","RecogFirst",3,808,2513,"Include"
"ZSB2021_e1","ZSB2021_e1_48",2,78,1,"older","RecogFirst",3,1151,2163,"Include"
"ZSB2021_e1","ZSB2021_e1_48",2,79,1,"older","RecogFirst",12,407,1212,"Include"
"ZSB2021_e1","ZSB2021_e1_48",3,40,1,"older","RecogFirst",12,457,2482,"Include"
"ZSB2021_e1","ZSB2021_e1_48",3,41,0,"older","RecogFirst",11,2095,3954,"Include"
"ZSB2021_e1","ZSB2021_e1_48",3,42,0,"older","RecogFirst",3,1240,2814,"Include"
"ZSB2021_e1","ZSB2021_e1_48",3,43,0,"older","RecogFirst",3,2232,1697,"Include"
"ZSB2021_e1","ZSB2021_e1_48",3,44,0,"older","RecogFirst",3,472,1505,"Include"
"ZSB2021_e1","ZSB2021_e1_48",3,45,1,"older","RecogFirst",10,747,1584,"Include"
"ZSB2021_e1","ZSB2021_e1_48",3,46,0,"older","RecogFirst",11,230,3945,"Include"
"ZSB2021_e1","ZSB2021_e1_48",3,47,1,"older","RecogFirst",12,137,1248,"Include"
"ZSB2021_e1","ZSB2021_e1_48",3,48,1,"older","RecogFirst",4,1201,6190,"Include"
"ZSB2021_e1","ZSB2021_e1_48",3,49,1,"older","RecogFirst",12,529,1948,"Include"
"ZSB2021_e1","ZSB2021_e1_48",3,50,0,"older","RecogFirst",12,530,1183,"Include"
"ZSB2021_e1","ZSB2021_e1_48",3,51,0,"older","RecogFirst",1,471,1312,"Include"
"ZSB2021_e1","ZSB2021_e1_48",3,52,0,"older","RecogFirst",1,501,1927,"Include"
"ZSB2021_e1","ZSB2021_e1_48",3,53,1,"older","RecogFirst",12,1011,1291,"Include"
"ZSB2021_e1","ZSB2021_e1_48",3,54,0,"older","RecogFirst",1,401,1365,"Include"
"ZSB2021_e1","ZSB2021_e1_48",3,55,1,"older","RecogFirst",12,417,1140,"Include"
"ZSB2021_e1","ZSB2021_e1_48",3,56,1,"older","RecogFirst",12,399,995,"Include"
"ZSB2021_e1","ZSB2021_e1_48",3,57,1,"older","RecogFirst",10,1445,3993,"Include"
"ZSB2021_e1","ZSB2021_e1_48",3,58,1,"older","RecogFirst",12,444,1526,"Include"
"ZSB2021_e1","ZSB2021_e1_48",3,59,0,"older","RecogFirst",12,39,1037,"Include"
"ZSB2021_e1","ZSB2021_e1_48",3,60,1,"older","RecogFirst",12,757,960,"Include"
"ZSB2021_e1","ZSB2021_e1_48",3,61,0,"older","RecogFirst",3,815,3529,"Include"
"ZSB2021_e1","ZSB2021_e1_48",3,62,1,"older","RecogFirst",9,1062,1361,"Include"
"ZSB2021_e1","ZSB2021_e1_48",3,63,0,"older","RecogFirst",3,642,1783,"Include"
"ZSB2021_e1","ZSB2021_e1_48",3,64,1,"older","RecogFirst",3,371,2275,"Include"
"ZSB2021_e1","ZSB2021_e1_48",3,65,1,"older","RecogFirst",3,1190,2103,"Include"
"ZSB2021_e1","ZSB2021_e1_48",3,66,1,"older","RecogFirst",11,423,1729,"Include"
"ZSB2021_e1","ZSB2021_e1_48",3,67,1,"older","RecogFirst",3,344,2697,"Include"
"ZSB2021_e1","ZSB2021_e1_48",3,68,0,"older","RecogFirst",1,396,1909,"Include"
"ZSB2021_e1","ZSB2021_e1_48",3,69,0,"older","RecogFirst",1,408,1247,"Include"
"ZSB2021_e1","ZSB2021_e1_48",3,70,1,"older","RecogFirst",12,357,1203,"Include"
"ZSB2021_e1","ZSB2021_e1_48",3,71,1,"older","RecogFirst",12,87,946,"Include"
"ZSB2021_e1","ZSB2021_e1_48",3,72,0,"older","RecogFirst",1,392,1439,"Include"
"ZSB2021_e1","ZSB2021_e1_48",3,73,1,"older","RecogFirst",12,147,1467,"Include"
"ZSB2021_e1","ZSB2021_e1_48",3,74,1,"older","RecogFirst",12,429,1353,"Include"
"ZSB2021_e1","ZSB2021_e1_48",3,75,0,"older","RecogFirst",1,354,1399,"Include"
"ZSB2021_e1","ZSB2021_e1_48",3,76,0,"older","RecogFirst",1,349,1311,"Include"
"ZSB2021_e1","ZSB2021_e1_48",3,77,0,"older","RecogFirst",3,372,2602,"Include"
"ZSB2021_e1","ZSB2021_e1_48",3,78,0,"older","RecogFirst",3,504,1497,"Include"
"ZSB2021_e1","ZSB2021_e1_48",3,79,0,"older","RecogFirst",3,296,3815,"Include"
"ZSB2021_e1","ZSB2021_e1_48",1,40,1,"older","RecogFirst",12,147,2367,"Include"
"ZSB2021_e1","ZSB2021_e1_48",1,41,0,"older","RecogFirst",3,754,4824,"Include"
"ZSB2021_e1","ZSB2021_e1_48",1,42,0,"older","RecogFirst",1,377,3399,"Include"
"ZSB2021_e1","ZSB2021_e1_48",1,43,1,"older","RecogFirst",12,461,1893,"Include"
"ZSB2021_e1","ZSB2021_e1_48",1,44,0,"older","RecogFirst",2,839,2045,"Include"
"ZSB2021_e1","ZSB2021_e1_48",1,45,1,"older","RecogFirst",2,1255,2712,"Include"
"ZSB2021_e1","ZSB2021_e1_48",1,46,0,"older","RecogFirst",9,1217,1631,"Include"
"ZSB2021_e1","ZSB2021_e1_48",1,47,0,"older","RecogFirst",1,477,1619,"Include"
"ZSB2021_e1","ZSB2021_e1_48",1,48,0,"older","RecogFirst",1,1227,1909,"Include"
"ZSB2021_e1","ZSB2021_e1_48",1,49,0,"older","RecogFirst",4,724,6909,"Include"
"ZSB2021_e1","ZSB2021_e1_48",1,50,0,"older","RecogFirst",2,953,2306,"Include"
"ZSB2021_e1","ZSB2021_e1_48",1,51,0,"older","RecogFirst",1,615,1645,"Include"
"ZSB2021_e1","ZSB2021_e1_48",1,52,1,"older","RecogFirst",12,66,1457,"Include"
"ZSB2021_e1","ZSB2021_e1_48",1,53,1,"older","RecogFirst",3,349,2411,"Include"
"ZSB2021_e1","ZSB2021_e1_48",1,54,1,"older","RecogFirst",12,495,1371,"Include"
"ZSB2021_e1","ZSB2021_e1_48",1,55,0,"older","RecogFirst",2,599,2446,"Include"
"ZSB2021_e1","ZSB2021_e1_48",1,56,1,"older","RecogFirst",4,747,3867,"Include"
"ZSB2021_e1","ZSB2021_e1_48",1,57,1,"older","RecogFirst",12,493,1936,"Include"
"ZSB2021_e1","ZSB2021_e1_48",1,58,1,"older","RecogFirst",12,513,1157,"Include"
"ZSB2021_e1","ZSB2021_e1_48",1,59,1,"older","RecogFirst",3,810,1816,"Include"
"ZSB2021_e1","ZSB2021_e1_48",1,60,0,"older","RecogFirst",3,399,2405,"Include"
"ZSB2021_e1","ZSB2021_e1_48",1,61,0,"older","RecogFirst",4,1041,1715,"Include"
"ZSB2021_e1","ZSB2021_e1_48",1,62,1,"older","RecogFirst",12,689,1506,"Include"
"ZSB2021_e1","ZSB2021_e1_48",1,63,0,"older","RecogFirst",3,450,6616,"Include"
"ZSB2021_e1","ZSB2021_e1_48",1,64,0,"older","RecogFirst",3,473,1515,"Include"
"ZSB2021_e1","ZSB2021_e1_48",1,65,1,"older","RecogFirst",11,1130,2441,"Include"
"ZSB2021_e1","ZSB2021_e1_48",1,66,1,"older","RecogFirst",2,401,1856,"Include"
"ZSB2021_e1","ZSB2021_e1_48",1,67,0,"older","RecogFirst",2,549,2235,"Include"
"ZSB2021_e1","ZSB2021_e1_48",1,68,1,"older","RecogFirst",12,371,1033,"Include"
"ZSB2021_e1","ZSB2021_e1_48",1,69,0,"older","RecogFirst",3,893,2311,"Include"
"ZSB2021_e1","ZSB2021_e1_48",1,70,0,"older","RecogFirst",3,621,1853,"Include"
"ZSB2021_e1","ZSB2021_e1_48",1,71,0,"older","RecogFirst",3,492,1751,"Include"
"ZSB2021_e1","ZSB2021_e1_48",1,72,1,"older","RecogFirst",12,837,1243,"Include"
"ZSB2021_e1","ZSB2021_e1_48",1,73,1,"older","RecogFirst",4,511,2846,"Include"
"ZSB2021_e1","ZSB2021_e1_48",1,74,1,"older","RecogFirst",10,473,1606,"Include"
"ZSB2021_e1","ZSB2021_e1_48",1,75,1,"older","RecogFirst",11,514,1633,"Include"
"ZSB2021_e1","ZSB2021_e1_48",1,76,0,"older","RecogFirst",11,446,1137,"Include"
"ZSB2021_e1","ZSB2021_e1_48",1,77,0,"older","RecogFirst",3,1225,2639,"Include"
"ZSB2021_e1","ZSB2021_e1_48",1,78,1,"older","RecogFirst",4,393,1923,"Include"
"ZSB2021_e1","ZSB2021_e1_48",1,79,1,"older","RecogFirst",11,376,1580,"Include"
"ZSB2021_e1","ZSB2021_e1_48",2,39,1,"older","RecogFirst",2,1485,4735,"Include"
